Folder: alab-pipeline/data/xrd_creation/results (part 91)

File: PG_1940-1.xy
9.903433 2511.00
10.2077 2328.00
10.512 2279.00
10.8162 2215.00
11.1205 2161.00
11.4247 2015.00
11.729 1989.00
12.0333 1855.00
12.3375 1796.00
12.6418 1798.00
12.946 1826.00
13.2503 1664.00
13.5546 1600.00
13.8588 1627.00
14.1631 1826.00
14.4673 2064.00
14.7716 1514.00
15.0759 1419.00
15.3801 1397.00
15.6844 1345.00
15.9886 1410.00
16.2929 1365.00
16.5972 1316.00
16.9014 1236.00
17.2057 1200.00
17.5099 1218.00
17.8142 1196.00
18.1185 1236.00
18.4227 1209.00
18.727 1132.00
19.0312 1156.00
19.3355 1317.00
19.6398 1105.00
19.944 1072.00
20.2483 1198.00
20.5525 1043.00
20.8568 989.00
21.1611 1020.00
21.4653 961.00
21.7696 931.00
22.0738 929.00
22.3781 934.00
22.6824 906.00
22.9866 922.00
23.2909 944.00
23.5951 904.00
23.8994 857.00
24.2037 920.00
24.5079 957.00
24.8122 886.00
25.1164 799.00
25.4207 859.00
25.725 974.00
26.0292 1117.00
26.3335 3691.00
26.6378 7228.00
26.942 1462.00
27.2463 1746.00
27.5505 1151.00
27.8548 820.00
28.1591 731.00
28.4633 854.00
28.7676 1614.00
29.0718 884.00
29.3761 747.00
29.6804 664.00
29.9846 817.00
30.2889 711.00
30.5931 1000.00
30.8974 3266.00
31.2017 1287.00
31.5059 905.00
31.8102 1699.00
32.1144 2525.00
32.4187 2620.00
32.723 1037.00
33.0272 754.00
33.3315 741.00
33.6357 1222.00
33.94 1333.00
34.2443 2645.00
34.5485 935.00
34.8528 633.00
35.157 654.00
35.4613 554.00
35.7656 634.00
36.0698 723.00
36.3741 856.00
36.6783 610.00
36.9826 649.00
37.2869 561.00
37.5911 578.00
37.8954 585.00
38.1996 684.00
38.5039 617.00
38.8082 794.00
39.1124 980.00
39.4167 836.00
39.7209 800.00
40.0252 903.00
40.3295 568.00
40.6337 458.00
40.938 493.00
41.2422 565.00
41.5465 571.00
41.8508 571.00
42.155 471.00
42.4593 468.00
42.7635 536.00
43.0678 499.00
43.3721 575.00
43.6763 929.00
43.9806 836.00
44.2849 624.00
44.5891 968.00
44.8934 963.00
45.1976 627.00
45.5019 485.00
45.8062 630.00
46.1104 1018.00
46.4147 1106.00
46.7189 633.00
47.0232 521.00
47.3275 661.00
47.6317 1925.00
47.936 846.00
48.2402 558.00
48.5445 462.00
48.8488 547.00
49.153 477.00
49.4573 700.00
49.7615 1308.00
50.0658 1646.00
50.3701 930.00
50.6743 642.00
50.9786 554.00
51.2828 574.00
51.5871 576.00
51.8914 782.00
52.1956 2803.00
52.4999 1361.00
52.8041 687.00
53.1084 606.00
53.4127 525.00
53.7169 539.00
54.0212 616.00
54.3254 588.00
54.6297 518.00
54.934 443.00
55.2382 485.00
55.5425 524.00
55.8467 586.00
56.151 1268.00
56.4553 664.00
56.7595 527.00
57.0638 471.00
57.368 579.00
57.6723 688.00
57.9766 838.00
58.2808 1087.00
58.5851 700.00
58.8893 568.00
59.1936 629.00
59.4979 1003.00
59.8021 582.00
60.1064 650.00
60.4106 871.00
60.7149 944.00
61.0192 721.00
61.3234 645.00
61.6277 560.00
61.932 456.00
62.2362 436.00
62.5405 469.00
62.8447 566.00
63.149 686.00
63.4533 752.00
63.7575 589.00
64.0618 577.00
64.366 617.00
64.6703 419.00
64.9745 439.00
65.2788 429.00
65.5831 514.00
65.8873 724.00
66.1916 1371.00
66.4959 816.00
66.8001 494.00
67.1044 467.00
67.4086 455.00
67.7129 475.00
68.0172 467.00
68.3214 461.00
68.6257 500.00
68.9299 467.00
69.2342 433.00
69.5385 448.00
69.8427 621.00
70.147 588.00
70.4512 499.00
70.7555 447.00
71.0598 494.00
71.364 458.00
71.6683 491.00
71.9725 658.00
72.2768 663.00
72.5811 562.00
72.8853 482.00
73.1896 503.00
73.4938 587.00
73.7981 612.00
74.1024 590.00
74.4066 470.00
74.7109 443.00
75.0151 505.00
75.3194 614.00
75.6237 701.00
75.9279 450.00
76.2322 501.00
76.5364 879.00
76.8407 642.00
77.145 510.00
77.4492 408.00
77.7535 430.00
78.0577 448.00
78.362 403.00
78.6663 460.00
78.9705 468.00
79.2748 434.00
79.579 453.00
79.8833 480.00
80.1876 481.00
80.4918 470.00
80.7961 475.00
81.1003 482.00
81.4046 445.00
81.7089 444.00
82.0131 479.00
82.3174 515.00
82.6217 589.00
82.9259 804.00
83.2302 839.00
83.5344 746.00
83.8387 686.00
84.143 577.00
84.4472 775.00
84.7515 830.00
85.0557 603.00
85.36 497.00
85.6643 490.00
85.9685 664.00
86.2728 590.00
86.577 543.00
86.8813 553.00
87.1856 517.00
87.4898 474.00
87.7941 595.00
88.0983 492.00
88.4026 433.00
88.7069 425.00
89.0111 485.00
89.3154 537.00
89.6196 586.00
89.9239 544.00
90.2282 515.00
90.5324 475.00
90.8367 479.00
91.1409 566.00
91.4452 623.00
91.7495 495.00
92.0537 455.00
92.358 530.00
92.6622 494.00
92.9665 526.00
93.2708 479.00
93.575 450.00
93.8793 425.00
94.1835 417.00
94.4878 443.00
94.7921 415.00
95.0963 399.00
95.4006 441.00
95.7048 496.00
96.0091 538.00
96.3134 521.00
96.6176 450.00
96.9219 475.00
97.2261 492.00
97.5304 585.00
97.8347 520.00
98.1389 478.00
98.4432 490.00
98.7474 475.00
99.0517 434.00
99.356 478.00
99.6602 422.00
99.9645 433.00
100.095 428.00

File: PG_1941-1.xy
9.903433 2850.00
10.2077 2698.00
10.512 2622.00
10.8162 2648.00
11.1205 2437.00
11.4247 2394.00
11.729 2229.00
12.0333 2200.00
12.3375 2288.00
12.6418 2235.00
12.946 2371.00
13.2503 2199.00
13.5546 2080.00
13.8588 2980.00
14.1631 3941.00
14.4673 1975.00
14.7716 1909.00
15.0759 1808.00
15.3801 1883.00
15.6844 1829.00
15.9886 1717.00
16.2929 1650.00
16.5972 1609.00
16.9014 1642.00
17.2057 1566.00
17.5099 1541.00
17.8142 1454.00
18.1185 1397.00
18.4227 1474.00
18.727 1416.00
19.0312 1390.00
19.3355 1355.00
19.6398 1445.00
19.944 1285.00
20.2483 1321.00
20.5525 1274.00
20.8568 1240.00
21.1611 1189.00
21.4653 1145.00
21.7696 1216.00
22.0738 1113.00
22.3781 1124.00
22.6824 1090.00
22.9866 1144.00
23.2909 1084.00
23.5951 1059.00
23.8994 1079.00
24.2037 1056.00
24.5079 1104.00
24.8122 1003.00
25.1164 1006.00
25.4207 1041.00
25.725 1157.00
26.0292 1378.00
26.3335 979.00
26.6378 984.00
26.942 1090.00
27.2463 1339.00
27.5505 1579.00
27.8548 7202.00
28.1591 8518.00
28.4633 1477.00
28.7676 1999.00
29.0718 1014.00
29.3761 1007.00
29.6804 949.00
29.9846 1674.00
30.2889 1000.00
30.5931 944.00
30.8974 912.00
31.2017 937.00
31.5059 1013.00
31.8102 1026.00
32.1144 1413.00
32.4187 15035.00
32.723 2390.00
33.0272 2145.00
33.3315 947.00
33.6357 788.00
33.94 746.00
34.2443 857.00
34.5485 781.00
34.8528 767.00
35.157 989.00
35.4613 2581.00
35.7656 720.00
36.0698 661.00
36.3741 684.00
36.6783 698.00
36.9826 666.00
37.2869 592.00
37.5911 643.00
37.8954 608.00
38.1996 595.00
38.5039 653.00
38.8082 872.00
39.1124 713.00
39.4167 941.00
39.7209 720.00
40.0252 1089.00
40.3295 685.00
40.6337 639.00
40.938 615.00
41.2422 603.00
41.5465 804.00
41.8508 703.00
42.155 711.00
42.4593 1083.00
42.7635 621.00
43.0678 517.00
43.3721 572.00
43.6763 521.00
43.9806 505.00
44.2849 546.00
44.5891 640.00
44.8934 543.00
45.1976 530.00
45.5019 641.00
45.8062 755.00
46.1104 1531.00
46.4147 7767.00
46.7189 851.00
47.0232 591.00
47.3275 684.00
47.6317 487.00
47.936 453.00
48.2402 569.00
48.5445 1058.00
48.8488 607.00
49.153 552.00
49.4573 518.00
49.7615 549.00
50.0658 467.00
50.3701 547.00
50.6743 486.00
50.9786 742.00
51.2828 489.00
51.5871 559.00
51.8914 535.00
52.1956 473.00
52.4999 498.00
52.8041 487.00
53.1084 488.00
53.4127 571.00
53.7169 546.00
54.0212 672.00
54.3254 679.00
54.6297 1579.00
54.934 6374.00
55.2382 982.00
55.5425 609.00
55.8467 545.00
56.151 517.00
56.4553 473.00
56.7595 496.00
57.0638 565.00
57.368 1277.00
57.6723 1785.00
57.9766 604.00
58.2808 493.00
58.5851 438.00
58.8893 436.00
59.1936 665.00
59.4979 1347.00
59.8021 495.00
60.1064 447.00
60.4106 409.00
60.7149 461.00
61.0192 461.00
61.3234 436.00
61.6277 400.00
61.932 379.00
62.2362 379.00
62.5405 420.00
62.8447 389.00
63.149 358.00
63.4533 392.00
63.7575 352.00
64.0618 433.00
64.366 1406.00
64.6703 553.00
64.9745 393.00
65.2788 368.00
65.5831 389.00
65.8873 355.00
66.1916 421.00
66.4959 342.00
66.8001 390.00
67.1044 520.00
67.4086 1447.00
67.7129 539.00
68.0172 413.00
68.3214 371.00
68.6257 431.00
68.9299 467.00
69.2342 866.00
69.5385 450.00
69.8427 419.00
70.147 371.00
70.4512 380.00
70.7555 384.00
71.0598 344.00
71.364 378.00
71.6683 371.00
71.9725 512.00
72.2768 415.00
72.5811 338.00
72.8853 323.00
73.1896 399.00
73.4938 408.00
73.7981 610.00
74.1024 713.00
74.4066 1779.00
74.7109 644.00
75.0151 435.00
75.3194 404.00
75.6237 398.00
75.9279 403.00
76.2322 526.00
76.5364 2333.00
76.8407 1344.00
77.145 476.00
77.4492 369.00
77.7535 398.00
78.0577 391.00
78.362 533.00
78.6663 402.00
78.9705 350.00
79.2748 304.00
79.579 383.00
79.8833 319.00
80.1876 340.00
80.4918 328.00
80.7961 358.00
81.1003 332.00
81.4046 350.00
81.7089 390.00
82.0131 367.00
82.3174 357.00
82.6217 543.00
82.9259 506.00
83.2302 361.00
83.5344 333.00
83.8387 299.00
84.143 345.00
84.4472 376.00
84.7515 357.00
85.0557 442.00
85.36 1093.00
85.6643 1098.00
85.9685 374.00
86.2728 303.00
86.577 333.00
86.8813 401.00
87.1856 429.00
87.4898 392.00
87.7941 311.00
88.0983 309.00
88.4026 311.00
88.7069 339.00
89.0111 326.00
89.3154 283.00
89.6196 296.00
89.9239 332.00
90.2282 340.00
90.5324 295.00
90.8367 364.00
91.1409 478.00
91.4452 1396.00
91.7495 1038.00
92.0537 1139.00
92.358 736.00
92.6622 348.00
92.9665 316.00
93.2708 329.00
93.575 266.00
93.8793 298.00
94.1835 319.00
94.4878 323.00
94.7921 289.00
95.0963 326.00
95.4006 333.00
95.7048 433.00
96.0091 424.00
96.3134 375.00
96.6176 299.00
96.9219 290.00
97.2261 268.00
97.5304 279.00
97.8347 281.00
98.1389 286.00
98.4432 312.00
98.7474 296.00
99.0517 282.00
99.356 318.00
99.6602 332.00
99.9645 342.00
100.095 363.00

File: PG_1943-1.xy
9.903433 2650.00
10.2077 2592.00
10.512 2529.00
10.8162 2421.00
11.1205 2386.00
11.4247 2247.00
11.729 2115.00
12.0333 2122.00
12.3375 1962.00
12.6418 1947.00
12.946 1900.00
13.2503 1848.00
13.5546 1765.00
13.8588 1784.00
14.1631 1683.00
14.4673 1639.00
14.7716 1692.00
15.0759 1632.00
15.3801 1599.00
15.6844 1585.00
15.9886 1505.00
16.2929 1563.00
16.5972 1546.00
16.9014 1560.00
17.2057 1545.00
17.5099 1513.00
17.8142 1549.00
18.1185 1578.00
18.4227 1563.00
18.727 1527.00
19.0312 1565.00
19.3355 1592.00
19.6398 1620.00
19.944 1632.00
20.2483 1635.00
20.5525 1649.00
20.8568 1687.00
21.1611 1695.00
21.4653 1781.00
21.7696 1803.00
22.0738 1895.00
22.3781 1795.00
22.6824 1887.00
22.9866 1875.00
23.2909 1973.00
23.5951 1943.00
23.8994 2052.00
24.2037 2136.00
24.5079 2025.00
24.8122 2062.00
25.1164 2118.00
25.4207 2013.00
25.725 1989.00
26.0292 2073.00
26.3335 1998.00
26.6378 2000.00
26.942 1990.00
27.2463 1930.00
27.5505 1913.00
27.8548 1928.00
28.1591 1905.00
28.4633 1861.00
28.7676 1819.00
29.0718 1811.00
29.3761 1712.00
29.6804 1546.00
29.9846 1803.00
30.2889 1725.00
30.5931 1770.00
30.8974 1771.00
31.2017 1563.00
31.5059 1649.00
31.8102 1518.00
32.1144 1341.00
32.4187 1195.00
32.723 1180.00
33.0272 1141.00
33.3315 1167.00
33.6357 1136.00
33.94 1148.00
34.2443 1142.00
34.5485 1066.00
34.8528 1019.00
35.157 979.00
35.4613 949.00
35.7656 951.00
36.0698 923.00
36.3741 978.00
36.6783 906.00
36.9826 864.00
37.2869 829.00
37.5911 791.00
37.8954 928.00
38.1996 926.00
38.5039 838.00
38.8082 864.00
39.1124 871.00
39.4167 897.00
39.7209 752.00
40.0252 793.00
40.3295 773.00
40.6337 803.00
40.938 730.00
41.2422 742.00
41.5465 763.00
41.8508 774.00
42.155 729.00
42.4593 768.00
42.7635 716.00
43.0678 777.00
43.3721 670.00
43.6763 703.00
43.9806 719.00
44.2849 701.00
44.5891 730.00
44.8934 751.00
45.1976 722.00
45.5019 673.00
45.8062 671.00
46.1104 654.00
46.4147 651.00
46.7189 637.00
47.0232 613.00
47.3275 672.00
47.6317 594.00
47.936 580.00
48.2402 606.00
48.5445 577.00
48.8488 658.00
49.153 607.00
49.4573 613.00
49.7615 669.00
50.0658 587.00
50.3701 589.00
50.6743 644.00
50.9786 643.00
51.2828 566.00
51.5871 591.00
51.8914 569.00
52.1956 564.00
52.4999 585.00
52.8041 517.00
53.1084 574.00
53.4127 512.00
53.7169 557.00
54.0212 540.00
54.3254 555.00
54.6297 557.00
54.934 574.00
55.2382 522.00
55.5425 542.00
55.8467 544.00
56.151 518.00
56.4553 507.00
56.7595 518.00
57.0638 511.00
57.368 489.00
57.6723 491.00
57.9766 547.00
58.2808 520.00
58.5851 486.00
58.8893 512.00
59.1936 483.00
59.4979 475.00
59.8021 471.00
60.1064 446.00
60.4106 449.00
60.7149 490.00
61.0192 469.00
61.3234 448.00
61.6277 513.00
61.932 448.00
62.2362 460.00
62.5405 490.00
62.8447 435.00
63.149 448.00
63.4533 478.00
63.7575 436.00
64.0618 441.00
64.366 506.00
64.6703 387.00
64.9745 441.00
65.2788 422.00
65.5831 405.00
65.8873 486.00
66.1916 486.00
66.4959 438.00
66.8001 453.00
67.1044 408.00
67.4086 411.00
67.7129 433.00
68.0172 393.00
68.3214 398.00
68.6257 388.00
68.9299 425.00
69.2342 397.00
69.5385 425.00
69.8427 412.00
70.147 411.00
70.4512 383.00
70.7555 394.00
71.0598 445.00
71.364 425.00
71.6683 418.00
71.9725 433.00
72.2768 397.00
72.5811 402.00
72.8853 380.00
73.1896 374.00
73.4938 394.00
73.7981 408.00
74.1024 388.00
74.4066 372.00
74.7109 404.00
75.0151 411.00
75.3194 404.00
75.6237 413.00
75.9279 334.00
76.2322 410.00
76.5364 402.00
76.8407 382.00
77.145 380.00
77.4492 374.00
77.7535 421.00
78.0577 394.00
78.362 391.00
78.6663 366.00
78.9705 388.00
79.2748 336.00
79.579 369.00
79.8833 393.00
80.1876 383.00
80.4918 343.00
80.7961 380.00
81.1003 360.00
81.4046 356.00
81.7089 374.00
82.0131 368.00
82.3174 360.00
82.6217 350.00
82.9259 330.00
83.2302 354.00
83.5344 324.00
83.8387 346.00
84.143 328.00
84.4472 312.00
84.7515 351.00
85.0557 324.00
85.36 320.00
85.6643 314.00
85.9685 319.00
86.2728 292.00
86.577 303.00
86.8813 358.00
87.1856 330.00
87.4898 327.00
87.7941 312.00
88.0983 296.00
88.4026 322.00
88.7069 281.00
89.0111 244.00
89.3154 306.00
89.6196 300.00
89.9239 261.00
90.2282 304.00
90.5324 283.00
90.8367 300.00
91.1409 274.00
91.4452 270.00
91.7495 286.00
92.0537 237.00
92.358 297.00
92.6622 276.00
92.9665 272.00
93.2708 285.00
93.575 285.00
93.8793 299.00
94.1835 272.00
94.4878 243.00
94.7921 250.00
95.0963 291.00
95.4006 245.00
95.7048 294.00
96.0091 270.00
96.3134 292.00
96.6176 265.00
96.9219 234.00
97.2261 270.00
97.5304 247.00
97.8347 275.00
98.1389 294.00
98.4432 265.00
98.7474 279.00
99.0517 277.00
99.356 261.00
99.6602 263.00
99.9645 266.00
100.095 264.00

File: PG_1944-1.xy
9.903433 2666.00
10.2077 2571.00
10.512 2371.00
10.8162 2359.00
11.1205 2324.00
11.4247 2236.00
11.729 2165.00
12.0333 2178.00
12.3375 2045.00
12.6418 1977.00
12.946 1969.00
13.2503 1957.00
13.5546 1784.00
13.8588 1826.00
14.1631 1721.00
14.4673 1800.00
14.7716 1732.00
15.0759 1750.00
15.3801 1659.00
15.6844 1729.00
15.9886 1609.00
16.2929 1634.00
16.5972 1593.00
16.9014 1535.00
17.2057 1436.00
17.5099 1499.00
17.8142 1381.00
18.1185 1393.00
18.4227 1486.00
18.727 1352.00
19.0312 1295.00
19.3355 1338.00
19.6398 1259.00
19.944 1294.00
20.2483 1208.00
20.5525 1252.00
20.8568 1214.00
21.1611 1193.00
21.4653 1180.00
21.7696 1196.00
22.0738 1155.00
22.3781 1184.00
22.6824 1132.00
22.9866 1130.00
23.2909 1097.00
23.5951 1076.00
23.8994 1088.00
24.2037 1078.00
24.5079 1041.00
24.8122 1014.00
25.1164 1016.00
25.4207 1073.00
25.725 1027.00
26.0292 1238.00
26.3335 1532.00
26.6378 3251.00
26.942 17854.00
27.2463 1887.00
27.5505 1215.00
27.8548 999.00
28.1591 1037.00
28.4633 943.00
28.7676 1040.00
29.0718 911.00
29.3761 860.00
29.6804 883.00
29.9846 1163.00
30.2889 895.00
30.5931 785.00
30.8974 1173.00
31.2017 1259.00
31.5059 863.00
31.8102 995.00
32.1144 943.00
32.4187 1306.00
32.723 1075.00
33.0272 1178.00
33.3315 939.00
33.6357 1200.00
33.94 2911.00
34.2443 13180.00
34.5485 1818.00
34.8528 899.00
35.157 884.00
35.4613 858.00
35.7656 678.00
36.0698 729.00
36.3741 855.00
36.6783 737.00
36.9826 665.00
37.2869 709.00
37.5911 696.00
37.8954 885.00
38.1996 4243.00
38.5039 1330.00
38.8082 923.00
39.1124 1331.00
39.4167 1163.00
39.7209 651.00
40.0252 732.00
40.3295 627.00
40.6337 587.00
40.938 562.00
41.2422 608.00
41.5465 736.00
41.8508 653.00
42.155 575.00
42.4593 549.00
42.7635 552.00
43.0678 660.00
43.3721 526.00
43.6763 632.00
43.9806 503.00
44.2849 480.00
44.5891 492.00
44.8934 483.00
45.1976 593.00
45.5019 471.00
45.8062 465.00
46.1104 462.00
46.4147 498.00
46.7189 502.00
47.0232 436.00
47.3275 435.00
47.6317 641.00
47.936 424.00
48.2402 469.00
48.5445 434.00
48.8488 499.00
49.153 473.00
49.4573 462.00
49.7615 592.00
50.0658 532.00
50.3701 495.00
50.6743 471.00
50.9786 569.00
51.2828 617.00
51.5871 890.00
51.8914 3165.00
52.1956 8584.00
52.4999 1131.00
52.8041 700.00
53.1084 579.00
53.4127 484.00
53.7169 510.00
54.0212 462.00
54.3254 517.00
54.6297 579.00
54.934 1804.00
55.2382 1551.00
55.5425 547.00
55.8467 475.00
56.151 460.00
56.4553 446.00
56.7595 416.00
57.0638 441.00
57.368 464.00
57.6723 581.00
57.9766 893.00
58.2808 1267.00
58.5851 464.00
58.8893 430.00
59.1936 419.00
59.4979 388.00
59.8021 412.00
60.1064 396.00
60.4106 420.00
60.7149 441.00
61.0192 384.00
61.3234 450.00
61.6277 458.00
61.932 720.00
62.2362 2023.00
62.5405 596.00
62.8447 439.00
63.149 465.00
63.4533 395.00
63.7575 397.00
64.0618 425.00
64.366 421.00
64.6703 620.00
64.9745 2685.00
65.2788 1096.00
65.5831 524.00
65.8873 675.00
66.1916 3166.00
66.4959 1446.00
66.8001 496.00
67.1044 399.00
67.4086 409.00
67.7129 362.00
68.0172 387.00
68.3214 348.00
68.6257 388.00
68.9299 342.00
69.2342 364.00
69.5385 350.00
69.8427 391.00
70.147 357.00
70.4512 332.00
70.7555 345.00
71.0598 422.00
71.364 608.00
71.6683 1050.00
71.9725 443.00
72.2768 324.00
72.5811 374.00
72.8853 366.00
73.1896 309.00
73.4938 310.00
73.7981 307.00
74.1024 306.00
74.4066 337.00
74.7109 371.00
75.0151 355.00
75.3194 339.00
75.6237 356.00
75.9279 330.00
76.2322 322.00
76.5364 310.00
76.8407 310.00
77.145 335.00
77.4492 335.00
77.7535 334.00
78.0577 342.00
78.362 373.00
78.6663 549.00
78.9705 2201.00
79.2748 847.00
79.579 429.00
79.8833 351.00
80.1876 323.00
80.4918 350.00
80.7961 369.00
81.1003 413.00
81.4046 930.00
81.7089 466.00
82.0131 351.00
82.3174 304.00
82.6217 331.00
82.9259 324.00
83.2302 311.00
83.5344 356.00
83.8387 1015.00
84.143 947.00
84.4472 458.00
84.7515 322.00
85.0557 334.00
85.36 296.00
85.6643 339.00
85.9685 277.00
86.2728 336.00
86.577 318.00
86.8813 320.00
87.1856 371.00
87.4898 816.00
87.7941 513.00
88.0983 337.00
88.4026 336.00
88.7069 320.00
89.0111 315.00
89.3154 347.00
89.6196 456.00
89.9239 1348.00
90.2282 1072.00
90.5324 557.00
90.8367 540.00
91.1409 1813.00
91.4452 1089.00
91.7495 386.00
92.0537 376.00
92.358 301.00
92.6622 327.00
92.9665 352.00
93.2708 443.00
93.575 856.00
93.8793 575.00
94.1835 343.00
94.4878 331.00
94.7921 318.00
95.0963 280.00
95.4006 337.00
95.7048 339.00
96.0091 474.00
96.3134 656.00
96.6176 489.00
96.9219 314.00
97.2261 286.00
97.5304 280.00
97.8347 264.00
98.1389 261.00
98.4432 283.00
98.7474 287.00
99.0517 284.00
99.356 245.00
99.6602 302.00
99.9645 266.00
100.095 265.00

File: PG_1945-1.xy
9.903433 2752.00
10.2077 2642.00
10.512 2551.00
10.8162 2463.00
11.1205 2296.00
11.4247 2360.00
11.729 2250.00
12.0333 2071.00
12.3375 2078.00
12.6418 2087.00
12.946 2052.00
13.2503 1964.00
13.5546 1942.00
13.8588 1880.00
14.1631 1841.00
14.4673 1843.00
14.7716 1894.00
15.0759 1832.00
15.3801 1864.00
15.6844 1755.00
15.9886 1757.00
16.2929 1704.00
16.5972 1662.00
16.9014 1637.00
17.2057 1624.00
17.5099 1662.00
17.8142 1660.00
18.1185 1631.00
18.4227 1676.00
18.727 1575.00
19.0312 1562.00
19.3355 1593.00
19.6398 1538.00
19.944 1572.00
20.2483 1635.00
20.5525 1770.00
20.8568 1589.00
21.1611 1589.00
21.4653 1580.00
21.7696 1471.00
22.0738 1442.00
22.3781 1448.00
22.6824 1439.00
22.9866 1489.00
23.2909 1599.00
23.5951 1433.00
23.8994 1482.00
24.2037 1515.00
24.5079 1581.00
24.8122 1877.00
25.1164 5112.00
25.4207 7528.00
25.725 3989.00
26.0292 4409.00
26.3335 1814.00
26.6378 1502.00
26.942 1364.00
27.2463 1413.00
27.5505 1408.00
27.8548 1408.00
28.1591 1341.00
28.4633 1335.00
28.7676 1521.00
29.0718 1400.00
29.3761 1603.00
29.6804 2082.00
29.9846 1863.00
30.2889 1351.00
30.5931 1479.00
30.8974 2677.00
31.2017 1729.00
31.5059 2225.00
31.8102 3066.00
32.1144 1428.00
32.4187 1268.00
32.723 1402.00
33.0272 1217.00
33.3315 1262.00
33.6357 1328.00
33.94 1314.00
34.2443 1434.00
34.5485 1775.00
34.8528 1710.00
35.157 2071.00
35.4613 1986.00
35.7656 1575.00
36.0698 2420.00
36.3741 4275.00
36.6783 4301.00
36.9826 1902.00
37.2869 1321.00
37.5911 1219.00
37.8954 1319.00
38.1996 1538.00
38.5039 1357.00
38.8082 1472.00
39.1124 1768.00
39.4167 1207.00
39.7209 1230.00
40.0252 1228.00
40.3295 1143.00
40.6337 1157.00
40.938 1167.00
41.2422 1476.00
41.5465 1925.00
41.8508 1272.00
42.155 1075.00
42.4593 1105.00
42.7635 1164.00
43.0678 1293.00
43.3721 1396.00
43.6763 1342.00
43.9806 2441.00
44.2849 4120.00
44.5891 1653.00
44.8934 1360.00
45.1976 1462.00
45.5019 1689.00
45.8062 2450.00
46.1104 1433.00
46.4147 1616.00
46.7189 1986.00
47.0232 1608.00
47.3275 1407.00
47.6317 2592.00
47.936 2600.00
48.2402 1300.00
48.5445 1100.00
48.8488 1094.00
49.153 1109.00
49.4573 1342.00
49.7615 2191.00
50.0658 2791.00
50.3701 2138.00
50.6743 1423.00
50.9786 1176.00
51.2828 1005.00
51.5871 1214.00
51.8914 1234.00
52.1956 992.00
52.4999 1126.00
52.8041 1152.00
53.1084 1174.00
53.4127 972.00
53.7169 936.00
54.0212 941.00
54.3254 951.00
54.6297 908.00
54.934 987.00
55.2382 1156.00
55.5425 1108.00
55.8467 974.00
56.151 994.00
56.4553 957.00
56.7595 1132.00
57.0638 1275.00
57.368 1543.00
57.6723 1300.00
57.9766 1077.00
58.2808 958.00
58.5851 1094.00
58.8893 1413.00
59.1936 1312.00
59.4979 1080.00
59.8021 1312.00
60.1064 1328.00
60.4106 1013.00
60.7149 927.00
61.0192 946.00
61.3234 913.00
61.6277 927.00
61.932 897.00
62.2362 859.00
62.5405 1041.00
62.8447 1113.00
63.149 1006.00
63.4533 961.00
63.7575 1124.00
64.0618 1278.00
64.366 1096.00
64.6703 923.00
64.9745 1035.00
65.2788 1229.00
65.5831 1182.00
65.8873 1172.00
66.1916 1148.00
66.4959 1004.00
66.8001 1053.00
67.1044 871.00
67.4086 895.00
67.7129 871.00
68.0172 845.00
68.3214 864.00
68.6257 845.00
68.9299 846.00
69.2342 860.00
69.5385 830.00
69.8427 798.00
70.147 848.00
70.4512 816.00
70.7555 767.00
71.0598 906.00
71.364 856.00
71.6683 895.00
71.9725 1181.00
72.2768 1201.00
72.5811 992.00
72.8853 1055.00
73.1896 1099.00
73.4938 1245.00
73.7981 1459.00
74.1024 1341.00
74.4066 1248.00
74.7109 1156.00
75.0151 1144.00
75.3194 1159.00
75.6237 1061.00
75.9279 1101.00
76.2322 1136.00
76.5364 990.00
76.8407 898.00
77.145 926.00
77.4492 1044.00
77.7535 1210.00
78.0577 993.00
78.362 922.00
78.6663 828.00
78.9705 844.00
79.2748 852.00
79.579 715.00
79.8833 874.00
80.1876 983.00
80.4918 918.00
80.7961 844.00
81.1003 888.00
81.4046 833.00
81.7089 965.00
82.0131 1014.00
82.3174 1098.00
82.6217 991.00
82.9259 910.00
83.2302 1018.00
83.5344 951.00
83.8387 833.00
84.143 934.00
84.4472 892.00
84.7515 873.00
85.0557 888.00
85.36 930.00
85.6643 934.00
85.9685 852.00
86.2728 868.00
86.577 859.00
86.8813 783.00
87.1856 813.00
87.4898 856.00
87.7941 847.00
88.0983 816.00
88.4026 737.00
88.7069 775.00
89.0111 764.00
89.3154 853.00
89.6196 839.00
89.9239 870.00
90.2282 820.00
90.5324 743.00
90.8367 750.00
91.1409 810.00
91.4452 839.00
91.7495 886.00
92.0537 784.00
92.358 762.00
92.6622 781.00
92.9665 766.00
93.2708 797.00
93.575 785.00
93.8793 893.00
94.1835 975.00
94.4878 955.00
94.7921 1015.00
95.0963 1016.00
95.4006 966.00
95.7048 804.00
96.0091 817.00
96.3134 857.00
96.6176 803.00
96.9219 820.00
97.2261 898.00
97.5304 875.00
97.8347 797.00
98.1389 735.00
98.4432 738.00
98.7474 822.00
99.0517 829.00
99.356 931.00
99.6602 863.00
99.9645 767.00
100.095 776.00