Folder: alab-pipeline/data/xrd_creation/results (part 10)

File: Na_41.xy
9.903433 2659.00
10.2077 2484.00
10.512 2420.00
10.8162 2257.00
11.1205 2263.00
11.4247 2066.00
11.729 2050.00
12.0333 1981.00
12.3375 1880.00
12.6418 1737.00
12.946 1685.00
13.2503 1636.00
13.5546 1577.00
13.8588 1600.00
14.1631 1490.00
14.4673 1444.00
14.7716 1409.00
15.0759 1444.00
15.3801 1316.00
15.6844 1386.00
15.9886 1265.00
16.2929 1258.00
16.5972 1277.00
16.9014 1200.00
17.2057 1213.00
17.5099 1239.00
17.8142 1197.00
18.1185 1139.00
18.4227 1108.00
18.727 1135.00
19.0312 1099.00
19.3355 1037.00
19.6398 990.00
19.944 1152.00
20.2483 975.00
20.5525 944.00
20.8568 1004.00
21.1611 988.00
21.4653 1013.00
21.7696 923.00
22.0738 899.00
22.3781 878.00
22.6824 863.00
22.9866 850.00
23.2909 862.00
23.5951 850.00
23.8994 845.00
24.2037 777.00
24.5079 814.00
24.8122 782.00
25.1164 735.00
25.4207 732.00
25.725 728.00
26.0292 740.00
26.3335 1033.00
26.6378 710.00
26.942 708.00
27.2463 690.00
27.5505 830.00
27.8548 717.00
28.1591 716.00
28.4633 733.00
28.7676 1021.00
29.0718 773.00
29.3761 663.00
29.6804 650.00
29.9846 715.00
30.2889 835.00
30.5931 1410.00
30.8974 638.00
31.2017 614.00
31.5059 664.00
31.8102 594.00
32.1144 596.00
32.4187 529.00
32.723 681.00
33.0272 656.00
33.3315 631.00
33.6357 755.00
33.94 529.00
34.2443 532.00
34.5485 515.00
34.8528 498.00
35.157 549.00
35.4613 741.00
35.7656 436.00
36.0698 518.00
36.3741 453.00
36.6783 445.00
36.9826 470.00
37.2869 458.00
37.5911 535.00
37.8954 456.00
38.1996 401.00
38.5039 404.00
38.8082 433.00
39.1124 435.00
39.4167 426.00
39.7209 434.00
40.0252 468.00
40.3295 375.00
40.6337 361.00
40.938 373.00
41.2422 381.00
41.5465 394.00
41.8508 408.00
42.155 403.00
42.4593 395.00
42.7635 425.00
43.0678 393.00
43.3721 351.00
43.6763 394.00
43.9806 334.00
44.2849 316.00
44.5891 355.00
44.8934 385.00
45.1976 324.00
45.5019 413.00
45.8062 388.00
46.1104 335.00
46.4147 305.00
46.7189 290.00
47.0232 322.00
47.3275 296.00
47.6317 312.00
47.936 338.00
48.2402 406.00
48.5445 362.00
48.8488 318.00
49.153 338.00
49.4573 329.00
49.7615 305.00
50.0658 285.00
50.3701 313.00
50.6743 289.00
50.9786 693.00
51.2828 330.00
51.5871 408.00
51.8914 310.00
52.1956 335.00
52.4999 282.00
52.8041 283.00
53.1084 326.00
53.4127 282.00
53.7169 310.00
54.0212 296.00
54.3254 307.00
54.6297 270.00
54.934 274.00
55.2382 276.00
55.5425 246.00
55.8467 325.00
56.151 270.00
56.4553 298.00
56.7595 268.00
57.0638 293.00
57.368 316.00
57.6723 269.00
57.9766 240.00
58.2808 240.00
58.5851 227.00
58.8893 288.00
59.1936 304.00
59.4979 269.00
59.8021 227.00
60.1064 238.00
60.4106 293.00
60.7149 418.00
61.0192 264.00
61.3234 219.00
61.6277 264.00
61.932 250.00
62.2362 287.00
62.5405 266.00
62.8447 226.00
63.149 264.00
63.4533 246.00
63.7575 259.00
64.0618 226.00
64.366 211.00
64.6703 243.00
64.9745 240.00
65.2788 230.00
65.5831 214.00
65.8873 241.00
66.1916 195.00
66.4959 261.00
66.8001 224.00
67.1044 205.00
67.4086 211.00
67.7129 221.00
68.0172 218.00
68.3214 221.00
68.6257 211.00
68.9299 190.00
69.2342 228.00
69.5385 209.00
69.8427 198.00
70.147 215.00
70.4512 243.00
70.7555 188.00
71.0598 203.00
71.364 199.00
71.6683 216.00
71.9725 205.00
72.2768 229.00
72.5811 208.00
72.8853 233.00
73.1896 196.00
73.4938 220.00
73.7981 205.00
74.1024 213.00
74.4066 202.00
74.7109 203.00
75.0151 258.00
75.3194 238.00
75.6237 201.00
75.9279 219.00
76.2322 270.00
76.5364 238.00
76.8407 237.00
77.145 231.00
77.4492 238.00
77.7535 229.00
78.0577 240.00
78.362 273.00
78.6663 235.00
78.9705 241.00
79.2748 222.00
79.579 246.00
79.8833 259.00
80.1876 239.00
80.4918 294.00
80.7961 266.00
81.1003 261.00
81.4046 257.00
81.7089 292.00
82.0131 243.00
82.3174 246.00
82.6217 256.00
82.9259 210.00
83.2302 234.00
83.5344 243.00
83.8387 227.00
84.143 221.00
84.4472 229.00
84.7515 193.00
85.0557 217.00
85.36 215.00
85.6643 232.00
85.9685 227.00
86.2728 211.00
86.577 219.00
86.8813 210.00
87.1856 219.00
87.4898 187.00
87.7941 197.00
88.0983 215.00
88.4026 217.00
88.7069 221.00
89.0111 186.00
89.3154 209.00
89.6196 232.00
89.9239 238.00
90.2282 185.00
90.5324 183.00
90.8367 207.00
91.1409 212.00
91.4452 208.00
91.7495 171.00
92.0537 177.00
92.358 200.00
92.6622 231.00
92.9665 183.00
93.2708 187.00
93.575 186.00
93.8793 178.00
94.1835 200.00
94.4878 201.00
94.7921 179.00
95.0963 190.00
95.4006 216.00
95.7048 195.00
96.0091 176.00
96.3134 189.00
96.6176 211.00
96.9219 179.00
97.2261 165.00
97.5304 191.00
97.8347 228.00
98.1389 203.00
98.4432 171.00
98.7474 179.00
99.0517 206.00
99.356 222.00
99.6602 183.00
99.9645 172.00
100.095 188.00

File: Na_42.xy
9.903433 2658.00
10.2077 2485.00
10.512 2375.00
10.8162 2271.00
11.1205 2184.00
11.4247 2125.00
11.729 2044.00
12.0333 1925.00
12.3375 1810.00
12.6418 1789.00
12.946 1688.00
13.2503 1618.00
13.5546 1627.00
13.8588 1592.00
14.1631 1566.00
14.4673 1496.00
14.7716 1454.00
15.0759 1420.00
15.3801 1308.00
15.6844 1342.00
15.9886 1302.00
16.2929 1237.00
16.5972 1294.00
16.9014 1192.00
17.2057 1184.00
17.5099 1159.00
17.8142 1101.00
18.1185 1120.00
18.4227 1133.00
18.727 1050.00
19.0312 1092.00
19.3355 1104.00
19.6398 1086.00
19.944 1241.00
20.2483 932.00
20.5525 926.00
20.8568 969.00
21.1611 1017.00
21.4653 1444.00
21.7696 960.00
22.0738 857.00
22.3781 854.00
22.6824 812.00
22.9866 826.00
23.2909 819.00
23.5951 852.00
23.8994 811.00
24.2037 764.00
24.5079 756.00
24.8122 754.00
25.1164 718.00
25.4207 705.00
25.725 658.00
26.0292 724.00
26.3335 749.00
26.6378 697.00
26.942 625.00
27.2463 691.00
27.5505 668.00
27.8548 667.00
28.1591 636.00
28.4633 614.00
28.7676 630.00
29.0718 707.00
29.3761 636.00
29.6804 656.00
29.9846 702.00
30.2889 1117.00
30.5931 4574.00
30.8974 709.00
31.2017 585.00
31.5059 610.00
31.8102 573.00
32.1144 576.00
32.4187 751.00
32.723 618.00
33.0272 769.00
33.3315 609.00
33.6357 522.00
33.94 526.00
34.2443 519.00
34.5485 512.00
34.8528 475.00
35.157 583.00
35.4613 1690.00
35.7656 527.00
36.0698 411.00
36.3741 456.00
36.6783 440.00
36.9826 408.00
37.2869 394.00
37.5911 619.00
37.8954 402.00
38.1996 408.00
38.5039 448.00
38.8082 428.00
39.1124 400.00
39.4167 411.00
39.7209 393.00
40.0252 346.00
40.3295 364.00
40.6337 387.00
40.938 354.00
41.2422 332.00
41.5465 378.00
41.8508 511.00
42.155 370.00
42.4593 320.00
42.7635 326.00
43.0678 348.00
43.3721 335.00
43.6763 353.00
43.9806 301.00
44.2849 331.00
44.5891 316.00
44.8934 345.00
45.1976 311.00
45.5019 437.00
45.8062 472.00
46.1104 298.00
46.4147 347.00
46.7189 286.00
47.0232 313.00
47.3275 331.00
47.6317 303.00
47.936 299.00
48.2402 264.00
48.5445 271.00
48.8488 271.00
49.153 365.00
49.4573 324.00
49.7615 283.00
50.0658 300.00
50.3701 333.00
50.6743 358.00
50.9786 1581.00
51.2828 487.00
51.5871 323.00
51.8914 288.00
52.1956 318.00
52.4999 261.00
52.8041 319.00
53.1084 263.00
53.4127 261.00
53.7169 248.00
54.0212 223.00
54.3254 278.00
54.6297 280.00
54.934 243.00
55.2382 209.00
55.5425 222.00
55.8467 359.00
56.151 302.00
56.4553 222.00
56.7595 230.00
57.0638 242.00
57.368 245.00
57.6723 266.00
57.9766 235.00
58.2808 226.00
58.5851 235.00
58.8893 313.00
59.1936 358.00
59.4979 300.00
59.8021 228.00
60.1064 275.00
60.4106 333.00
60.7149 903.00
61.0192 294.00
61.3234 237.00
61.6277 237.00
61.932 234.00
62.2362 370.00
62.5405 228.00
62.8447 214.00
63.149 220.00
63.4533 218.00
63.7575 335.00
64.0618 220.00
64.366 218.00
64.6703 191.00
64.9745 224.00
65.2788 231.00
65.5831 227.00
65.8873 194.00
66.1916 176.00
66.4959 220.00
66.8001 233.00
67.1044 176.00
67.4086 185.00
67.7129 200.00
68.0172 285.00
68.3214 212.00
68.6257 207.00
68.9299 213.00
69.2342 211.00
69.5385 239.00
69.8427 192.00
70.147 162.00
70.4512 199.00
70.7555 196.00
71.0598 195.00
71.364 210.00
71.6683 179.00
71.9725 199.00
72.2768 210.00
72.5811 207.00
72.8853 180.00
73.1896 213.00
73.4938 229.00
73.7981 211.00
74.1024 198.00
74.4066 195.00
74.7109 219.00
75.0151 271.00
75.3194 228.00
75.6237 200.00
75.9279 189.00
76.2322 203.00
76.5364 249.00
76.8407 228.00
77.145 196.00
77.4492 205.00
77.7535 237.00
78.0577 259.00
78.362 202.00
78.6663 212.00
78.9705 243.00
79.2748 267.00
79.579 233.00
79.8833 257.00
80.1876 214.00
80.4918 242.00
80.7961 211.00
81.1003 246.00
81.4046 236.00
81.7089 302.00
82.0131 270.00
82.3174 230.00
82.6217 207.00
82.9259 244.00
83.2302 364.00
83.5344 238.00
83.8387 245.00
84.143 213.00
84.4472 214.00
84.7515 207.00
85.0557 197.00
85.36 217.00
85.6643 219.00
85.9685 297.00
86.2728 214.00
86.577 206.00
86.8813 201.00
87.1856 208.00
87.4898 222.00
87.7941 166.00
88.0983 199.00
88.4026 203.00
88.7069 219.00
89.0111 224.00
89.3154 207.00
89.6196 198.00
89.9239 230.00
90.2282 192.00
90.5324 212.00
90.8367 183.00
91.1409 183.00
91.4452 201.00
91.7495 173.00
92.0537 211.00
92.358 234.00
92.6622 219.00
92.9665 193.00
93.2708 161.00
93.575 197.00
93.8793 198.00
94.1835 200.00
94.4878 194.00
94.7921 188.00
95.0963 227.00
95.4006 211.00
95.7048 183.00
96.0091 170.00
96.3134 204.00
96.6176 208.00
96.9219 196.00
97.2261 188.00
97.5304 198.00
97.8347 224.00
98.1389 206.00
98.4432 205.00
98.7474 170.00
99.0517 194.00
99.356 182.00
99.6602 207.00
99.9645 178.00
100.095 201.00

File: Na_43.xy
9.903433 2534.00
10.2077 2388.00
10.512 2323.00
10.8162 2265.00
11.1205 2115.00
11.4247 2042.00
11.729 1932.00
12.0333 1936.00
12.3375 1781.00
12.6418 1721.00
12.946 1638.00
13.2503 1586.00
13.5546 1565.00
13.8588 1549.00
14.1631 1370.00
14.4673 1443.00
14.7716 1448.00
15.0759 1325.00
15.3801 1281.00
15.6844 1272.00
15.9886 1350.00
16.2929 1311.00
16.5972 1222.00
16.9014 1199.00
17.2057 1114.00
17.5099 1146.00
17.8142 1088.00
18.1185 1064.00
18.4227 1036.00
18.727 1044.00
19.0312 969.00
19.3355 973.00
19.6398 992.00
19.944 945.00
20.2483 912.00
20.5525 951.00
20.8568 938.00
21.1611 863.00
21.4653 870.00
21.7696 855.00
22.0738 864.00
22.3781 834.00
22.6824 844.00
22.9866 837.00
23.2909 724.00
23.5951 808.00
23.8994 751.00
24.2037 739.00
24.5079 718.00
24.8122 723.00
25.1164 720.00
25.4207 709.00
25.725 697.00
26.0292 672.00
26.3335 651.00
26.6378 667.00
26.942 681.00
27.2463 630.00
27.5505 647.00
27.8548 640.00
28.1591 650.00
28.4633 637.00
28.7676 611.00
29.0718 616.00
29.3761 653.00
29.6804 585.00
29.9846 565.00
30.2889 616.00
30.5931 589.00
30.8974 498.00
31.2017 555.00
31.5059 527.00
31.8102 508.00
32.1144 474.00
32.4187 567.00
32.723 503.00
33.0272 519.00
33.3315 453.00
33.6357 505.00
33.94 475.00
34.2443 500.00
34.5485 438.00
34.8528 445.00
35.157 494.00
35.4613 444.00
35.7656 437.00
36.0698 442.00
36.3741 429.00
36.6783 405.00
36.9826 423.00
37.2869 388.00
37.5911 378.00
37.8954 389.00
38.1996 360.00
38.5039 354.00
38.8082 360.00
39.1124 371.00
39.4167 361.00
39.7209 340.00
40.0252 373.00
40.3295 327.00
40.6337 384.00
40.938 340.00
41.2422 327.00
41.5465 314.00
41.8508 319.00
42.155 313.00
42.4593 347.00
42.7635 341.00
43.0678 361.00
43.3721 321.00
43.6763 330.00
43.9806 340.00
44.2849 312.00
44.5891 305.00
44.8934 299.00
45.1976 275.00
45.5019 302.00
45.8062 326.00
46.1104 313.00
46.4147 281.00
46.7189 307.00
47.0232 306.00
47.3275 303.00
47.6317 283.00
47.936 302.00
48.2402 292.00
48.5445 285.00
48.8488 275.00
49.153 277.00
49.4573 261.00
49.7615 275.00
50.0658 304.00
50.3701 276.00
50.6743 261.00
50.9786 285.00
51.2828 292.00
51.5871 267.00
51.8914 268.00
52.1956 310.00
52.4999 295.00
52.8041 273.00
53.1084 242.00
53.4127 288.00
53.7169 234.00
54.0212 274.00
54.3254 242.00
54.6297 237.00
54.934 237.00
55.2382 239.00
55.5425 277.00
55.8467 266.00
56.151 225.00
56.4553 277.00
56.7595 200.00
57.0638 237.00
57.368 222.00
57.6723 236.00
57.9766 245.00
58.2808 236.00
58.5851 234.00
58.8893 210.00
59.1936 211.00
59.4979 214.00
59.8021 219.00
60.1064 204.00
60.4106 205.00
60.7149 215.00
61.0192 193.00
61.3234 257.00
61.6277 187.00
61.932 211.00
62.2362 202.00
62.5405 185.00
62.8447 216.00
63.149 215.00
63.4533 193.00
63.7575 194.00
64.0618 204.00
64.366 214.00
64.6703 223.00
64.9745 207.00
65.2788 210.00
65.5831 194.00
65.8873 182.00
66.1916 193.00
66.4959 189.00
66.8001 191.00
67.1044 213.00
67.4086 189.00
67.7129 211.00
68.0172 193.00
68.3214 181.00
68.6257 184.00
68.9299 198.00
69.2342 195.00
69.5385 198.00
69.8427 182.00
70.147 170.00
70.4512 186.00
70.7555 173.00
71.0598 210.00
71.364 207.00
71.6683 200.00
71.9725 199.00
72.2768 200.00
72.5811 221.00
72.8853 183.00
73.1896 212.00
73.4938 222.00
73.7981 218.00
74.1024 190.00
74.4066 188.00
74.7109 212.00
75.0151 202.00
75.3194 203.00
75.6237 187.00
75.9279 225.00
76.2322 205.00
76.5364 236.00
76.8407 184.00
77.145 206.00
77.4492 205.00
77.7535 204.00
78.0577 225.00
78.362 237.00
78.6663 219.00
78.9705 198.00
79.2748 209.00
79.579 235.00
79.8833 226.00
80.1876 235.00
80.4918 239.00
80.7961 216.00
81.1003 211.00
81.4046 233.00
81.7089 246.00
82.0131 263.00
82.3174 232.00
82.6217 248.00
82.9259 240.00
83.2302 222.00
83.5344 212.00
83.8387 219.00
84.143 220.00
84.4472 245.00
84.7515 222.00
85.0557 232.00
85.36 202.00
85.6643 222.00
85.9685 235.00
86.2728 216.00
86.577 221.00
86.8813 196.00
87.1856 194.00
87.4898 169.00
87.7941 173.00
88.0983 206.00
88.4026 211.00
88.7069 183.00
89.0111 174.00
89.3154 172.00
89.6196 198.00
89.9239 207.00
90.2282 186.00
90.5324 189.00
90.8367 210.00
91.1409 189.00
91.4452 176.00
91.7495 192.00
92.0537 177.00
92.358 191.00
92.6622 226.00
92.9665 211.00
93.2708 191.00
93.575 201.00
93.8793 177.00
94.1835 194.00
94.4878 219.00
94.7921 203.00
95.0963 217.00
95.4006 201.00
95.7048 152.00
96.0091 187.00
96.3134 183.00
96.6176 217.00
96.9219 174.00
97.2261 187.00
97.5304 199.00
97.8347 203.00
98.1389 182.00
98.4432 178.00
98.7474 176.00
99.0517 210.00
99.356 194.00
99.6602 190.00
99.9645 195.00
100.095 186.00

File: Na_44.xy
9.903433 2674.00
10.2077 2586.00
10.512 2525.00
10.8162 2385.00
11.1205 2319.00
11.4247 2158.00
11.729 2168.00
12.0333 2034.00
12.3375 1886.00
12.6418 1882.00
12.946 1802.00
13.2503 1805.00
13.5546 1663.00
13.8588 1634.00
14.1631 1608.00
14.4673 1538.00
14.7716 1530.00
15.0759 1462.00
15.3801 1454.00
15.6844 1364.00
15.9886 1373.00
16.2929 1302.00
16.5972 1257.00
16.9014 1220.00
17.2057 1260.00
17.5099 1197.00
17.8142 1154.00
18.1185 1149.00
18.4227 1116.00
18.727 1030.00
19.0312 1100.00
19.3355 1063.00
19.6398 1056.00
19.944 994.00
20.2483 989.00
20.5525 978.00
20.8568 995.00
21.1611 964.00
21.4653 977.00
21.7696 919.00
22.0738 872.00
22.3781 885.00
22.6824 940.00
22.9866 890.00
23.2909 875.00
23.5951 826.00
23.8994 851.00
24.2037 853.00
24.5079 831.00
24.8122 780.00
25.1164 804.00
25.4207 807.00
25.725 977.00
26.0292 789.00
26.3335 710.00
26.6378 734.00
26.942 719.00
27.2463 763.00
27.5505 732.00
27.8548 701.00
28.1591 790.00
28.4633 699.00
28.7676 724.00
29.0718 729.00
29.3761 693.00
29.6804 641.00
29.9846 719.00
30.2889 660.00
30.5931 652.00
30.8974 612.00
31.2017 651.00
31.5059 575.00
31.8102 568.00
32.1144 562.00
32.4187 619.00
32.723 612.00
33.0272 579.00
33.3315 542.00
33.6357 545.00
33.94 594.00
34.2443 533.00
34.5485 505.00
34.8528 604.00
35.157 526.00
35.4613 498.00
35.7656 485.00
36.0698 471.00
36.3741 433.00
36.6783 476.00
36.9826 447.00
37.2869 403.00
37.5911 453.00
37.8954 475.00
38.1996 380.00
38.5039 457.00
38.8082 438.00
39.1124 403.00
39.4167 423.00
39.7209 469.00
40.0252 432.00
40.3295 395.00
40.6337 381.00
40.938 410.00
41.2422 366.00
41.5465 391.00
41.8508 355.00
42.155 357.00
42.4593 375.00
42.7635 344.00
43.0678 381.00
43.3721 349.00
43.6763 376.00
43.9806 341.00
44.2849 371.00
44.5891 342.00
44.8934 336.00
45.1976 357.00
45.5019 322.00
45.8062 342.00
46.1104 326.00
46.4147 326.00
46.7189 311.00
47.0232 333.00
47.3275 349.00
47.6317 335.00
47.936 328.00
48.2402 305.00
48.5445 333.00
48.8488 322.00
49.153 341.00
49.4573 310.00
49.7615 339.00
50.0658 312.00
50.3701 287.00
50.6743 328.00
50.9786 299.00
51.2828 297.00
51.5871 357.00
51.8914 326.00
52.1956 312.00
52.4999 310.00
52.8041 314.00
53.1084 279.00
53.4127 235.00
53.7169 260.00
54.0212 291.00
54.3254 249.00
54.6297 273.00
54.934 300.00
55.2382 294.00
55.5425 263.00
55.8467 264.00
56.151 261.00
56.4553 237.00
56.7595 270.00
57.0638 278.00
57.368 264.00
57.6723 238.00
57.9766 250.00
58.2808 224.00
58.5851 246.00
58.8893 271.00
59.1936 243.00
59.4979 260.00
59.8021 250.00
60.1064 227.00
60.4106 237.00
60.7149 234.00
61.0192 241.00
61.3234 248.00
61.6277 214.00
61.932 225.00
62.2362 202.00
62.5405 250.00
62.8447 229.00
63.149 204.00
63.4533 216.00
63.7575 230.00
64.0618 230.00
64.366 220.00
64.6703 207.00
64.9745 230.00
65.2788 210.00
65.5831 217.00
65.8873 201.00
66.1916 222.00
66.4959 240.00
66.8001 201.00
67.1044 199.00
67.4086 210.00
67.7129 241.00
68.0172 247.00
68.3214 212.00
68.6257 230.00
68.9299 211.00
69.2342 198.00
69.5385 215.00
69.8427 216.00
70.147 192.00
70.4512 245.00
70.7555 236.00
71.0598 203.00
71.364 224.00
71.6683 216.00
71.9725 206.00
72.2768 219.00
72.5811 193.00
72.8853 212.00
73.1896 218.00
73.4938 199.00
73.7981 257.00
74.1024 228.00
74.4066 203.00
74.7109 188.00
75.0151 234.00
75.3194 240.00
75.6237 206.00
75.9279 244.00
76.2322 198.00
76.5364 217.00
76.8407 217.00
77.145 224.00
77.4492 208.00
77.7535 224.00
78.0577 207.00
78.362 237.00
78.6663 227.00
78.9705 214.00
79.2748 225.00
79.579 228.00
79.8833 247.00
80.1876 226.00
80.4918 276.00
80.7961 219.00
81.1003 246.00
81.4046 217.00
81.7089 228.00
82.0131 258.00
82.3174 232.00
82.6217 264.00
82.9259 246.00
83.2302 221.00
83.5344 247.00
83.8387 214.00
84.143 237.00
84.4472 215.00
84.7515 232.00
85.0557 258.00
85.36 232.00
85.6643 259.00
85.9685 228.00
86.2728 194.00
86.577 183.00
86.8813 204.00
87.1856 233.00
87.4898 221.00
87.7941 224.00
88.0983 231.00
88.4026 209.00
88.7069 194.00
89.0111 206.00
89.3154 213.00
89.6196 202.00
89.9239 190.00
90.2282 220.00
90.5324 188.00
90.8367 219.00
91.1409 204.00
91.4452 218.00
91.7495 200.00
92.0537 189.00
92.358 198.00
92.6622 172.00
92.9665 190.00
93.2708 215.00
93.575 216.00
93.8793 197.00
94.1835 192.00
94.4878 185.00
94.7921 169.00
95.0963 185.00
95.4006 193.00
95.7048 200.00
96.0091 201.00
96.3134 222.00
96.6176 194.00
96.9219 214.00
97.2261 197.00
97.5304 194.00
97.8347 175.00
98.1389 210.00
98.4432 193.00
98.7474 184.00
99.0517 183.00
99.356 225.00
99.6602 196.00
99.9645 156.00
100.095 186.00

File: Na_45.xy
9.903433 2616.00
10.2077 2582.00
10.512 2428.00
10.8162 2251.00
11.1205 2177.00
11.4247 2169.00
11.729 2115.00
12.0333 2078.00
12.3375 1940.00
12.6418 1861.00
12.946 1748.00
13.2503 1731.00
13.5546 1635.00
13.8588 1650.00
14.1631 1652.00
14.4673 1689.00
14.7716 1571.00
15.0759 1590.00
15.3801 1568.00
15.6844 1582.00
15.9886 1494.00
16.2929 1483.00
16.5972 1499.00
16.9014 1457.00
17.2057 1432.00
17.5099 1463.00
17.8142 1403.00
18.1185 1379.00
18.4227 1281.00
18.727 1298.00
19.0312 1277.00
19.3355 1238.00
19.6398 1428.00
19.944 1260.00
20.2483 1259.00
20.5525 1223.00
20.8568 1224.00
21.1611 1248.00
21.4653 1160.00
21.7696 1612.00
22.0738 1105.00
22.3781 1092.00
22.6824 1041.00
22.9866 1042.00
23.2909 1193.00
23.5951 1108.00
23.8994 1029.00
24.2037 1152.00
24.5079 993.00
24.8122 1080.00
25.1164 1022.00
25.4207 954.00
25.725 959.00
26.0292 983.00
26.3335 897.00
26.6378 906.00
26.942 888.00
27.2463 982.00
27.5505 1069.00
27.8548 2045.00
28.1591 948.00
28.4633 915.00
28.7676 941.00
29.0718 947.00
29.3761 870.00
29.6804 967.00
29.9846 2419.00
30.2889 2886.00
30.5931 990.00
30.8974 869.00
31.2017 965.00
31.5059 946.00
31.8102 1042.00
32.1144 841.00
32.4187 819.00
32.723 720.00
33.0272 640.00
33.3315 688.00
33.6357 679.00
33.94 665.00
34.2443 613.00
34.5485 695.00
34.8528 1100.00
35.157 666.00
35.4613 677.00
35.7656 555.00
36.0698 620.00
36.3741 710.00
36.6783 590.00
36.9826 712.00
37.2869 827.00
37.5911 588.00
37.8954 660.00
38.1996 708.00
38.5039 1159.00
38.8082 538.00
39.1124 518.00
39.4167 494.00
39.7209 527.00
40.0252 547.00
40.3295 558.00
40.6337 845.00
40.938 543.00
41.2422 487.00
41.5465 537.00
41.8508 516.00
42.155 534.00
42.4593 455.00
42.7635 507.00
43.0678 506.00
43.3721 579.00
43.6763 526.00
43.9806 461.00
44.2849 463.00
44.5891 514.00
44.8934 468.00
45.1976 528.00
45.5019 468.00
45.8062 451.00
46.1104 549.00
46.4147 459.00
46.7189 478.00
47.0232 424.00
47.3275 455.00
47.6317 523.00
47.936 540.00
48.2402 522.00
48.5445 468.00
48.8488 408.00
49.153 450.00
49.4573 556.00
49.7615 738.00
50.0658 1324.00
50.3701 923.00
50.6743 490.00
50.9786 450.00
51.2828 443.00
51.5871 465.00
51.8914 470.00
52.1956 593.00
52.4999 602.00
52.8041 525.00
53.1084 516.00
53.4127 584.00
53.7169 468.00
54.0212 402.00
54.3254 424.00
54.6297 439.00
54.934 396.00
55.2382 408.00
55.5425 408.00
55.8467 333.00
56.151 396.00
56.4553 399.00
56.7595 382.00
57.0638 517.00
57.368 528.00
57.6723 417.00
57.9766 379.00
58.2808 439.00
58.5851 403.00
58.8893 593.00
59.1936 677.00
59.4979 810.00
59.8021 586.00
60.1064 643.00
60.4106 493.00
60.7149 386.00
61.0192 368.00
61.3234 360.00
61.6277 380.00
61.932 424.00
62.2362 501.00
62.5405 490.00
62.8447 453.00
63.149 497.00
63.4533 374.00
63.7575 390.00
64.0618 451.00
64.366 425.00
64.6703 364.00
64.9745 404.00
65.2788 438.00
65.5831 347.00
65.8873 401.00
66.1916 433.00
66.4959 418.00
66.8001 327.00
67.1044 320.00
67.4086 314.00
67.7129 386.00
68.0172 432.00
68.3214 405.00
68.6257 361.00
68.9299 343.00
69.2342 376.00
69.5385 356.00
69.8427 349.00
70.147 332.00
70.4512 328.00
70.7555 331.00
71.0598 351.00
71.364 375.00
71.6683 338.00
71.9725 338.00
72.2768 408.00
72.5811 339.00
72.8853 357.00
73.1896 371.00
73.4938 337.00
73.7981 339.00
74.1024 296.00
74.4066 377.00
74.7109 340.00
75.0151 320.00
75.3194 315.00
75.6237 345.00
75.9279 289.00
76.2322 272.00
76.5364 265.00
76.8407 302.00
77.145 273.00
77.4492 292.00
77.7535 305.00
78.0577 249.00
78.362 278.00
78.6663 305.00
78.9705 294.00
79.2748 320.00
79.579 298.00
79.8833 292.00
80.1876 349.00
80.4918 359.00
80.7961 379.00
81.1003 416.00
81.4046 461.00
81.7089 380.00
82.0131 368.00
82.3174 399.00
82.6217 330.00
82.9259 314.00
83.2302 334.00
83.5344 332.00
83.8387 347.00
84.143 300.00
84.4472 305.00
84.7515 350.00
85.0557 314.00
85.36 327.00
85.6643 347.00
85.9685 349.00
86.2728 285.00
86.577 282.00
86.8813 323.00
87.1856 339.00
87.4898 352.00
87.7941 302.00
88.0983 310.00
88.4026 311.00
88.7069 293.00
89.0111 331.00
89.3154 280.00
89.6196 334.00
89.9239 306.00
90.2282 338.00
90.5324 320.00
90.8367 289.00
91.1409 332.00
91.4452 300.00
91.7495 275.00
92.0537 308.00
92.358 299.00
92.6622 258.00
92.9665 286.00
93.2708 311.00
93.575 305.00
93.8793 366.00
94.1835 401.00
94.4878 285.00
94.7921 282.00
95.0963 323.00
95.4006 318.00
95.7048 319.00
96.0091 317.00
96.3134 298.00
96.6176 311.00
96.9219 285.00
97.2261 272.00
97.5304 265.00
97.8347 246.00
98.1389 270.00
98.4432 256.00
98.7474 266.00
99.0517 277.00
99.356 262.00
99.6602 320.00
99.9645 331.00
100.095 374.00