Folder: alab-pipeline/data/xrd_creation/results (part 20)

File: Na_116.xy
9.903433 2773.00
10.2077 2692.00
10.512 2601.00
10.8162 2476.00
11.1205 2499.00
11.4247 3961.00
11.729 7395.00
12.0333 2412.00
12.3375 2191.00
12.6418 2086.00
12.946 2081.00
13.2503 1981.00
13.5546 1922.00
13.8588 1843.00
14.1631 1867.00
14.4673 1860.00
14.7716 1863.00
15.0759 1783.00
15.3801 1738.00
15.6844 1785.00
15.9886 1825.00
16.2929 2857.00
16.5972 3204.00
16.9014 1738.00
17.2057 1658.00
17.5099 1575.00
17.8142 1688.00
18.1185 2245.00
18.4227 1629.00
18.727 1414.00
19.0312 1457.00
19.3355 1409.00
19.6398 1388.00
19.944 1325.00
20.2483 1354.00
20.5525 1359.00
20.8568 1457.00
21.1611 1554.00
21.4653 1289.00
21.7696 1254.00
22.0738 1259.00
22.3781 1219.00
22.6824 1111.00
22.9866 1189.00
23.2909 1249.00
23.5951 1191.00
23.8994 1182.00
24.2037 1264.00
24.5079 1849.00
24.8122 1480.00
25.1164 1154.00
25.4207 1276.00
25.725 1672.00
26.0292 5348.00
26.3335 1914.00
26.6378 2449.00
26.942 6726.00
27.2463 1435.00
27.5505 1374.00
27.8548 4919.00
28.1591 2594.00
28.4633 1161.00
28.7676 988.00
29.0718 974.00
29.3761 890.00
29.6804 942.00
29.9846 1134.00
30.2889 1682.00
30.5931 1186.00
30.8974 925.00
31.2017 966.00
31.5059 1655.00
31.8102 1314.00
32.1144 1029.00
32.4187 847.00
32.723 1129.00
33.0272 5275.00
33.3315 1150.00
33.6357 979.00
33.94 1997.00
34.2443 6230.00
34.5485 6280.00
34.8528 2440.00
35.157 1115.00
35.4613 810.00
35.7656 775.00
36.0698 792.00
36.3741 1050.00
36.6783 1012.00
36.9826 1071.00
37.2869 988.00
37.5911 727.00
37.8954 928.00
38.1996 2441.00
38.5039 732.00
38.8082 667.00
39.1124 896.00
39.4167 794.00
39.7209 665.00
40.0252 635.00
40.3295 650.00
40.6337 677.00
40.938 656.00
41.2422 652.00
41.5465 702.00
41.8508 1079.00
42.155 1325.00
42.4593 1368.00
42.7635 728.00
43.0678 622.00
43.3721 657.00
43.6763 929.00
43.9806 641.00
44.2849 626.00
44.5891 628.00
44.8934 596.00
45.1976 916.00
45.5019 751.00
45.8062 683.00
46.1104 613.00
46.4147 616.00
46.7189 692.00
47.0232 975.00
47.3275 1160.00
47.6317 1720.00
47.936 670.00
48.2402 580.00
48.5445 771.00
48.8488 649.00
49.153 944.00
49.4573 745.00
49.7615 1434.00
50.0658 1275.00
50.3701 1299.00
50.6743 640.00
50.9786 557.00
51.2828 702.00
51.5871 785.00
51.8914 2586.00
52.1956 3452.00
52.4999 673.00
52.8041 541.00
53.1084 932.00
53.4127 841.00
53.7169 664.00
54.0212 647.00
54.3254 627.00
54.6297 597.00
54.934 1400.00
55.2382 996.00
55.5425 955.00
55.8467 593.00
56.151 653.00
56.4553 727.00
56.7595 694.00
57.0638 770.00
57.368 872.00
57.6723 654.00
57.9766 903.00
58.2808 1025.00
58.5851 1242.00
58.8893 907.00
59.1936 846.00
59.4979 1338.00
59.8021 1341.00
60.1064 1062.00
60.4106 874.00
60.7149 601.00
61.0192 611.00
61.3234 530.00
61.6277 725.00
61.932 762.00
62.2362 1375.00
62.5405 782.00
62.8447 709.00
63.149 740.00
63.4533 496.00
63.7575 563.00
64.0618 606.00
64.366 590.00
64.6703 653.00
64.9745 1991.00
65.2788 773.00
65.5831 667.00
65.8873 830.00
66.1916 2065.00
66.4959 852.00
66.8001 616.00
67.1044 579.00
67.4086 580.00
67.7129 516.00
68.0172 641.00
68.3214 480.00
68.6257 571.00
68.9299 669.00
69.2342 556.00
69.5385 499.00
69.8427 425.00
70.147 441.00
70.4512 449.00
70.7555 446.00
71.0598 416.00
71.364 558.00
71.6683 741.00
71.9725 467.00
72.2768 680.00
72.5811 500.00
72.8853 371.00
73.1896 462.00
73.4938 593.00
73.7981 405.00
74.1024 392.00
74.4066 539.00
74.7109 517.00
75.0151 405.00
75.3194 497.00
75.6237 421.00
75.9279 439.00
76.2322 457.00
76.5364 398.00
76.8407 480.00
77.145 504.00
77.4492 574.00
77.7535 404.00
78.0577 516.00
78.362 453.00
78.6663 535.00
78.9705 1341.00
79.2748 676.00
79.579 469.00
79.8833 371.00
80.1876 516.00
80.4918 461.00
80.7961 456.00
81.1003 481.00
81.4046 586.00
81.7089 519.00
82.0131 426.00
82.3174 391.00
82.6217 423.00
82.9259 468.00
83.2302 390.00
83.5344 494.00
83.8387 775.00
84.143 812.00
84.4472 457.00
84.7515 439.00
85.0557 460.00
85.36 466.00
85.6643 405.00
85.9685 437.00
86.2728 441.00
86.577 459.00
86.8813 460.00
87.1856 533.00
87.4898 644.00
87.7941 469.00
88.0983 405.00
88.4026 501.00
88.7069 511.00
89.0111 473.00
89.3154 449.00
89.6196 560.00
89.9239 969.00
90.2282 837.00
90.5324 567.00
90.8367 525.00
91.1409 1027.00
91.4452 757.00
91.7495 549.00
92.0537 519.00
92.358 435.00
92.6622 479.00
92.9665 443.00
93.2708 436.00
93.575 571.00
93.8793 486.00
94.1835 384.00
94.4878 377.00
94.7921 373.00
95.0963 382.00
95.4006 444.00
95.7048 447.00
96.0091 502.00
96.3134 632.00
96.6176 492.00
96.9219 463.00
97.2261 509.00
97.5304 544.00
97.8347 479.00
98.1389 428.00
98.4432 386.00
98.7474 422.00
99.0517 362.00
99.356 407.00
99.6602 497.00
99.9645 466.00
100.095 516.00

File: Na_117.xy
9.903433 2781.00
10.2077 2687.00
10.512 2646.00
10.8162 2616.00
11.1205 2914.00
11.4247 6659.00
11.729 2986.00
12.0333 2261.00
12.3375 2149.00
12.6418 2060.00
12.946 1968.00
13.2503 1886.00
13.5546 1949.00
13.8588 1842.00
14.1631 1854.00
14.4673 1827.00
14.7716 1971.00
15.0759 1731.00
15.3801 1700.00
15.6844 1719.00
15.9886 1953.00
16.2929 4716.00
16.5972 1749.00
16.9014 1672.00
17.2057 1616.00
17.5099 1506.00
17.8142 1813.00
18.1185 1841.00
18.4227 1538.00
18.727 1417.00
19.0312 1324.00
19.3355 1302.00
19.6398 1303.00
19.944 1206.00
20.2483 1317.00
20.5525 1323.00
20.8568 1415.00
21.1611 1228.00
21.4653 1214.00
21.7696 1184.00
22.0738 1111.00
22.3781 1207.00
22.6824 1201.00
22.9866 1205.00
23.2909 1236.00
23.5951 1129.00
23.8994 1124.00
24.2037 1631.00
24.5079 2101.00
24.8122 1257.00
25.1164 1163.00
25.4207 1364.00
25.725 4023.00
26.0292 3995.00
26.3335 1575.00
26.6378 10492.00
26.942 1528.00
27.2463 1301.00
27.5505 2608.00
27.8548 3910.00
28.1591 1279.00
28.4633 1071.00
28.7676 994.00
29.0718 997.00
29.3761 1011.00
29.6804 945.00
29.9846 1988.00
30.2889 1734.00
30.5931 985.00
30.8974 931.00
31.2017 1301.00
31.5059 1191.00
31.8102 1594.00
32.1144 861.00
32.4187 1004.00
32.723 2513.00
33.0272 2273.00
33.3315 1023.00
33.6357 1378.00
33.94 9745.00
34.2443 6345.00
34.5485 2188.00
34.8528 1599.00
35.157 1020.00
35.4613 715.00
35.7656 782.00
36.0698 970.00
36.3741 1022.00
36.6783 1217.00
36.9826 1110.00
37.2869 700.00
37.5911 928.00
37.8954 1432.00
38.1996 1477.00
38.5039 661.00
38.8082 698.00
39.1124 1219.00
39.4167 699.00
39.7209 731.00
40.0252 612.00
40.3295 758.00
40.6337 615.00
40.938 738.00
41.2422 698.00
41.5465 1042.00
41.8508 965.00
42.155 1423.00
42.4593 1050.00
42.7635 757.00
43.0678 636.00
43.3721 1055.00
43.6763 733.00
43.9806 642.00
44.2849 554.00
44.5891 618.00
44.8934 880.00
45.1976 774.00
45.5019 752.00
45.8062 607.00
46.1104 696.00
46.4147 588.00
46.7189 787.00
47.0232 1113.00
47.3275 1954.00
47.6317 721.00
47.936 579.00
48.2402 614.00
48.5445 769.00
48.8488 931.00
49.153 749.00
49.4573 1035.00
49.7615 1179.00
50.0658 1361.00
50.3701 792.00
50.6743 617.00
50.9786 589.00
51.2828 688.00
51.5871 1862.00
51.8914 7707.00
52.1956 961.00
52.4999 529.00
52.8041 640.00
53.1084 925.00
53.4127 757.00
53.7169 695.00
54.0212 640.00
54.3254 705.00
54.6297 907.00
54.934 1508.00
55.2382 938.00
55.5425 888.00
55.8467 603.00
56.151 755.00
56.4553 658.00
56.7595 856.00
57.0638 782.00
57.368 664.00
57.6723 740.00
57.9766 1191.00
58.2808 1411.00
58.5851 922.00
58.8893 949.00
59.1936 1012.00
59.4979 1683.00
59.8021 1031.00
60.1064 1182.00
60.4106 646.00
60.7149 650.00
61.0192 561.00
61.3234 582.00
61.6277 691.00
61.932 1830.00
62.2362 1057.00
62.5405 613.00
62.8447 898.00
63.149 505.00
63.4533 550.00
63.7575 564.00
64.0618 603.00
64.366 683.00
64.6703 967.00
64.9745 1528.00
65.2788 708.00
65.5831 790.00
65.8873 1114.00
66.1916 1549.00
66.4959 599.00
66.8001 566.00
67.1044 501.00
67.4086 487.00
67.7129 477.00
68.0172 544.00
68.3214 493.00
68.6257 619.00
68.9299 533.00
69.2342 505.00
69.5385 446.00
69.8427 421.00
70.147 442.00
70.4512 449.00
70.7555 457.00
71.0598 413.00
71.364 1225.00
71.6683 486.00
71.9725 598.00
72.2768 592.00
72.5811 388.00
72.8853 383.00
73.1896 673.00
73.4938 492.00
73.7981 342.00
74.1024 419.00
74.4066 512.00
74.7109 423.00
75.0151 436.00
75.3194 437.00
75.6237 343.00
75.9279 428.00
76.2322 451.00
76.5364 402.00
76.8407 454.00
77.145 497.00
77.4492 409.00
77.7535 404.00
78.0577 386.00
78.362 437.00
78.6663 940.00
78.9705 1084.00
79.2748 525.00
79.579 401.00
79.8833 402.00
80.1876 433.00
80.4918 416.00
80.7961 477.00
81.1003 562.00
81.4046 644.00
81.7089 432.00
82.0131 407.00
82.3174 380.00
82.6217 431.00
82.9259 410.00
83.2302 454.00
83.5344 520.00
83.8387 1022.00
84.143 546.00
84.4472 414.00
84.7515 510.00
85.0557 491.00
85.36 413.00
85.6643 496.00
85.9685 527.00
86.2728 476.00
86.577 435.00
86.8813 517.00
87.1856 509.00
87.4898 536.00
87.7941 386.00
88.0983 388.00
88.4026 484.00
88.7069 492.00
89.0111 438.00
89.3154 509.00
89.6196 501.00
89.9239 907.00
90.2282 716.00
90.5324 475.00
90.8367 707.00
91.1409 705.00
91.4452 559.00
91.7495 448.00
92.0537 443.00
92.358 442.00
92.6622 461.00
92.9665 425.00
93.2708 589.00
93.575 577.00
93.8793 400.00
94.1835 360.00
94.4878 367.00
94.7921 350.00
95.0963 382.00
95.4006 360.00
95.7048 473.00
96.0091 713.00
96.3134 587.00
96.6176 426.00
96.9219 535.00
97.2261 480.00
97.5304 447.00
97.8347 450.00
98.1389 441.00
98.4432 434.00
98.7474 396.00
99.0517 407.00
99.356 446.00
99.6602 502.00
99.9645 420.00
100.095 426.00

File: Na_118.xy
9.903433 2851.00
10.2077 2753.00
10.512 2650.00
10.8162 2672.00
11.1205 2990.00
11.4247 6785.00
11.729 5150.00
12.0333 2346.00
12.3375 2285.00
12.6418 2133.00
12.946 2087.00
13.2503 2074.00
13.5546 1987.00
13.8588 1944.00
14.1631 1920.00
14.4673 1840.00
14.7716 2170.00
15.0759 1803.00
15.3801 1728.00
15.6844 1848.00
15.9886 2118.00
16.2929 5419.00
16.5972 2161.00
16.9014 1769.00
17.2057 1729.00
17.5099 1676.00
17.8142 1904.00
18.1185 2109.00
18.4227 1590.00
18.727 1485.00
19.0312 1439.00
19.3355 1473.00
19.6398 1367.00
19.944 1406.00
20.2483 1366.00
20.5525 1338.00
20.8568 1541.00
21.1611 1367.00
21.4653 1290.00
21.7696 1245.00
22.0738 1203.00
22.3781 1196.00
22.6824 1157.00
22.9866 1275.00
23.2909 1257.00
23.5951 1174.00
23.8994 1245.00
24.2037 1563.00
24.5079 2144.00
24.8122 1256.00
25.1164 1213.00
25.4207 1433.00
25.725 3666.00
26.0292 4908.00
26.3335 1582.00
26.6378 9088.00
26.942 2219.00
27.2463 1411.00
27.5505 2181.00
27.8548 4739.00
28.1591 1498.00
28.4633 1010.00
28.7676 1005.00
29.0718 973.00
29.3761 967.00
29.6804 993.00
29.9846 1915.00
30.2889 1834.00
30.5931 951.00
30.8974 876.00
31.2017 1217.00
31.5059 1349.00
31.8102 1607.00
32.1144 988.00
32.4187 1028.00
32.723 2023.00
33.0272 3176.00
33.3315 1013.00
33.6357 1262.00
33.94 8995.00
34.2443 5943.00
34.5485 2654.00
34.8528 1969.00
35.157 1066.00
35.4613 749.00
35.7656 768.00
36.0698 916.00
36.3741 1138.00
36.6783 1260.00
36.9826 1201.00
37.2869 828.00
37.5911 850.00
37.8954 1166.00
38.1996 1660.00
38.5039 669.00
38.8082 683.00
39.1124 1166.00
39.4167 688.00
39.7209 688.00
40.0252 617.00
40.3295 677.00
40.6337 653.00
40.938 771.00
41.2422 714.00
41.5465 1011.00
41.8508 962.00
42.155 1482.00
42.4593 1110.00
42.7635 759.00
43.0678 636.00
43.3721 1040.00
43.6763 815.00
43.9806 683.00
44.2849 575.00
44.5891 581.00
44.8934 880.00
45.1976 826.00
45.5019 755.00
45.8062 634.00
46.1104 707.00
46.4147 591.00
46.7189 777.00
47.0232 1062.00
47.3275 2072.00
47.6317 884.00
47.936 586.00
48.2402 609.00
48.5445 842.00
48.8488 926.00
49.153 832.00
49.4573 952.00
49.7615 1206.00
50.0658 1315.00
50.3701 836.00
50.6743 613.00
50.9786 598.00
51.2828 701.00
51.5871 1740.00
51.8914 6162.00
52.1956 1125.00
52.4999 586.00
52.8041 603.00
53.1084 938.00
53.4127 747.00
53.7169 736.00
54.0212 663.00
54.3254 671.00
54.6297 820.00
54.934 1641.00
55.2382 874.00
55.5425 887.00
55.8467 562.00
56.151 727.00
56.4553 616.00
56.7595 852.00
57.0638 865.00
57.368 760.00
57.6723 704.00
57.9766 1089.00
58.2808 1346.00
58.5851 905.00
58.8893 982.00
59.1936 1031.00
59.4979 1742.00
59.8021 1128.00
60.1064 1181.00
60.4106 611.00
60.7149 560.00
61.0192 539.00
61.3234 559.00
61.6277 747.00
61.932 1804.00
62.2362 1172.00
62.5405 600.00
62.8447 925.00
63.149 571.00
63.4533 558.00
63.7575 547.00
64.0618 634.00
64.366 664.00
64.6703 916.00
64.9745 1604.00
65.2788 740.00
65.5831 747.00
65.8873 1020.00
66.1916 1621.00
66.4959 570.00
66.8001 566.00
67.1044 508.00
67.4086 543.00
67.7129 526.00
68.0172 594.00
68.3214 497.00
68.6257 601.00
68.9299 567.00
69.2342 491.00
69.5385 438.00
69.8427 436.00
70.147 425.00
70.4512 391.00
70.7555 462.00
71.0598 444.00
71.364 1080.00
71.6683 582.00
71.9725 559.00
72.2768 615.00
72.5811 357.00
72.8853 389.00
73.1896 611.00
73.4938 517.00
73.7981 378.00
74.1024 455.00
74.4066 525.00
74.7109 430.00
75.0151 422.00
75.3194 480.00
75.6237 370.00
75.9279 417.00
76.2322 468.00
76.5364 392.00
76.8407 486.00
77.145 516.00
77.4492 430.00
77.7535 412.00
78.0577 374.00
78.362 413.00
78.6663 940.00
78.9705 1156.00
79.2748 529.00
79.579 403.00
79.8833 428.00
80.1876 467.00
80.4918 447.00
80.7961 433.00
81.1003 545.00
81.4046 599.00
81.7089 426.00
82.0131 400.00
82.3174 386.00
82.6217 480.00
82.9259 403.00
83.2302 421.00
83.5344 512.00
83.8387 945.00
84.143 537.00
84.4472 443.00
84.7515 462.00
85.0557 483.00
85.36 425.00
85.6643 472.00
85.9685 542.00
86.2728 491.00
86.577 411.00
86.8813 464.00
87.1856 558.00
87.4898 527.00
87.7941 371.00
88.0983 382.00
88.4026 465.00
88.7069 437.00
89.0111 462.00
89.3154 461.00
89.6196 512.00
89.9239 875.00
90.2282 682.00
90.5324 472.00
90.8367 679.00
91.1409 688.00
91.4452 538.00
91.7495 490.00
92.0537 461.00
92.358 407.00
92.6622 465.00
92.9665 401.00
93.2708 606.00
93.575 518.00
93.8793 392.00
94.1835 383.00
94.4878 361.00
94.7921 368.00
95.0963 371.00
95.4006 429.00
95.7048 446.00
96.0091 668.00
96.3134 521.00
96.6176 414.00
96.9219 523.00
97.2261 505.00
97.5304 449.00
97.8347 414.00
98.1389 419.00
98.4432 394.00
98.7474 389.00
99.0517 406.00
99.356 471.00
99.6602 528.00
99.9645 461.00
100.095 419.00

File: Na_119.xy
9.903433 2715.00
10.2077 2629.00
10.512 2475.00
10.8162 2475.00
11.1205 2438.00
11.4247 2311.00
11.729 2255.00
12.0333 2235.00
12.3375 2009.00
12.6418 2037.00
12.946 1967.00
13.2503 1993.00
13.5546 1854.00
13.8588 1965.00
14.1631 1884.00
14.4673 1797.00
14.7716 1841.00
15.0759 1806.00
15.3801 1775.00
15.6844 1797.00
15.9886 2097.00
16.2929 4860.00
16.5972 8244.00
16.9014 2173.00
17.2057 1841.00
17.5099 1754.00
17.8142 1751.00
18.1185 1664.00
18.4227 1745.00
18.727 2571.00
19.0312 2936.00
19.3355 2504.00
19.6398 2290.00
19.944 1987.00
20.2483 1961.00
20.5525 1921.00
20.8568 1849.00
21.1611 1744.00
21.4653 1706.00
21.7696 1666.00
22.0738 1595.00
22.3781 1559.00
22.6824 1530.00
22.9866 1457.00
23.2909 1386.00
23.5951 1401.00
23.8994 1387.00
24.2037 1275.00
24.5079 1309.00
24.8122 1305.00
25.1164 1156.00
25.4207 1170.00
25.725 1196.00
26.0292 1201.00
26.3335 1263.00
26.6378 1319.00
26.942 1835.00
27.2463 1237.00
27.5505 1103.00
27.8548 1185.00
28.1591 1049.00
28.4633 1001.00
28.7676 1025.00
29.0718 975.00
29.3761 936.00
29.6804 913.00
29.9846 943.00
30.2889 1263.00
30.5931 1075.00
30.8974 882.00
31.2017 936.00
31.5059 892.00
31.8102 897.00
32.1144 1000.00
32.4187 1085.00
32.723 1559.00
33.0272 6398.00
33.3315 3004.00
33.6357 1230.00
33.94 1268.00
34.2443 2968.00
34.5485 7266.00
34.8528 1920.00
35.157 1072.00
35.4613 1384.00
35.7656 975.00
36.0698 824.00
36.3741 800.00
36.6783 729.00
36.9826 757.00
37.2869 823.00
37.5911 854.00
37.8954 1155.00
38.1996 1653.00
38.5039 1305.00
38.8082 1212.00
39.1124 1811.00
39.4167 6793.00
39.7209 8303.00
40.0252 1847.00
40.3295 1344.00
40.6337 894.00
40.938 834.00
41.2422 880.00
41.5465 1027.00
41.8508 1019.00
42.155 747.00
42.4593 762.00
42.7635 1023.00
43.0678 1875.00
43.3721 943.00
43.6763 685.00
43.9806 614.00
44.2849 646.00
44.5891 587.00
44.8934 691.00
45.1976 588.00
45.5019 592.00
45.8062 598.00
46.1104 608.00
46.4147 565.00
46.7189 729.00
47.0232 628.00
47.3275 632.00
47.6317 546.00
47.936 570.00
48.2402 600.00
48.5445 832.00
48.8488 566.00
49.153 565.00
49.4573 547.00
49.7615 574.00
50.0658 659.00
50.3701 831.00
50.6743 908.00
50.9786 1065.00
51.2828 2007.00
51.5871 1449.00
51.8914 1037.00
52.1956 1125.00
52.4999 733.00
52.8041 693.00
53.1084 685.00
53.4127 667.00
53.7169 700.00
54.0212 719.00
54.3254 595.00
54.6297 637.00
54.934 760.00
55.2382 772.00
55.5425 825.00
55.8467 1713.00
56.151 3142.00
56.4553 1375.00
56.7595 807.00
57.0638 622.00
57.368 694.00
57.6723 1190.00
57.9766 3512.00
58.2808 1567.00
58.5851 822.00
58.8893 667.00
59.1936 625.00
59.4979 557.00
59.8021 528.00
60.1064 653.00
60.4106 1004.00
60.7149 1763.00
61.0192 841.00
61.3234 559.00
61.6277 523.00
61.932 508.00
62.2362 566.00
62.5405 517.00
62.8447 546.00
63.149 468.00
63.4533 438.00
63.7575 457.00
64.0618 466.00
64.366 484.00
64.6703 456.00
64.9745 527.00
65.2788 490.00
65.5831 470.00
65.8873 492.00
66.1916 785.00
66.4959 1177.00
66.8001 816.00
67.1044 539.00
67.4086 544.00
67.7129 702.00
68.0172 1221.00
68.3214 1960.00
68.6257 1078.00
68.9299 1273.00
69.2342 1089.00
69.5385 559.00
69.8427 459.00
70.147 451.00
70.4512 456.00
70.7555 454.00
71.0598 537.00
71.364 570.00
71.6683 668.00
71.9725 1081.00
72.2768 1852.00
72.5811 1221.00
72.8853 634.00
73.1896 494.00
73.4938 451.00
73.7981 436.00
74.1024 406.00
74.4066 449.00
74.7109 604.00
75.0151 470.00
75.3194 404.00
75.6237 395.00
75.9279 381.00
76.2322 361.00
76.5364 352.00
76.8407 338.00
77.145 363.00
77.4492 328.00
77.7535 378.00
78.0577 353.00
78.362 353.00
78.6663 350.00
78.9705 432.00
79.2748 412.00
79.579 424.00
79.8833 488.00
80.1876 618.00
80.4918 575.00
80.7961 622.00
81.1003 565.00
81.4046 462.00
81.7089 420.00
82.0131 376.00
82.3174 372.00
82.6217 340.00
82.9259 322.00
83.2302 388.00
83.5344 360.00
83.8387 426.00
84.143 500.00
84.4472 594.00
84.7515 787.00
85.0557 607.00
85.36 425.00
85.6643 366.00
85.9685 322.00
86.2728 375.00
86.577 331.00
86.8813 314.00
87.1856 361.00
87.4898 340.00
87.7941 315.00
88.0983 320.00
88.4026 331.00
88.7069 342.00
89.0111 329.00
89.3154 341.00
89.6196 380.00
89.9239 506.00
90.2282 406.00
90.5324 386.00
90.8367 407.00
91.1409 506.00
91.4452 615.00
91.7495 559.00
92.0537 408.00
92.358 338.00
92.6622 359.00
92.9665 378.00
93.2708 437.00
93.575 500.00
93.8793 534.00
94.1835 496.00
94.4878 475.00
94.7921 435.00
95.0963 495.00
95.4006 744.00
95.7048 852.00
96.0091 1155.00
96.3134 1116.00
96.6176 805.00
96.9219 555.00
97.2261 438.00
97.5304 410.00
97.8347 408.00
98.1389 379.00
98.4432 450.00
98.7474 541.00
99.0517 795.00
99.356 978.00
99.6602 789.00
99.9645 521.00
100.095 465.00

File: Na_120.xy
9.903433 2656.00
10.2077 2548.00
10.512 2434.00
10.8162 2515.00
11.1205 2441.00
11.4247 2296.00
11.729 2343.00
12.0333 2201.00
12.3375 2139.00
12.6418 2055.00
12.946 1997.00
13.2503 1937.00
13.5546 1982.00
13.8588 1996.00
14.1631 1832.00
14.4673 1876.00
14.7716 1865.00
15.0759 1871.00
15.3801 1845.00
15.6844 1884.00
15.9886 2168.00
16.2929 5182.00
16.5972 8588.00
16.9014 2175.00
17.2057 1884.00
17.5099 1687.00
17.8142 1762.00
18.1185 1711.00
18.4227 1801.00
18.727 2692.00
19.0312 3000.00
19.3355 2530.00
19.6398 2527.00
19.944 2177.00
20.2483 2094.00
20.5525 2051.00
20.8568 1871.00
21.1611 1738.00
21.4653 1749.00
21.7696 1622.00
22.0738 1683.00
22.3781 1674.00
22.6824 1583.00
22.9866 1573.00
23.2909 1471.00
23.5951 1411.00
23.8994 1468.00
24.2037 1361.00
24.5079 1316.00
24.8122 1403.00
25.1164 1270.00
25.4207 1251.00
25.725 1240.00
26.0292 1238.00
26.3335 1327.00
26.6378 1264.00
26.942 1937.00
27.2463 1228.00
27.5505 1109.00
27.8548 1161.00
28.1591 1144.00
28.4633 1115.00
28.7676 1041.00
29.0718 1017.00
29.3761 1056.00
29.6804 964.00
29.9846 999.00
30.2889 1299.00
30.5931 1154.00
30.8974 916.00
31.2017 919.00
31.5059 931.00
31.8102 918.00
32.1144 947.00
32.4187 1088.00
32.723 1519.00
33.0272 6823.00
33.3315 2889.00
33.6357 1365.00
33.94 1310.00
34.2443 2888.00
34.5485 7460.00
34.8528 1914.00
35.157 1050.00
35.4613 1415.00
35.7656 961.00
36.0698 861.00
36.3741 865.00
36.6783 895.00
36.9826 840.00
37.2869 880.00
37.5911 894.00
37.8954 1122.00
38.1996 1683.00
38.5039 1364.00
38.8082 1225.00
39.1124 1788.00
39.4167 6893.00
39.7209 8350.00
40.0252 1937.00
40.3295 1383.00
40.6337 872.00
40.938 859.00
41.2422 883.00
41.5465 992.00
41.8508 1158.00
42.155 788.00
42.4593 773.00
42.7635 1043.00
43.0678 1990.00
43.3721 993.00
43.6763 743.00
43.9806 662.00
44.2849 705.00
44.5891 648.00
44.8934 758.00
45.1976 601.00
45.5019 615.00
45.8062 605.00
46.1104 613.00
46.4147 609.00
46.7189 824.00
47.0232 638.00
47.3275 642.00
47.6317 594.00
47.936 598.00
48.2402 605.00
48.5445 919.00
48.8488 582.00
49.153 576.00
49.4573 552.00
49.7615 598.00
50.0658 638.00
50.3701 868.00
50.6743 927.00
50.9786 1143.00
51.2828 1935.00
51.5871 1505.00
51.8914 1015.00
52.1956 1179.00
52.4999 823.00
52.8041 717.00
53.1084 676.00
53.4127 657.00
53.7169 723.00
54.0212 754.00
54.3254 658.00
54.6297 690.00
54.934 784.00
55.2382 724.00
55.5425 828.00
55.8467 1716.00
56.151 3259.00
56.4553 1389.00
56.7595 812.00
57.0638 696.00
57.368 844.00
57.6723 1228.00
57.9766 3709.00
58.2808 1537.00
58.5851 740.00
58.8893 683.00
59.1936 672.00
59.4979 586.00
59.8021 568.00
60.1064 647.00
60.4106 1105.00
60.7149 1782.00
61.0192 862.00
61.3234 549.00
61.6277 513.00
61.932 493.00
62.2362 583.00
62.5405 536.00
62.8447 568.00
63.149 492.00
63.4533 405.00
63.7575 443.00
64.0618 501.00
64.366 486.00
64.6703 488.00
64.9745 576.00
65.2788 493.00
65.5831 490.00
65.8873 521.00
66.1916 764.00
66.4959 1215.00
66.8001 815.00
67.1044 577.00
67.4086 567.00
67.7129 690.00
68.0172 1222.00
68.3214 1982.00
68.6257 1133.00
68.9299 1309.00
69.2342 1113.00
69.5385 583.00
69.8427 508.00
70.147 481.00
70.4512 455.00
70.7555 442.00
71.0598 468.00
71.364 638.00
71.6683 707.00
71.9725 1021.00
72.2768 1887.00
72.5811 1204.00
72.8853 626.00
73.1896 493.00
73.4938 495.00
73.7981 480.00
74.1024 417.00
74.4066 500.00
74.7109 667.00
75.0151 510.00
75.3194 453.00
75.6237 411.00
75.9279 377.00
76.2322 400.00
76.5364 400.00
76.8407 405.00
77.145 345.00
77.4492 375.00
77.7535 354.00
78.0577 348.00
78.362 346.00
78.6663 369.00
78.9705 453.00
79.2748 378.00
79.579 470.00
79.8833 534.00
80.1876 635.00
80.4918 639.00
80.7961 640.00
81.1003 601.00
81.4046 438.00
81.7089 404.00
82.0131 401.00
82.3174 378.00
82.6217 338.00
82.9259 393.00
83.2302 339.00
83.5344 399.00
83.8387 396.00
84.143 488.00
84.4472 608.00
84.7515 855.00
85.0557 653.00
85.36 405.00
85.6643 401.00
85.9685 339.00
86.2728 394.00
86.577 338.00
86.8813 313.00
87.1856 372.00
87.4898 347.00
87.7941 343.00
88.0983 318.00
88.4026 304.00
88.7069 354.00
89.0111 336.00
89.3154 383.00
89.6196 427.00
89.9239 464.00
90.2282 455.00
90.5324 407.00
90.8367 398.00
91.1409 510.00
91.4452 589.00
91.7495 564.00
92.0537 406.00
92.358 386.00
92.6622 371.00
92.9665 374.00
93.2708 434.00
93.575 496.00
93.8793 581.00
94.1835 506.00
94.4878 416.00
94.7921 439.00
95.0963 514.00
95.4006 710.00
95.7048 805.00
96.0091 1144.00
96.3134 1122.00
96.6176 792.00
96.9219 555.00
97.2261 446.00
97.5304 408.00
97.8347 407.00
98.1389 454.00
98.4432 418.00
98.7474 521.00
99.0517 851.00
99.356 959.00
99.6602 804.00
99.9645 519.00
100.095 484.00