Folder: alab-pipeline/data/xrd_creation/results (part 44)

File: NSC_49.xy
9.903433 2733.00
10.2077 2757.00
10.512 2582.00
10.8162 2412.00
11.1205 2368.00
11.4247 2356.00
11.729 2829.00
12.0333 2125.00
12.3375 2049.00
12.6418 1996.00
12.946 2121.00
13.2503 2077.00
13.5546 2255.00
13.8588 1746.00
14.1631 1671.00
14.4673 1599.00
14.7716 1605.00
15.0759 1473.00
15.3801 1554.00
15.6844 1489.00
15.9886 1487.00
16.2929 1451.00
16.5972 1461.00
16.9014 1448.00
17.2057 1483.00
17.5099 1393.00
17.8142 1351.00
18.1185 1362.00
18.4227 1313.00
18.727 1464.00
19.0312 2101.00
19.3355 2398.00
19.6398 2394.00
19.944 1366.00
20.2483 1301.00
20.5525 1221.00
20.8568 1143.00
21.1611 1165.00
21.4653 1089.00
21.7696 1106.00
22.0738 1089.00
22.3781 1264.00
22.6824 3103.00
22.9866 1512.00
23.2909 1116.00
23.5951 1071.00
23.8994 1049.00
24.2037 1086.00
24.5079 937.00
24.8122 1002.00
25.1164 940.00
25.4207 904.00
25.725 929.00
26.0292 921.00
26.3335 882.00
26.6378 931.00
26.942 936.00
27.2463 1035.00
27.5505 1671.00
27.8548 1219.00
28.1591 1547.00
28.4633 927.00
28.7676 817.00
29.0718 872.00
29.3761 855.00
29.6804 786.00
29.9846 1090.00
30.2889 1934.00
30.5931 3221.00
30.8974 1130.00
31.2017 1324.00
31.5059 1123.00
31.8102 807.00
32.1144 685.00
32.4187 655.00
32.723 730.00
33.0272 721.00
33.3315 750.00
33.6357 964.00
33.94 1631.00
34.2443 2143.00
34.5485 838.00
34.8528 654.00
35.157 693.00
35.4613 684.00
35.7656 599.00
36.0698 620.00
36.3741 604.00
36.6783 525.00
36.9826 604.00
37.2869 568.00
37.5911 549.00
37.8954 579.00
38.1996 559.00
38.5039 567.00
38.8082 571.00
39.1124 588.00
39.4167 517.00
39.7209 572.00
40.0252 540.00
40.3295 533.00
40.6337 631.00
40.938 592.00
41.2422 662.00
41.5465 690.00
41.8508 622.00
42.155 572.00
42.4593 531.00
42.7635 511.00
43.0678 563.00
43.3721 566.00
43.6763 618.00
43.9806 516.00
44.2849 608.00
44.5891 677.00
44.8934 569.00
45.1976 477.00
45.5019 515.00
45.8062 568.00
46.1104 630.00
46.4147 889.00
46.7189 950.00
47.0232 652.00
47.3275 463.00
47.6317 499.00
47.936 454.00
48.2402 510.00
48.5445 425.00
48.8488 483.00
49.153 571.00
49.4573 426.00
49.7615 478.00
50.0658 641.00
50.3701 723.00
50.6743 573.00
50.9786 473.00
51.2828 469.00
51.5871 457.00
51.8914 427.00
52.1956 438.00
52.4999 436.00
52.8041 536.00
53.1084 539.00
53.4127 759.00
53.7169 547.00
54.0212 478.00
54.3254 439.00
54.6297 407.00
54.934 406.00
55.2382 431.00
55.5425 414.00
55.8467 389.00
56.151 393.00
56.4553 372.00
56.7595 397.00
57.0638 398.00
57.368 424.00
57.6723 412.00
57.9766 445.00
58.2808 402.00
58.5851 489.00
58.8893 562.00
59.1936 572.00
59.4979 420.00
59.8021 402.00
60.1064 403.00
60.4106 402.00
60.7149 435.00
61.0192 395.00
61.3234 531.00
61.6277 445.00
61.932 464.00
62.2362 383.00
62.5405 392.00
62.8447 400.00
63.149 373.00
63.4533 330.00
63.7575 341.00
64.0618 372.00
64.366 322.00
64.6703 358.00
64.9745 367.00
65.2788 373.00
65.5831 355.00
65.8873 403.00
66.1916 392.00
66.4959 356.00
66.8001 341.00
67.1044 299.00
67.4086 292.00
67.7129 289.00
68.0172 286.00
68.3214 370.00
68.6257 335.00
68.9299 355.00
69.2342 321.00
69.5385 327.00
69.8427 289.00
70.147 305.00
70.4512 281.00
70.7555 298.00
71.0598 349.00
71.364 307.00
71.6683 321.00
71.9725 326.00
72.2768 375.00
72.5811 362.00
72.8853 336.00
73.1896 329.00
73.4938 316.00
73.7981 302.00
74.1024 330.00
74.4066 326.00
74.7109 346.00
75.0151 267.00
75.3194 297.00
75.6237 318.00
75.9279 275.00
76.2322 320.00
76.5364 335.00
76.8407 332.00
77.145 300.00
77.4492 298.00
77.7535 333.00
78.0577 303.00
78.362 305.00
78.6663 282.00
78.9705 329.00
79.2748 311.00
79.579 345.00
79.8833 320.00
80.1876 357.00
80.4918 385.00
80.7961 319.00
81.1003 338.00
81.4046 325.00
81.7089 320.00
82.0131 365.00
82.3174 339.00
82.6217 351.00
82.9259 355.00
83.2302 347.00
83.5344 322.00
83.8387 292.00
84.143 303.00
84.4472 317.00
84.7515 298.00
85.0557 335.00
85.36 302.00
85.6643 332.00
85.9685 351.00
86.2728 340.00
86.577 352.00
86.8813 344.00
87.1856 302.00
87.4898 312.00
87.7941 329.00
88.0983 296.00
88.4026 324.00
88.7069 277.00
89.0111 296.00
89.3154 266.00
89.6196 281.00
89.9239 276.00
90.2282 277.00
90.5324 288.00
90.8367 293.00
91.1409 284.00
91.4452 301.00
91.7495 307.00
92.0537 231.00
92.358 335.00
92.6622 289.00
92.9665 296.00
93.2708 309.00
93.575 306.00
93.8793 295.00
94.1835 269.00
94.4878 275.00
94.7921 294.00
95.0963 278.00
95.4006 294.00
95.7048 280.00
96.0091 284.00
96.3134 263.00
96.6176 276.00
96.9219 284.00
97.2261 277.00
97.5304 232.00
97.8347 251.00
98.1389 294.00
98.4432 248.00
98.7474 273.00
99.0517 288.00
99.356 311.00
99.6602 296.00
99.9645 287.00
100.095 282.00

File: NSC_50.xy
9.903433 3036.00
10.2077 3066.00
10.512 3111.00
10.8162 2853.00
11.1205 2641.00
11.4247 2487.00
11.729 2424.00
12.0333 2432.00
12.3375 2384.00
12.6418 2253.00
12.946 2234.00
13.2503 2129.00
13.5546 2339.00
13.8588 2139.00
14.1631 2147.00
14.4673 2335.00
14.7716 2592.00
15.0759 2092.00
15.3801 2019.00
15.6844 2086.00
15.9886 2032.00
16.2929 1966.00
16.5972 2006.00
16.9014 1945.00
17.2057 2009.00
17.5099 2014.00
17.8142 1848.00
18.1185 1841.00
18.4227 1882.00
18.727 1861.00
19.0312 2157.00
19.3355 2369.00
19.6398 2602.00
19.944 1934.00
20.2483 1932.00
20.5525 2490.00
20.8568 2963.00
21.1611 3945.00
21.4653 2626.00
21.7696 1930.00
22.0738 2816.00
22.3781 3577.00
22.6824 2005.00
22.9866 1830.00
23.2909 1771.00
23.5951 1803.00
23.8994 2727.00
24.2037 2171.00
24.5079 2029.00
24.8122 1678.00
25.1164 1583.00
25.4207 1719.00
25.725 1960.00
26.0292 1671.00
26.3335 1627.00
26.6378 1652.00
26.942 1720.00
27.2463 1659.00
27.5505 1956.00
27.8548 1956.00
28.1591 4002.00
28.4633 2603.00
28.7676 1573.00
29.0718 1661.00
29.3761 1505.00
29.6804 1541.00
29.9846 1602.00
30.2889 2022.00
30.5931 4454.00
30.8974 2496.00
31.2017 2025.00
31.5059 3677.00
31.8102 1909.00
32.1144 1845.00
32.4187 1596.00
32.723 2216.00
33.0272 3152.00
33.3315 2542.00
33.6357 2268.00
33.94 4164.00
34.2443 4073.00
34.5485 1872.00
34.8528 1465.00
35.157 1616.00
35.4613 1816.00
35.7656 1563.00
36.0698 1466.00
36.3741 1391.00
36.6783 1411.00
36.9826 1317.00
37.2869 1229.00
37.5911 1260.00
37.8954 1222.00
38.1996 1316.00
38.5039 1378.00
38.8082 1317.00
39.1124 1240.00
39.4167 1403.00
39.7209 1484.00
40.0252 1311.00
40.3295 1279.00
40.6337 1676.00
40.938 2166.00
41.2422 1617.00
41.5465 1522.00
41.8508 1306.00
42.155 1215.00
42.4593 1210.00
42.7635 1239.00
43.0678 1423.00
43.3721 1533.00
43.6763 1272.00
43.9806 1244.00
44.2849 1342.00
44.5891 1511.00
44.8934 1534.00
45.1976 1448.00
45.5019 1788.00
45.8062 1446.00
46.1104 1414.00
46.4147 1488.00
46.7189 1642.00
47.0232 1638.00
47.3275 1357.00
47.6317 1283.00
47.936 1451.00
48.2402 1262.00
48.5445 1233.00
48.8488 1681.00
49.153 1728.00
49.4573 1505.00
49.7615 1200.00
50.0658 1575.00
50.3701 1844.00
50.6743 1606.00
50.9786 1332.00
51.2828 1410.00
51.5871 1353.00
51.8914 1468.00
52.1956 1329.00
52.4999 1377.00
52.8041 1362.00
53.1084 1457.00
53.4127 1566.00
53.7169 1693.00
54.0212 1610.00
54.3254 1384.00
54.6297 1333.00
54.934 1254.00
55.2382 1459.00
55.5425 1501.00
55.8467 1394.00
56.151 1380.00
56.4553 1197.00
56.7595 1268.00
57.0638 1427.00
57.368 1784.00
57.6723 1445.00
57.9766 1504.00
58.2808 1358.00
58.5851 1328.00
58.8893 1307.00
59.1936 1288.00
59.4979 1222.00
59.8021 1576.00
60.1064 1825.00
60.4106 1547.00
60.7149 1478.00
61.0192 1458.00
61.3234 1487.00
61.6277 1255.00
61.932 1302.00
62.2362 1252.00
62.5405 1180.00
62.8447 1416.00
63.149 1162.00
63.4533 1129.00
63.7575 1101.00
64.0618 1157.00
64.366 1277.00
64.6703 1128.00
64.9745 1329.00
65.2788 1316.00
65.5831 1303.00
65.8873 1315.00
66.1916 1043.00
66.4959 1047.00
66.8001 1043.00
67.1044 1008.00
67.4086 1049.00
67.7129 989.00
68.0172 965.00
68.3214 961.00
68.6257 1016.00
68.9299 1016.00
69.2342 994.00
69.5385 952.00
69.8427 1102.00
70.147 1044.00
70.4512 1112.00
70.7555 959.00
71.0598 1093.00
71.364 1214.00
71.6683 1221.00
71.9725 1147.00
72.2768 1203.00
72.5811 1025.00
72.8853 1041.00
73.1896 889.00
73.4938 1003.00
73.7981 1043.00
74.1024 1026.00
74.4066 1015.00
74.7109 1007.00
75.0151 1025.00
75.3194 1037.00
75.6237 1040.00
75.9279 1062.00
76.2322 1013.00
76.5364 1026.00
76.8407 1042.00
77.145 958.00
77.4492 955.00
77.7535 1021.00
78.0577 901.00
78.362 952.00
78.6663 1035.00
78.9705 1005.00
79.2748 934.00
79.579 882.00
79.8833 893.00
80.1876 923.00
80.4918 912.00
80.7961 888.00
81.1003 906.00
81.4046 982.00
81.7089 994.00
82.0131 992.00
82.3174 965.00
82.6217 1037.00
82.9259 1001.00
83.2302 1092.00
83.5344 1006.00
83.8387 917.00
84.143 968.00
84.4472 965.00
84.7515 913.00
85.0557 1000.00
85.36 957.00
85.6643 995.00
85.9685 984.00
86.2728 969.00
86.577 927.00
86.8813 900.00
87.1856 903.00
87.4898 930.00
87.7941 1016.00
88.0983 1033.00
88.4026 989.00
88.7069 1002.00
89.0111 1038.00
89.3154 964.00
89.6196 1050.00
89.9239 1090.00
90.2282 1076.00
90.5324 1026.00
90.8367 945.00
91.1409 970.00
91.4452 958.00
91.7495 960.00
92.0537 895.00
92.358 893.00
92.6622 824.00
92.9665 931.00
93.2708 909.00
93.575 906.00
93.8793 988.00
94.1835 935.00
94.4878 815.00
94.7921 922.00
95.0963 967.00
95.4006 920.00
95.7048 933.00
96.0091 940.00
96.3134 931.00
96.6176 1162.00
96.9219 1071.00
97.2261 947.00
97.5304 869.00
97.8347 935.00
98.1389 861.00
98.4432 932.00
98.7474 941.00
99.0517 951.00
99.356 1021.00
99.6602 1002.00
99.9645 932.00
100.095 972.00

File: NSC_51.xy
9.903433 2879.00
10.2077 2894.00
10.512 2789.00
10.8162 2707.00
11.1205 2627.00
11.4247 2589.00
11.729 2825.00
12.0333 3548.00
12.3375 2414.00
12.6418 2409.00
12.946 2639.00
13.2503 2470.00
13.5546 2639.00
13.8588 2832.00
14.1631 2233.00
14.4673 2123.00
14.7716 2165.00
15.0759 2125.00
15.3801 2130.00
15.6844 2025.00
15.9886 1983.00
16.2929 1940.00
16.5972 2033.00
16.9014 2060.00
17.2057 1981.00
17.5099 1954.00
17.8142 1975.00
18.1185 1966.00
18.4227 1869.00
18.727 1923.00
19.0312 2423.00
19.3355 3613.00
19.6398 4165.00
19.944 3297.00
20.2483 2301.00
20.5525 2277.00
20.8568 2053.00
21.1611 1812.00
21.4653 1862.00
21.7696 1822.00
22.0738 1795.00
22.3781 1947.00
22.6824 2948.00
22.9866 6317.00
23.2909 2372.00
23.5951 1932.00
23.8994 1829.00
24.2037 1774.00
24.5079 1764.00
24.8122 1698.00
25.1164 1760.00
25.4207 1785.00
25.725 1670.00
26.0292 1724.00
26.3335 1586.00
26.6378 1748.00
26.942 1723.00
27.2463 1786.00
27.5505 2341.00
27.8548 3035.00
28.1591 2086.00
28.4633 2156.00
28.7676 1714.00
29.0718 1568.00
29.3761 1576.00
29.6804 1605.00
29.9846 1834.00
30.2889 2584.00
30.5931 5898.00
30.8974 5386.00
31.2017 2500.00
31.5059 3149.00
31.8102 1734.00
32.1144 1546.00
32.4187 1590.00
32.723 1526.00
33.0272 1493.00
33.3315 1545.00
33.6357 1713.00
33.94 3298.00
34.2443 3879.00
34.5485 4020.00
34.8528 1806.00
35.157 1423.00
35.4613 1396.00
35.7656 1347.00
36.0698 1424.00
36.3741 1367.00
36.6783 1327.00
36.9826 1363.00
37.2869 1282.00
37.5911 1313.00
37.8954 1290.00
38.1996 1275.00
38.5039 1228.00
38.8082 1318.00
39.1124 1210.00
39.4167 1337.00
39.7209 1322.00
40.0252 1295.00
40.3295 1301.00
40.6337 1431.00
40.938 1431.00
41.2422 1546.00
41.5465 1567.00
41.8508 1682.00
42.155 1557.00
42.4593 1384.00
42.7635 1390.00
43.0678 1214.00
43.3721 1293.00
43.6763 1328.00
43.9806 1397.00
44.2849 1462.00
44.5891 1539.00
44.8934 1794.00
45.1976 1548.00
45.5019 1373.00
45.8062 1467.00
46.1104 1743.00
46.4147 2080.00
46.7189 3235.00
47.0232 2772.00
47.3275 1728.00
47.6317 1457.00
47.936 1380.00
48.2402 1229.00
48.5445 1257.00
48.8488 1287.00
49.153 1245.00
49.4573 1324.00
49.7615 1339.00
50.0658 1417.00
50.3701 1990.00
50.6743 1898.00
50.9786 1570.00
51.2828 1454.00
51.5871 1437.00
51.8914 1433.00
52.1956 1289.00
52.4999 1235.00
52.8041 1394.00
53.1084 1576.00
53.4127 1786.00
53.7169 2294.00
54.0212 1782.00
54.3254 1433.00
54.6297 1350.00
54.934 1382.00
55.2382 1319.00
55.5425 1253.00
55.8467 1236.00
56.151 1176.00
56.4553 1174.00
56.7595 1188.00
57.0638 1278.00
57.368 1286.00
57.6723 1240.00
57.9766 1247.00
58.2808 1278.00
58.5851 1555.00
58.8893 1805.00
59.1936 2326.00
59.4979 2023.00
59.8021 1585.00
60.1064 1467.00
60.4106 1383.00
60.7149 1502.00
61.0192 1476.00
61.3234 1540.00
61.6277 1671.00
61.932 1629.00
62.2362 1381.00
62.5405 1401.00
62.8447 1332.00
63.149 1270.00
63.4533 1271.00
63.7575 1209.00
64.0618 1238.00
64.366 1342.00
64.6703 1209.00
64.9745 1300.00
65.2788 1468.00
65.5831 1393.00
65.8873 1350.00
66.1916 1365.00
66.4959 1357.00
66.8001 1323.00
67.1044 1242.00
67.4086 1137.00
67.7129 1195.00
68.0172 1222.00
68.3214 1160.00
68.6257 1269.00
68.9299 1378.00
69.2342 1361.00
69.5385 1174.00
69.8427 1176.00
70.147 1217.00
70.4512 1081.00
70.7555 1096.00
71.0598 1127.00
71.364 1158.00
71.6683 1158.00
71.9725 1190.00
72.2768 1304.00
72.5811 1359.00
72.8853 1228.00
73.1896 1206.00
73.4938 1144.00
73.7981 1199.00
74.1024 1113.00
74.4066 1102.00
74.7109 1153.00
75.0151 1203.00
75.3194 1112.00
75.6237 1115.00
75.9279 1150.00
76.2322 1128.00
76.5364 1103.00
76.8407 1095.00
77.145 1124.00
77.4492 1052.00
77.7535 1035.00
78.0577 1007.00
78.362 1023.00
78.6663 1000.00
78.9705 1060.00
79.2748 1062.00
79.579 1126.00
79.8833 1106.00
80.1876 1192.00
80.4918 1222.00
80.7961 1308.00
81.1003 1162.00
81.4046 1111.00
81.7089 1088.00
82.0131 1117.00
82.3174 1146.00
82.6217 1076.00
82.9259 1140.00
83.2302 1112.00
83.5344 1003.00
83.8387 1073.00
84.143 1085.00
84.4472 1087.00
84.7515 1016.00
85.0557 1036.00
85.36 1022.00
85.6643 1107.00
85.9685 1182.00
86.2728 1129.00
86.577 1104.00
86.8813 1150.00
87.1856 1157.00
87.4898 1208.00
87.7941 1140.00
88.0983 1036.00
88.4026 1045.00
88.7069 1067.00
89.0111 1119.00
89.3154 1148.00
89.6196 1135.00
89.9239 1100.00
90.2282 1080.00
90.5324 1135.00
90.8367 1034.00
91.1409 1056.00
91.4452 1147.00
91.7495 992.00
92.0537 1010.00
92.358 1193.00
92.6622 1205.00
92.9665 1062.00
93.2708 1167.00
93.575 1101.00
93.8793 1068.00
94.1835 1051.00
94.4878 1041.00
94.7921 1037.00
95.0963 1038.00
95.4006 1151.00
95.7048 1060.00
96.0091 1034.00
96.3134 1119.00
96.6176 1076.00
96.9219 1026.00
97.2261 1081.00
97.5304 1081.00
97.8347 1011.00
98.1389 1005.00
98.4432 1003.00
98.7474 987.00
99.0517 1069.00
99.356 1057.00
99.6602 1064.00
99.9645 1133.00
100.095 1145.00

File: NSC_52.xy
9.903433 2814.00
10.2077 2928.00
10.512 2761.00
10.8162 2530.00
11.1205 2546.00
11.4247 2287.00
11.729 2279.00
12.0333 2265.00
12.3375 2058.00
12.6418 2088.00
12.946 2019.00
13.2503 1929.00
13.5546 1983.00
13.8588 1859.00
14.1631 1860.00
14.4673 2133.00
14.7716 1898.00
15.0759 1865.00
15.3801 1748.00
15.6844 1629.00
15.9886 1686.00
16.2929 1718.00
16.5972 1619.00
16.9014 1602.00
17.2057 1650.00
17.5099 1526.00
17.8142 1547.00
18.1185 1436.00
18.4227 1482.00
18.727 1444.00
19.0312 1812.00
19.3355 1727.00
19.6398 1662.00
19.944 1451.00
20.2483 1513.00
20.5525 2201.00
20.8568 2768.00
21.1611 2924.00
21.4653 1565.00
21.7696 1501.00
22.0738 3016.00
22.3781 1553.00
22.6824 1529.00
22.9866 1269.00
23.2909 1311.00
23.5951 1379.00
23.8994 1964.00
24.2037 1238.00
24.5079 1230.00
24.8122 1202.00
25.1164 1131.00
25.4207 1436.00
25.725 1321.00
26.0292 1214.00
26.3335 1196.00
26.6378 1171.00
26.942 1244.00
27.2463 1194.00
27.5505 1443.00
27.8548 1234.00
28.1591 2208.00
28.4633 1230.00
28.7676 1075.00
29.0718 1217.00
29.3761 1123.00
29.6804 1106.00
29.9846 1105.00
30.2889 2013.00
30.5931 3616.00
30.8974 1216.00
31.2017 1393.00
31.5059 1622.00
31.8102 1330.00
32.1144 1201.00
32.4187 1312.00
32.723 2278.00
33.0272 1924.00
33.3315 1794.00
33.6357 1976.00
33.94 3020.00
34.2443 1918.00
34.5485 1032.00
34.8528 1066.00
35.157 1114.00
35.4613 1089.00
35.7656 1060.00
36.0698 933.00
36.3741 1051.00
36.6783 1001.00
36.9826 864.00
37.2869 850.00
37.5911 847.00
37.8954 833.00
38.1996 930.00
38.5039 841.00
38.8082 838.00
39.1124 877.00
39.4167 1059.00
39.7209 891.00
40.0252 855.00
40.3295 1050.00
40.6337 1414.00
40.938 1227.00
41.2422 947.00
41.5465 945.00
41.8508 862.00
42.155 763.00
42.4593 790.00
42.7635 870.00
43.0678 1164.00
43.3721 954.00
43.6763 882.00
43.9806 858.00
44.2849 1024.00
44.5891 956.00
44.8934 999.00
45.1976 1067.00
45.5019 1061.00
45.8062 956.00
46.1104 1004.00
46.4147 1098.00
46.7189 1136.00
47.0232 1064.00
47.3275 797.00
47.6317 839.00
47.936 967.00
48.2402 795.00
48.5445 762.00
48.8488 1173.00
49.153 991.00
49.4573 806.00
49.7615 774.00
50.0658 1015.00
50.3701 958.00
50.6743 971.00
50.9786 857.00
51.2828 846.00
51.5871 948.00
51.8914 959.00
52.1956 851.00
52.4999 878.00
52.8041 948.00
53.1084 1115.00
53.4127 1130.00
53.7169 947.00
54.0212 899.00
54.3254 870.00
54.6297 913.00
54.934 727.00
55.2382 886.00
55.5425 841.00
55.8467 886.00
56.151 832.00
56.4553 747.00
56.7595 817.00
57.0638 1186.00
57.368 1047.00
57.6723 876.00
57.9766 900.00
58.2808 802.00
58.5851 913.00
58.8893 869.00
59.1936 780.00
59.4979 857.00
59.8021 1073.00
60.1064 1009.00
60.4106 861.00
60.7149 929.00
61.0192 939.00
61.3234 909.00
61.6277 765.00
61.932 778.00
62.2362 783.00
62.5405 796.00
62.8447 775.00
63.149 686.00
63.4533 705.00
63.7575 710.00
64.0618 837.00
64.366 760.00
64.6703 766.00
64.9745 769.00
65.2788 878.00
65.5831 783.00
65.8873 706.00
66.1916 677.00
66.4959 673.00
66.8001 686.00
67.1044 712.00
67.4086 703.00
67.7129 559.00
68.0172 614.00
68.3214 656.00
68.6257 635.00
68.9299 662.00
69.2342 610.00
69.5385 618.00
69.8427 710.00
70.147 615.00
70.4512 611.00
70.7555 646.00
71.0598 726.00
71.364 752.00
71.6683 727.00
71.9725 729.00
72.2768 615.00
72.5811 617.00
72.8853 585.00
73.1896 620.00
73.4938 632.00
73.7981 626.00
74.1024 571.00
74.4066 581.00
74.7109 605.00
75.0151 616.00
75.3194 643.00
75.6237 642.00
75.9279 636.00
76.2322 640.00
76.5364 599.00
76.8407 573.00
77.145 587.00
77.4492 622.00
77.7535 619.00
78.0577 619.00
78.362 611.00
78.6663 617.00
78.9705 665.00
79.2748 591.00
79.579 590.00
79.8833 557.00
80.1876 613.00
80.4918 593.00
80.7961 566.00
81.1003 573.00
81.4046 625.00
81.7089 636.00
82.0131 659.00
82.3174 601.00
82.6217 612.00
82.9259 633.00
83.2302 580.00
83.5344 609.00
83.8387 527.00
84.143 514.00
84.4472 543.00
84.7515 561.00
85.0557 565.00
85.36 531.00
85.6643 550.00
85.9685 569.00
86.2728 572.00
86.577 569.00
86.8813 551.00
87.1856 525.00
87.4898 552.00
87.7941 605.00
88.0983 580.00
88.4026 635.00
88.7069 586.00
89.0111 553.00
89.3154 624.00
89.6196 594.00
89.9239 653.00
90.2282 603.00
90.5324 592.00
90.8367 553.00
91.1409 577.00
91.4452 582.00
91.7495 573.00
92.0537 577.00
92.358 548.00
92.6622 560.00
92.9665 590.00
93.2708 582.00
93.575 546.00
93.8793 553.00
94.1835 524.00
94.4878 532.00
94.7921 552.00
95.0963 561.00
95.4006 493.00
95.7048 506.00
96.0091 538.00
96.3134 558.00
96.6176 608.00
96.9219 591.00
97.2261 550.00
97.5304 518.00
97.8347 529.00
98.1389 517.00
98.4432 550.00
98.7474 537.00
99.0517 552.00
99.356 608.00
99.6602 582.00
99.9645 540.00
100.095 539.00

File: NSC_54.xy
9.903433 2831.00
10.2077 2811.00
10.512 2718.00
10.8162 2627.00
11.1205 2432.00
11.4247 2358.00
11.729 2239.00
12.0333 2339.00
12.3375 2241.00
12.6418 2126.00
12.946 2208.00
13.2503 2051.00
13.5546 2103.00
13.8588 2075.00
14.1631 1994.00
14.4673 2075.00
14.7716 1969.00
15.0759 2045.00
15.3801 1949.00
15.6844 1953.00
15.9886 1936.00
16.2929 2034.00
16.5972 1923.00
16.9014 1948.00
17.2057 2078.00
17.5099 2055.00
17.8142 1962.00
18.1185 1941.00
18.4227 1959.00
18.727 1962.00
19.0312 1970.00
19.3355 1977.00
19.6398 1995.00
19.944 2013.00
20.2483 2081.00
20.5525 3802.00
20.8568 3019.00
21.1611 2138.00
21.4653 2003.00
21.7696 1963.00
22.0738 1906.00
22.3781 2049.00
22.6824 1976.00
22.9866 2116.00
23.2909 2054.00
23.5951 2094.00
23.8994 2614.00
24.2037 2115.00
24.5079 2048.00
24.8122 1991.00
25.1164 1927.00
25.4207 2022.00
25.725 1952.00
26.0292 1895.00
26.3335 1874.00
26.6378 1916.00
26.942 1917.00
27.2463 1863.00
27.5505 1940.00
27.8548 1854.00
28.1591 1890.00
28.4633 1858.00
28.7676 1777.00
29.0718 1788.00
29.3761 1904.00
29.6804 1866.00
29.9846 1774.00
30.2889 1809.00
30.5931 1881.00
30.8974 1750.00
31.2017 1758.00
31.5059 1772.00
31.8102 1777.00
32.1144 1769.00
32.4187 1670.00
32.723 1701.00
33.0272 1610.00
33.3315 1671.00
33.6357 1906.00
33.94 4769.00
34.2443 4391.00
34.5485 1707.00
34.8528 1640.00
35.157 1524.00
35.4613 1508.00
35.7656 1421.00
36.0698 1464.00
36.3741 1438.00
36.6783 1485.00
36.9826 1503.00
37.2869 1302.00
37.5911 1353.00
37.8954 1324.00
38.1996 1326.00
38.5039 1366.00
38.8082 1274.00
39.1124 1318.00
39.4167 1247.00
39.7209 1247.00
40.0252 1268.00
40.3295 1269.00
40.6337 1220.00
40.938 1235.00
41.2422 1210.00
41.5465 1222.00
41.8508 1216.00
42.155 1249.00
42.4593 1132.00
42.7635 1141.00
43.0678 1150.00
43.3721 1187.00
43.6763 1193.00
43.9806 1102.00
44.2849 1129.00
44.5891 1090.00
44.8934 1108.00
45.1976 1148.00
45.5019 1095.00
45.8062 1062.00
46.1104 1107.00
46.4147 1152.00
46.7189 1153.00
47.0232 1034.00
47.3275 1198.00
47.6317 1107.00
47.936 1116.00
48.2402 1145.00
48.5445 1261.00
48.8488 1747.00
49.153 1552.00
49.4573 1232.00
49.7615 1140.00
50.0658 1098.00
50.3701 1119.00
50.6743 1125.00
50.9786 1048.00
51.2828 1107.00
51.5871 1084.00
51.8914 1100.00
52.1956 1031.00
52.4999 1048.00
52.8041 1090.00
53.1084 1068.00
53.4127 1108.00
53.7169 1050.00
54.0212 1094.00
54.3254 1069.00
54.6297 1008.00
54.934 1032.00
55.2382 1116.00
55.5425 1112.00
55.8467 1047.00
56.151 1072.00
56.4553 1033.00
56.7595 1088.00
57.0638 1029.00
57.368 1043.00
57.6723 1033.00
57.9766 1093.00
58.2808 1075.00
58.5851 1075.00
58.8893 1068.00
59.1936 1042.00
59.4979 1039.00
59.8021 1054.00
60.1064 1105.00
60.4106 1077.00
60.7149 1422.00
61.0192 1700.00
61.3234 1253.00
61.6277 1122.00
61.932 1121.00
62.2362 1021.00
62.5405 1089.00
62.8447 1051.00
63.149 1061.00
63.4533 1044.00
63.7575 1065.00
64.0618 1034.00
64.366 1082.00
64.6703 1014.00
64.9745 1090.00
65.2788 1074.00
65.5831 1017.00
65.8873 1007.00
66.1916 1055.00
66.4959 972.00
66.8001 1026.00
67.1044 1007.00
67.4086 970.00
67.7129 997.00
68.0172 1005.00
68.3214 953.00
68.6257 914.00
68.9299 936.00
69.2342 945.00
69.5385 958.00
69.8427 937.00
70.147 892.00
70.4512 918.00
70.7555 873.00
71.0598 919.00
71.364 934.00
71.6683 1071.00
71.9725 995.00
72.2768 871.00
72.5811 832.00
72.8853 852.00
73.1896 873.00
73.4938 863.00
73.7981 808.00
74.1024 833.00
74.4066 846.00
74.7109 778.00
75.0151 827.00
75.3194 842.00
75.6237 835.00
75.9279 831.00
76.2322 728.00
76.5364 771.00
76.8407 787.00
77.145 765.00
77.4492 768.00
77.7535 746.00
78.0577 792.00
78.362 754.00
78.6663 716.00
78.9705 747.00
79.2748 731.00
79.579 788.00
79.8833 720.00
80.1876 743.00
80.4918 758.00
80.7961 760.00
81.1003 724.00
81.4046 834.00
81.7089 815.00
82.0131 857.00
82.3174 801.00
82.6217 720.00
82.9259 739.00
83.2302 732.00
83.5344 721.00
83.8387 789.00
84.143 722.00
84.4472 695.00
84.7515 732.00
85.0557 723.00
85.36 733.00
85.6643 683.00
85.9685 663.00
86.2728 713.00
86.577 700.00
86.8813 713.00
87.1856 745.00
87.4898 706.00
87.7941 683.00
88.0983 700.00
88.4026 702.00
88.7069 672.00
89.0111 724.00
89.3154 691.00
89.6196 684.00
89.9239 733.00
90.2282 684.00
90.5324 741.00
90.8367 679.00
91.1409 735.00
91.4452 705.00
91.7495 776.00
92.0537 685.00
92.358 657.00
92.6622 713.00
92.9665 680.00
93.2708 670.00
93.575 690.00
93.8793 733.00
94.1835 677.00
94.4878 668.00
94.7921 689.00
95.0963 762.00
95.4006 686.00
95.7048 655.00
96.0091 642.00
96.3134 730.00
96.6176 685.00
96.9219 695.00
97.2261 688.00
97.5304 655.00
97.8347 716.00
98.1389 721.00
98.4432 717.00
98.7474 715.00
99.0517 677.00
99.356 625.00
99.6602 721.00
99.9645 657.00
100.095 646.00