Folder: alab-pipeline/data/xrd_creation/results (part 24)

File: Na_186.xy
9.903433 2799.00
10.2077 2778.00
10.512 2805.00
10.8162 2524.00
11.1205 2682.00
11.4247 3546.00
11.729 8632.00
12.0333 3004.00
12.3375 2440.00
12.6418 2310.00
12.946 2242.00
13.2503 2198.00
13.5546 2083.00
13.8588 2157.00
14.1631 2241.00
14.4673 2025.00
14.7716 2073.00
15.0759 1950.00
15.3801 1932.00
15.6844 1897.00
15.9886 1984.00
16.2929 2625.00
16.5972 3601.00
16.9014 1871.00
17.2057 1868.00
17.5099 1866.00
17.8142 2040.00
18.1185 2545.00
18.4227 1846.00
18.727 1688.00
19.0312 1719.00
19.3355 1592.00
19.6398 1937.00
19.944 2259.00
20.2483 1664.00
20.5525 1626.00
20.8568 2150.00
21.1611 1702.00
21.4653 1537.00
21.7696 1518.00
22.0738 1531.00
22.3781 1555.00
22.6824 1535.00
22.9866 1770.00
23.2909 2622.00
23.5951 1988.00
23.8994 1692.00
24.2037 2347.00
24.5079 2406.00
24.8122 1840.00
25.1164 1520.00
25.4207 1698.00
25.725 1825.00
26.0292 5210.00
26.3335 2006.00
26.6378 2254.00
26.942 7394.00
27.2463 2331.00
27.5505 5280.00
27.8548 2657.00
28.1591 1686.00
28.4633 1891.00
28.7676 1445.00
29.0718 1375.00
29.3761 1329.00
29.6804 1509.00
29.9846 2074.00
30.2889 1955.00
30.5931 1560.00
30.8974 1426.00
31.2017 2132.00
31.5059 2614.00
31.8102 3314.00
32.1144 1485.00
32.4187 1340.00
32.723 1476.00
33.0272 6442.00
33.3315 1486.00
33.6357 1573.00
33.94 3401.00
34.2443 13417.00
34.5485 3657.00
34.8528 1860.00
35.157 1357.00
35.4613 1223.00
35.7656 1259.00
36.0698 1330.00
36.3741 1332.00
36.6783 1297.00
36.9826 1338.00
37.2869 1416.00
37.5911 1295.00
37.8954 1248.00
38.1996 2238.00
38.5039 1280.00
38.8082 1148.00
39.1124 1236.00
39.4167 1265.00
39.7209 1110.00
40.0252 1169.00
40.3295 1103.00
40.6337 1104.00
40.938 1226.00
41.2422 1144.00
41.5465 1677.00
41.8508 1660.00
42.155 1500.00
42.4593 1637.00
42.7635 1093.00
43.0678 1095.00
43.3721 1411.00
43.6763 1194.00
43.9806 1076.00
44.2849 1028.00
44.5891 1096.00
44.8934 1422.00
45.1976 1197.00
45.5019 1078.00
45.8062 1182.00
46.1104 1122.00
46.4147 1231.00
46.7189 1213.00
47.0232 1897.00
47.3275 1924.00
47.6317 2280.00
47.936 1114.00
48.2402 1084.00
48.5445 1173.00
48.8488 1210.00
49.153 1729.00
49.4573 1658.00
49.7615 1629.00
50.0658 1489.00
50.3701 1560.00
50.6743 1389.00
50.9786 1716.00
51.2828 1448.00
51.5871 1180.00
51.8914 2025.00
52.1956 3794.00
52.4999 1340.00
52.8041 1144.00
53.1084 1281.00
53.4127 1272.00
53.7169 1260.00
54.0212 1132.00
54.3254 1134.00
54.6297 1068.00
54.934 1408.00
55.2382 1652.00
55.5425 1297.00
55.8467 1253.00
56.151 1223.00
56.4553 1173.00
56.7595 1390.00
57.0638 1231.00
57.368 1170.00
57.6723 1295.00
57.9766 1597.00
58.2808 1692.00
58.5851 1171.00
58.8893 1122.00
59.1936 1593.00
59.4979 2256.00
59.8021 1439.00
60.1064 1461.00
60.4106 1207.00
60.7149 1204.00
61.0192 1220.00
61.3234 1046.00
61.6277 1350.00
61.932 1417.00
62.2362 1838.00
62.5405 1227.00
62.8447 1080.00
63.149 1058.00
63.4533 935.00
63.7575 1041.00
64.0618 1123.00
64.366 1084.00
64.6703 1083.00
64.9745 1686.00
65.2788 1188.00
65.5831 1149.00
65.8873 1232.00
66.1916 1819.00
66.4959 1329.00
66.8001 1074.00
67.1044 984.00
67.4086 971.00
67.7129 1009.00
68.0172 979.00
68.3214 971.00
68.6257 955.00
68.9299 933.00
69.2342 859.00
69.5385 836.00
69.8427 862.00
70.147 810.00
70.4512 839.00
70.7555 854.00
71.0598 827.00
71.364 1055.00
71.6683 1346.00
71.9725 965.00
72.2768 826.00
72.5811 937.00
72.8853 881.00
73.1896 842.00
73.4938 744.00
73.7981 793.00
74.1024 823.00
74.4066 770.00
74.7109 806.00
75.0151 780.00
75.3194 854.00
75.6237 847.00
75.9279 776.00
76.2322 851.00
76.5364 803.00
76.8407 864.00
77.145 843.00
77.4492 788.00
77.7535 771.00
78.0577 737.00
78.362 767.00
78.6663 921.00
78.9705 1404.00
79.2748 1053.00
79.579 837.00
79.8833 847.00
80.1876 898.00
80.4918 860.00
80.7961 873.00
81.1003 962.00
81.4046 975.00
81.7089 881.00
82.0131 805.00
82.3174 799.00
82.6217 764.00
82.9259 767.00
83.2302 761.00
83.5344 765.00
83.8387 1061.00
84.143 1048.00
84.4472 1003.00
84.7515 927.00
85.0557 906.00
85.36 859.00
85.6643 802.00
85.9685 756.00
86.2728 811.00
86.577 788.00
86.8813 787.00
87.1856 835.00
87.4898 908.00
87.7941 839.00
88.0983 839.00
88.4026 862.00
88.7069 800.00
89.0111 837.00
89.3154 831.00
89.6196 861.00
89.9239 1128.00
90.2282 1106.00
90.5324 909.00
90.8367 911.00
91.1409 1171.00
91.4452 1020.00
91.7495 820.00
92.0537 812.00
92.358 799.00
92.6622 812.00
92.9665 768.00
93.2708 759.00
93.575 862.00
93.8793 785.00
94.1835 787.00
94.4878 726.00
94.7921 691.00
95.0963 781.00
95.4006 808.00
95.7048 786.00
96.0091 799.00
96.3134 880.00
96.6176 857.00
96.9219 818.00
97.2261 884.00
97.5304 821.00
97.8347 746.00
98.1389 732.00
98.4432 754.00
98.7474 744.00
99.0517 787.00
99.356 784.00
99.6602 877.00
99.9645 751.00
100.095 788.00

File: Na_187.xy
9.903433 2876.00
10.2077 2767.00
10.512 3147.00
10.8162 2697.00
11.1205 2732.00
11.4247 3533.00
11.729 8780.00
12.0333 4197.00
12.3375 2530.00
12.6418 2278.00
12.946 2459.00
13.2503 2271.00
13.5546 2006.00
13.8588 2137.00
14.1631 2263.00
14.4673 1986.00
14.7716 1993.00
15.0759 1872.00
15.3801 1799.00
15.6844 1908.00
15.9886 1954.00
16.2929 2345.00
16.5972 3901.00
16.9014 1743.00
17.2057 1772.00
17.5099 1675.00
17.8142 1933.00
18.1185 2114.00
18.4227 1664.00
18.727 1593.00
19.0312 1577.00
19.3355 1664.00
19.6398 3317.00
19.944 2901.00
20.2483 1582.00
20.5525 1454.00
20.8568 1828.00
21.1611 1518.00
21.4653 1391.00
21.7696 1440.00
22.0738 1510.00
22.3781 1455.00
22.6824 1521.00
22.9866 2726.00
23.2909 2380.00
23.5951 1472.00
23.8994 1796.00
24.2037 2857.00
24.5079 2365.00
24.8122 1680.00
25.1164 1437.00
25.4207 1558.00
25.725 1566.00
26.0292 4851.00
26.3335 2339.00
26.6378 2114.00
26.942 8204.00
27.2463 2250.00
27.5505 4396.00
27.8548 3485.00
28.1591 1439.00
28.4633 1635.00
28.7676 2207.00
29.0718 1380.00
29.3761 1300.00
29.6804 1453.00
29.9846 2292.00
30.2889 2616.00
30.5931 1809.00
30.8974 1394.00
31.2017 3337.00
31.5059 2725.00
31.8102 2090.00
32.1144 1941.00
32.4187 1294.00
32.723 1275.00
33.0272 4414.00
33.3315 1435.00
33.6357 1438.00
33.94 3303.00
34.2443 14749.00
34.5485 3884.00
34.8528 2041.00
35.157 1238.00
35.4613 1302.00
35.7656 1582.00
36.0698 1281.00
36.3741 2073.00
36.6783 1312.00
36.9826 1220.00
37.2869 1297.00
37.5911 1139.00
37.8954 1136.00
38.1996 2221.00
38.5039 1193.00
38.8082 1014.00
39.1124 1201.00
39.4167 1079.00
39.7209 1044.00
40.0252 1011.00
40.3295 1077.00
40.6337 989.00
40.938 1050.00
41.2422 1179.00
41.5465 1823.00
41.8508 1647.00
42.155 1532.00
42.4593 1531.00
42.7635 990.00
43.0678 1037.00
43.3721 1406.00
43.6763 1163.00
43.9806 999.00
44.2849 934.00
44.5891 1078.00
44.8934 1201.00
45.1976 1141.00
45.5019 1107.00
45.8062 1054.00
46.1104 1139.00
46.4147 1276.00
46.7189 1503.00
47.0232 2198.00
47.3275 1397.00
47.6317 1899.00
47.936 1065.00
48.2402 1033.00
48.5445 1169.00
48.8488 1231.00
49.153 1908.00
49.4573 1470.00
49.7615 1754.00
50.0658 1486.00
50.3701 1295.00
50.6743 1705.00
50.9786 1631.00
51.2828 1584.00
51.5871 1243.00
51.8914 2035.00
52.1956 4040.00
52.4999 1287.00
52.8041 1079.00
53.1084 1746.00
53.4127 1254.00
53.7169 1305.00
54.0212 1154.00
54.3254 1025.00
54.6297 1141.00
54.934 1680.00
55.2382 1649.00
55.5425 1250.00
55.8467 1076.00
56.151 1250.00
56.4553 1153.00
56.7595 1254.00
57.0638 1147.00
57.368 1030.00
57.6723 1128.00
57.9766 1406.00
58.2808 1641.00
58.5851 1393.00
58.8893 1169.00
59.1936 1798.00
59.4979 1804.00
59.8021 1181.00
60.1064 1313.00
60.4106 1179.00
60.7149 1331.00
61.0192 1493.00
61.3234 1292.00
61.6277 1221.00
61.932 1335.00
62.2362 1822.00
62.5405 1353.00
62.8447 1133.00
63.149 998.00
63.4533 960.00
63.7575 972.00
64.0618 975.00
64.366 1033.00
64.6703 1069.00
64.9745 1883.00
65.2788 1219.00
65.5831 1075.00
65.8873 1267.00
66.1916 2100.00
66.4959 1508.00
66.8001 1034.00
67.1044 860.00
67.4086 923.00
67.7129 870.00
68.0172 963.00
68.3214 944.00
68.6257 884.00
68.9299 928.00
69.2342 825.00
69.5385 958.00
69.8427 835.00
70.147 747.00
70.4512 742.00
70.7555 814.00
71.0598 788.00
71.364 987.00
71.6683 1300.00
71.9725 1020.00
72.2768 828.00
72.5811 814.00
72.8853 889.00
73.1896 827.00
73.4938 825.00
73.7981 807.00
74.1024 770.00
74.4066 800.00
74.7109 762.00
75.0151 754.00
75.3194 837.00
75.6237 848.00
75.9279 818.00
76.2322 871.00
76.5364 782.00
76.8407 889.00
77.145 889.00
77.4492 843.00
77.7535 747.00
78.0577 726.00
78.362 726.00
78.6663 833.00
78.9705 1367.00
79.2748 1003.00
79.579 881.00
79.8833 929.00
80.1876 916.00
80.4918 745.00
80.7961 777.00
81.1003 766.00
81.4046 952.00
81.7089 896.00
82.0131 879.00
82.3174 837.00
82.6217 803.00
82.9259 785.00
83.2302 796.00
83.5344 739.00
83.8387 878.00
84.143 1007.00
84.4472 892.00
84.7515 890.00
85.0557 885.00
85.36 869.00
85.6643 775.00
85.9685 852.00
86.2728 864.00
86.577 887.00
86.8813 815.00
87.1856 757.00
87.4898 923.00
87.7941 809.00
88.0983 789.00
88.4026 804.00
88.7069 801.00
89.0111 783.00
89.3154 873.00
89.6196 936.00
89.9239 1254.00
90.2282 1147.00
90.5324 940.00
90.8367 869.00
91.1409 1226.00
91.4452 1068.00
91.7495 825.00
92.0537 797.00
92.358 801.00
92.6622 805.00
92.9665 768.00
93.2708 780.00
93.575 875.00
93.8793 806.00
94.1835 714.00
94.4878 719.00
94.7921 780.00
95.0963 741.00
95.4006 761.00
95.7048 796.00
96.0091 846.00
96.3134 946.00
96.6176 810.00
96.9219 766.00
97.2261 796.00
97.5304 823.00
97.8347 801.00
98.1389 775.00
98.4432 723.00
98.7474 732.00
99.0517 804.00
99.356 858.00
99.6602 949.00
99.9645 812.00
100.095 794.00

File: Na_189.xy
9.903433 2799.00
10.2077 2697.00
10.512 2637.00
10.8162 2496.00
11.1205 2603.00
11.4247 3889.00
11.729 10476.00
12.0333 2952.00
12.3375 2341.00
12.6418 2283.00
12.946 2093.00
13.2503 2011.00
13.5546 1988.00
13.8588 1929.00
14.1631 1883.00
14.4673 1890.00
14.7716 1999.00
15.0759 1921.00
15.3801 1740.00
15.6844 1854.00
15.9886 1816.00
16.2929 2502.00
16.5972 5948.00
16.9014 1827.00
17.2057 1710.00
17.5099 1762.00
17.8142 1895.00
18.1185 3192.00
18.4227 1735.00
18.727 1529.00
19.0312 1525.00
19.3355 1571.00
19.6398 1972.00
19.944 1687.00
20.2483 1495.00
20.5525 1459.00
20.8568 1699.00
21.1611 1621.00
21.4653 1427.00
21.7696 1382.00
22.0738 1427.00
22.3781 1414.00
22.6824 1419.00
22.9866 1916.00
23.2909 1664.00
23.5951 1567.00
23.8994 1376.00
24.2037 1752.00
24.5079 2673.00
24.8122 1939.00
25.1164 1480.00
25.4207 1494.00
25.725 1552.00
26.0292 5637.00
26.3335 3966.00
26.6378 1748.00
26.942 3230.00
27.2463 1656.00
27.5505 3768.00
27.8548 4544.00
28.1591 1661.00
28.4633 1955.00
28.7676 1836.00
29.0718 1335.00
29.3761 1234.00
29.6804 1291.00
29.9846 2218.00
30.2889 2335.00
30.5931 1431.00
30.8974 1255.00
31.2017 2028.00
31.5059 2494.00
31.8102 2276.00
32.1144 1843.00
32.4187 1237.00
32.723 1310.00
33.0272 3413.00
33.3315 2556.00
33.6357 1374.00
33.94 1904.00
34.2443 8558.00
34.5485 3838.00
34.8528 2963.00
35.157 1311.00
35.4613 1183.00
35.7656 1229.00
36.0698 1159.00
36.3741 1519.00
36.6783 1256.00
36.9826 1296.00
37.2869 1373.00
37.5911 1204.00
37.8954 1153.00
38.1996 1356.00
38.5039 1119.00
38.8082 972.00
39.1124 1287.00
39.4167 1047.00
39.7209 1131.00
40.0252 1062.00
40.3295 1042.00
40.6337 989.00
40.938 1063.00
41.2422 1231.00
41.5465 1333.00
41.8508 1584.00
42.155 1771.00
42.4593 1641.00
42.7635 1426.00
43.0678 990.00
43.3721 1240.00
43.6763 1114.00
43.9806 1139.00
44.2849 917.00
44.5891 995.00
44.8934 1043.00
45.1976 1455.00
45.5019 1028.00
45.8062 947.00
46.1104 1102.00
46.4147 1143.00
46.7189 1313.00
47.0232 1553.00
47.3275 1692.00
47.6317 2100.00
47.936 1579.00
48.2402 1044.00
48.5445 1109.00
48.8488 1100.00
49.153 1414.00
49.4573 1357.00
49.7615 2109.00
50.0658 1806.00
50.3701 1682.00
50.6743 1433.00
50.9786 1418.00
51.2828 1970.00
51.5871 1108.00
51.8914 1299.00
52.1956 1793.00
52.4999 1159.00
52.8041 1119.00
53.1084 1255.00
53.4127 1133.00
53.7169 1040.00
54.0212 1272.00
54.3254 1091.00
54.6297 1037.00
54.934 1121.00
55.2382 1031.00
55.5425 1326.00
55.8467 1211.00
56.151 1230.00
56.4553 1151.00
56.7595 1301.00
57.0638 1316.00
57.368 1254.00
57.6723 1120.00
57.9766 1555.00
58.2808 1658.00
58.5851 1674.00
58.8893 1207.00
59.1936 1284.00
59.4979 1768.00
59.8021 2216.00
60.1064 1541.00
60.4106 1621.00
60.7149 1251.00
61.0192 1110.00
61.3234 1047.00
61.6277 1005.00
61.932 1607.00
62.2362 1410.00
62.5405 1339.00
62.8447 1074.00
63.149 1049.00
63.4533 1023.00
63.7575 922.00
64.0618 1018.00
64.366 1081.00
64.6703 1043.00
64.9745 1118.00
65.2788 978.00
65.5831 900.00
65.8873 1190.00
66.1916 1408.00
66.4959 1149.00
66.8001 1026.00
67.1044 951.00
67.4086 859.00
67.7129 967.00
68.0172 1005.00
68.3214 1005.00
68.6257 914.00
68.9299 877.00
69.2342 963.00
69.5385 873.00
69.8427 804.00
70.147 782.00
70.4512 731.00
70.7555 744.00
71.0598 823.00
71.364 819.00
71.6683 995.00
71.9725 1191.00
72.2768 886.00
72.5811 756.00
72.8853 1004.00
73.1896 964.00
73.4938 869.00
73.7981 794.00
74.1024 807.00
74.4066 810.00
74.7109 847.00
75.0151 810.00
75.3194 797.00
75.6237 872.00
75.9279 869.00
76.2322 866.00
76.5364 879.00
76.8407 818.00
77.145 861.00
77.4492 837.00
77.7535 812.00
78.0577 810.00
78.362 770.00
78.6663 858.00
78.9705 981.00
79.2748 900.00
79.579 954.00
79.8833 872.00
80.1876 910.00
80.4918 856.00
80.7961 843.00
81.1003 803.00
81.4046 873.00
81.7089 931.00
82.0131 842.00
82.3174 783.00
82.6217 803.00
82.9259 803.00
83.2302 794.00
83.5344 764.00
83.8387 809.00
84.143 859.00
84.4472 848.00
84.7515 930.00
85.0557 1017.00
85.36 958.00
85.6643 939.00
85.9685 839.00
86.2728 897.00
86.577 856.00
86.8813 806.00
87.1856 773.00
87.4898 734.00
87.7941 742.00
88.0983 758.00
88.4026 872.00
88.7069 837.00
89.0111 816.00
89.3154 823.00
89.6196 919.00
89.9239 971.00
90.2282 909.00
90.5324 923.00
90.8367 880.00
91.1409 930.00
91.4452 894.00
91.7495 844.00
92.0537 825.00
92.358 801.00
92.6622 831.00
92.9665 787.00
93.2708 756.00
93.575 800.00
93.8793 703.00
94.1835 715.00
94.4878 811.00
94.7921 786.00
95.0963 797.00
95.4006 745.00
95.7048 801.00
96.0091 850.00
96.3134 882.00
96.6176 872.00
96.9219 850.00
97.2261 873.00
97.5304 884.00
97.8347 869.00
98.1389 813.00
98.4432 786.00
98.7474 852.00
99.0517 790.00
99.356 862.00
99.6602 910.00
99.9645 1017.00
100.095 863.00

File: Na_190.xy
9.903433 3211.00
10.2077 3210.00
10.512 3281.00
10.8162 3126.00
11.1205 3021.00
11.4247 2924.00
11.729 3458.00
12.0333 2648.00
12.3375 2499.00
12.6418 2567.00
12.946 2383.00
13.2503 2309.00
13.5546 2337.00
13.8588 2293.00
14.1631 2230.00
14.4673 2152.00
14.7716 2139.00
15.0759 2154.00
15.3801 2081.00
15.6844 2080.00
15.9886 2019.00
16.2929 2078.00
16.5972 2393.00
16.9014 1996.00
17.2057 1886.00
17.5099 1989.00
17.8142 1949.00
18.1185 2037.00
18.4227 1900.00
18.727 1806.00
19.0312 1755.00
19.3355 1834.00
19.6398 1899.00
19.944 1807.00
20.2483 1863.00
20.5525 1758.00
20.8568 2641.00
21.1611 2022.00
21.4653 1709.00
21.7696 1716.00
22.0738 1650.00
22.3781 1655.00
22.6824 1601.00
22.9866 1613.00
23.2909 1613.00
23.5951 1606.00
23.8994 1800.00
24.2037 5134.00
24.5079 2343.00
24.8122 1850.00
25.1164 1659.00
25.4207 1597.00
25.725 1606.00
26.0292 1815.00
26.3335 2390.00
26.6378 2475.00
26.942 11307.00
27.2463 2173.00
27.5505 3008.00
27.8548 2258.00
28.1591 1767.00
28.4633 2105.00
28.7676 3007.00
29.0718 1607.00
29.3761 1489.00
29.6804 1399.00
29.9846 1493.00
30.2889 1662.00
30.5931 1546.00
30.8974 1546.00
31.2017 1571.00
31.5059 1684.00
31.8102 2311.00
32.1144 2305.00
32.4187 1526.00
32.723 1390.00
33.0272 1467.00
33.3315 2015.00
33.6357 1637.00
33.94 2448.00
34.2443 10746.00
34.5485 7988.00
34.8528 2409.00
35.157 1497.00
35.4613 1374.00
35.7656 1762.00
36.0698 2001.00
36.3741 1603.00
36.6783 1188.00
36.9826 1172.00
37.2869 1181.00
37.5911 1236.00
37.8954 1330.00
38.1996 2595.00
38.5039 1519.00
38.8082 1177.00
39.1124 1386.00
39.4167 1527.00
39.7209 1114.00
40.0252 1117.00
40.3295 1073.00
40.6337 1195.00
40.938 1134.00
41.2422 1625.00
41.5465 1287.00
41.8508 1244.00
42.155 1087.00
42.4593 1153.00
42.7635 1142.00
43.0678 1215.00
43.3721 1015.00
43.6763 1052.00
43.9806 1153.00
44.2849 1086.00
44.5891 1051.00
44.8934 1093.00
45.1976 1142.00
45.5019 1073.00
45.8062 1076.00
46.1104 1135.00
46.4147 1051.00
46.7189 1031.00
47.0232 1165.00
47.3275 1068.00
47.6317 1118.00
47.936 1143.00
48.2402 1016.00
48.5445 1092.00
48.8488 1248.00
49.153 1728.00
49.4573 2317.00
49.7615 1482.00
50.0658 1274.00
50.3701 1092.00
50.6743 1545.00
50.9786 1281.00
51.2828 1349.00
51.5871 1211.00
51.8914 2102.00
52.1956 4987.00
52.4999 1571.00
52.8041 1104.00
53.1084 1076.00
53.4127 1009.00
53.7169 1069.00
54.0212 1137.00
54.3254 1812.00
54.6297 1410.00
54.934 1555.00
55.2382 1716.00
55.5425 1242.00
55.8467 1153.00
56.151 1301.00
56.4553 1156.00
56.7595 1236.00
57.0638 965.00
57.368 940.00
57.6723 1046.00
57.9766 1246.00
58.2808 1331.00
58.5851 1169.00
58.8893 1119.00
59.1936 927.00
59.4979 896.00
59.8021 980.00
60.1064 956.00
60.4106 1135.00
60.7149 1108.00
61.0192 1116.00
61.3234 2507.00
61.6277 1162.00
61.932 1151.00
62.2362 1863.00
62.5405 1274.00
62.8447 1060.00
63.149 888.00
63.4533 972.00
63.7575 970.00
64.0618 979.00
64.366 941.00
64.6703 931.00
64.9745 1724.00
65.2788 1294.00
65.5831 972.00
65.8873 1044.00
66.1916 1868.00
66.4959 1605.00
66.8001 956.00
67.1044 816.00
67.4086 808.00
67.7129 791.00
68.0172 756.00
68.3214 775.00
68.6257 860.00
68.9299 975.00
69.2342 871.00
69.5385 875.00
69.8427 802.00
70.147 723.00
70.4512 671.00
70.7555 722.00
71.0598 711.00
71.364 851.00
71.6683 1105.00
71.9725 1153.00
72.2768 1063.00
72.5811 846.00
72.8853 816.00
73.1896 699.00
73.4938 784.00
73.7981 647.00
74.1024 697.00
74.4066 689.00
74.7109 723.00
75.0151 695.00
75.3194 671.00
75.6237 725.00
75.9279 781.00
76.2322 772.00
76.5364 696.00
76.8407 677.00
77.145 765.00
77.4492 767.00
77.7535 660.00
78.0577 749.00
78.362 689.00
78.6663 771.00
78.9705 1368.00
79.2748 1080.00
79.579 819.00
79.8833 735.00
80.1876 681.00
80.4918 713.00
80.7961 714.00
81.1003 706.00
81.4046 825.00
81.7089 797.00
82.0131 836.00
82.3174 1033.00
82.6217 780.00
82.9259 648.00
83.2302 681.00
83.5344 769.00
83.8387 959.00
84.143 1063.00
84.4472 874.00
84.7515 761.00
85.0557 735.00
85.36 706.00
85.6643 734.00
85.9685 714.00
86.2728 680.00
86.577 628.00
86.8813 704.00
87.1856 773.00
87.4898 879.00
87.7941 783.00
88.0983 697.00
88.4026 762.00
88.7069 711.00
89.0111 794.00
89.3154 805.00
89.6196 769.00
89.9239 965.00
90.2282 1012.00
90.5324 893.00
90.8367 895.00
91.1409 1190.00
91.4452 956.00
91.7495 760.00
92.0537 765.00
92.358 727.00
92.6622 624.00
92.9665 696.00
93.2708 689.00
93.575 868.00
93.8793 771.00
94.1835 672.00
94.4878 677.00
94.7921 704.00
95.0963 737.00
95.4006 671.00
95.7048 729.00
96.0091 759.00
96.3134 869.00
96.6176 779.00
96.9219 781.00
97.2261 725.00
97.5304 774.00
97.8347 755.00
98.1389 683.00
98.4432 645.00
98.7474 692.00
99.0517 630.00
99.356 677.00
99.6602 690.00
99.9645 697.00
100.095 687.00

File: Na_191.xy
9.903433 2828.00
10.2077 2899.00
10.512 3069.00
10.8162 2778.00
11.1205 2706.00
11.4247 3550.00
11.729 6377.00
12.0333 4924.00
12.3375 2623.00
12.6418 2355.00
12.946 2333.00
13.2503 2272.00
13.5546 2094.00
13.8588 2316.00
14.1631 2525.00
14.4673 2081.00
14.7716 2151.00
15.0759 1938.00
15.3801 1964.00
15.6844 1957.00
15.9886 2108.00
16.2929 2543.00
16.5972 2953.00
16.9014 1902.00
17.2057 1854.00
17.5099 1839.00
17.8142 2029.00
18.1185 1974.00
18.4227 1831.00
18.727 1636.00
19.0312 1691.00
19.3355 1863.00
19.6398 3483.00
19.944 3453.00
20.2483 1745.00
20.5525 1734.00
20.8568 2156.00
21.1611 1806.00
21.4653 1476.00
21.7696 1568.00
22.0738 1623.00
22.3781 1638.00
22.6824 1620.00
22.9866 3202.00
23.2909 2960.00
23.5951 2197.00
23.8994 1812.00
24.2037 3081.00
24.5079 2389.00
24.8122 1819.00
25.1164 1550.00
25.4207 1691.00
25.725 1748.00
26.0292 3834.00
26.3335 2235.00
26.6378 2422.00
26.942 7652.00
27.2463 2576.00
27.5505 3716.00
27.8548 2033.00
28.1591 1800.00
28.4633 2497.00
28.7676 2550.00
29.0718 1562.00
29.3761 1364.00
29.6804 1655.00
29.9846 2017.00
30.2889 2716.00
30.5931 2074.00
30.8974 1781.00
31.2017 3474.00
31.5059 4034.00
31.8102 3462.00
32.1144 2107.00
32.4187 1393.00
32.723 1493.00
33.0272 4382.00
33.3315 1504.00
33.6357 1608.00
33.94 3760.00
34.2443 13037.00
34.5485 4011.00
34.8528 1898.00
35.157 1377.00
35.4613 1394.00
35.7656 1698.00
36.0698 1493.00
36.3741 1779.00
36.6783 1402.00
36.9826 1249.00
37.2869 1357.00
37.5911 1231.00
37.8954 1284.00
38.1996 2370.00
38.5039 1343.00
38.8082 1239.00
39.1124 1406.00
39.4167 1258.00
39.7209 1118.00
40.0252 1151.00
40.3295 1169.00
40.6337 1153.00
40.938 1221.00
41.2422 1402.00
41.5465 2207.00
41.8508 1659.00
42.155 1571.00
42.4593 1627.00
42.7635 1179.00
43.0678 1281.00
43.3721 1274.00
43.6763 1264.00
43.9806 981.00
44.2849 1081.00
44.5891 1300.00
44.8934 1292.00
45.1976 1197.00
45.5019 1118.00
45.8062 1174.00
46.1104 1377.00
46.4147 1768.00
46.7189 1621.00
47.0232 2848.00
47.3275 1645.00
47.6317 1971.00
47.936 1216.00
48.2402 1164.00
48.5445 1182.00
48.8488 1321.00
49.153 1920.00
49.4573 1689.00
49.7615 1706.00
50.0658 1460.00
50.3701 1660.00
50.6743 2203.00
50.9786 1618.00
51.2828 1554.00
51.5871 1317.00
51.8914 2394.00
52.1956 3976.00
52.4999 1407.00
52.8041 1049.00
53.1084 1995.00
53.4127 1407.00
53.7169 1277.00
54.0212 1137.00
54.3254 1182.00
54.6297 1399.00
54.934 1882.00
55.2382 1651.00
55.5425 1344.00
55.8467 1368.00
56.151 1515.00
56.4553 1282.00
56.7595 1288.00
57.0638 1140.00
57.368 1246.00
57.6723 1349.00
57.9766 1558.00
58.2808 1441.00
58.5851 1326.00
58.8893 1310.00
59.1936 2143.00
59.4979 1900.00
59.8021 1459.00
60.1064 1314.00
60.4106 1338.00
60.7149 1438.00
61.0192 1732.00
61.3234 1375.00
61.6277 1386.00
61.932 1679.00
62.2362 2004.00
62.5405 1419.00
62.8447 1143.00
63.149 1226.00
63.4533 1199.00
63.7575 1091.00
64.0618 1093.00
64.366 1089.00
64.6703 1215.00
64.9745 1821.00
65.2788 1235.00
65.5831 1140.00
65.8873 1324.00
66.1916 2221.00
66.4959 1624.00
66.8001 1165.00
67.1044 1001.00
67.4086 1019.00
67.7129 1056.00
68.0172 1027.00
68.3214 990.00
68.6257 951.00
68.9299 994.00
69.2342 912.00
69.5385 1053.00
69.8427 994.00
70.147 888.00
70.4512 842.00
70.7555 932.00
71.0598 972.00
71.364 1305.00
71.6683 1442.00
71.9725 1021.00
72.2768 981.00
72.5811 954.00
72.8853 1022.00
73.1896 1007.00
73.4938 957.00
73.7981 883.00
74.1024 857.00
74.4066 892.00
74.7109 920.00
75.0151 1012.00
75.3194 916.00
75.6237 958.00
75.9279 954.00
76.2322 931.00
76.5364 927.00
76.8407 975.00
77.145 920.00
77.4492 919.00
77.7535 876.00
78.0577 884.00
78.362 895.00
78.6663 921.00
78.9705 1392.00
79.2748 1122.00
79.579 951.00
79.8833 1071.00
80.1876 1091.00
80.4918 963.00
80.7961 893.00
81.1003 958.00
81.4046 1019.00
81.7089 1048.00
82.0131 974.00
82.3174 974.00
82.6217 905.00
82.9259 920.00
83.2302 853.00
83.5344 918.00
83.8387 1136.00
84.143 1261.00
84.4472 1038.00
84.7515 949.00
85.0557 993.00
85.36 903.00
85.6643 875.00
85.9685 990.00
86.2728 929.00
86.577 975.00
86.8813 898.00
87.1856 934.00
87.4898 1084.00
87.7941 932.00
88.0983 981.00
88.4026 926.00
88.7069 906.00
89.0111 896.00
89.3154 962.00
89.6196 1068.00
89.9239 1329.00
90.2282 1184.00
90.5324 966.00
90.8367 1125.00
91.1409 1345.00
91.4452 1202.00
91.7495 937.00
92.0537 851.00
92.358 900.00
92.6622 933.00
92.9665 849.00
93.2708 843.00
93.575 957.00
93.8793 839.00
94.1835 834.00
94.4878 835.00
94.7921 920.00
95.0963 892.00
95.4006 872.00
95.7048 957.00
96.0091 1003.00
96.3134 1047.00
96.6176 904.00
96.9219 901.00
97.2261 955.00
97.5304 889.00
97.8347 925.00
98.1389 891.00
98.4432 859.00
98.7474 920.00
99.0517 896.00
99.356 946.00
99.6602 982.00
99.9645 947.00
100.095 907.00