Folder: alab-pipeline/data/xrd_creation/results (part 82)

File: PG_1419-1.xy
10.0094 4125.00
10.3137 4241.00
10.618 4069.00
10.9222 4043.00
11.2265 4006.00
11.5307 3899.00
11.835 3982.00
12.1393 3862.00
12.4435 3861.00
12.7478 3867.00
13.052 3923.00
13.3563 3934.00
13.6606 3798.00
13.9648 3916.00
14.2691 3944.00
14.5733 3950.00
14.8776 3984.00
15.1819 4076.00
15.4861 3852.00
15.7904 3987.00
16.0946 4039.00
16.3989 4019.00
16.7032 3990.00
17.0074 4026.00
17.3117 4252.00
17.6159 4090.00
17.9202 4260.00
18.2245 4225.00
18.5287 4333.00
18.833 4658.00
19.1372 4391.00
19.4415 3984.00
19.7458 3966.00
20.05 3999.00
20.3543 4021.00
20.6585 3889.00
20.9628 4015.00
21.2671 3963.00
21.5713 3907.00
21.8756 3862.00
22.1798 4165.00
22.4841 3927.00
22.7884 4255.00
23.0926 4206.00
23.3969 4048.00
23.7011 4011.00
24.0054 4279.00
24.3097 4124.00
24.6139 4191.00
24.9182 4113.00
25.2224 4005.00
25.5267 3934.00
25.831 3800.00
26.1352 3828.00
26.4395 3905.00
26.7438 3894.00
27.048 3822.00
27.3523 3773.00
27.6565 3812.00
27.9608 3879.00
28.2651 3944.00
28.5693 3978.00
28.8736 3985.00
29.1778 4352.00
29.4821 4014.00
29.7864 4050.00
30.0906 4062.00
30.3949 4130.00
30.6991 3974.00
31.0034 4108.00
31.3077 4032.00
31.6119 4074.00
31.9162 4103.00
32.2204 4038.00
32.5247 4007.00
32.829 4093.00
33.1332 3860.00
33.4375 3981.00
33.7417 3892.00
34.046 4081.00
34.3503 4048.00
34.6545 4207.00
34.9588 4022.00
35.263 3936.00
35.5673 3840.00
35.8716 3830.00
36.1758 4005.00
36.4801 3923.00
36.7843 4376.00
37.0886 3928.00
37.3929 3870.00
37.6971 3972.00
38.0014 3787.00
38.3056 3764.00
38.6099 3773.00
38.9142 3900.00
39.2184 3715.00
39.5227 3727.00
39.8269 3788.00
40.1312 3831.00
40.4355 3801.00
40.7397 3739.00
41.044 3646.00
41.3482 3725.00
41.6525 3578.00
41.9568 3702.00
42.261 3658.00
42.5653 3678.00
42.8695 3691.00
43.1738 3609.00
43.4781 3604.00
43.7823 3642.00
44.0866 3578.00
44.3909 3720.00
44.6951 3611.00
44.9994 3718.00
45.3036 3599.00
45.6079 3621.00
45.9122 3591.00
46.2164 3656.00
46.5207 3556.00
46.8249 3709.00
47.1292 3709.00
47.4335 3650.00
47.7377 3689.00
48.042 3628.00
48.3462 3734.00
48.6505 3657.00
48.9548 3568.00
49.259 3623.00
49.5633 3725.00
49.8675 3732.00
50.1718 3680.00
50.4761 3701.00
50.7803 3767.00
51.0846 3619.00
51.3888 3661.00
51.6931 3629.00
51.9974 3773.00
52.3016 3519.00
52.6059 3465.00
52.9101 3659.00
53.2144 3631.00
53.5187 3537.00
53.8229 3520.00
54.1272 3581.00
54.4314 3514.00
54.7357 3503.00
55.04 3538.00
55.3442 3472.00
55.6485 3553.00
55.9527 3534.00
56.257 3509.00
56.5613 3575.00
56.8655 3458.00
57.1698 3565.00
57.474 3531.00
57.7783 3572.00
58.0826 3465.00
58.3868 3573.00
58.6911 3548.00
58.9953 3493.00
59.2996 3503.00
59.6039 3481.00
59.9081 3514.00
60.2124 3549.00
60.5166 3490.00
60.8209 3556.00
61.1252 3579.00
61.4294 3542.00
61.7337 3436.00
62.0379 3411.00
62.3422 3562.00
62.6465 3468.00
62.9507 3524.00
63.255 3531.00
63.5592 3586.00
63.8635 3499.00
64.1678 3464.00
64.472 3439.00
64.7763 3442.00
65.0806 3390.00
65.3848 3511.00
65.6891 3415.00
65.9933 3522.00
66.2976 3495.00
66.6019 3432.00
66.9061 3525.00
67.2104 3434.00
67.5146 3365.00
67.8189 3362.00
68.1232 3374.00
68.4274 3539.00
68.7317 3439.00
69.0359 3423.00
69.3402 3396.00
69.6445 3355.00
69.9487 3457.00
70.253 3442.00
70.5572 3294.00
70.8615 3441.00
71.1658 3404.00
71.47 3456.00
71.7743 3308.00
72.0785 3345.00
72.3828 3307.00
72.6871 3384.00
72.9913 3442.00
73.2956 3345.00
73.5998 3420.00
73.9041 3442.00
74.2084 3358.00
74.5126 3466.00
74.8169 3374.00
75.1211 3444.00
75.4254 3389.00
75.7297 3358.00
76.0339 3294.00
76.3382 3411.00
76.6424 3363.00
76.9467 3388.00
77.251 3319.00
77.5552 3332.00
77.8595 3323.00
78.1637 3320.00
78.468 3357.00
78.7723 3392.00
79.0765 3343.00
79.3808 3355.00
79.685 3327.00
79.9893 3411.00
80.2936 3338.00
80.5978 3378.00
80.9021 3370.00
81.2063 3366.00
81.5106 3416.00
81.8149 3392.00
82.1191 3407.00
82.4234 3476.00
82.7277 3338.00
83.0319 3390.00
83.3362 3401.00
83.6404 3360.00
83.9447 3410.00
84.249 3254.00
84.5532 3363.00
84.8575 3417.00
85.1617 3372.00
85.466 3317.00
85.7703 3404.00
86.0745 3273.00
86.3788 3361.00
86.683 3359.00
86.9873 3384.00
87.2916 3330.00
87.5958 3336.00
87.9001 3390.00
88.2043 3339.00
88.5086 3377.00
88.8129 3263.00
89.1171 3350.00
89.4214 3351.00
89.7256 3385.00
90.0299 3453.00
90.3342 3371.00
90.6384 3263.00
90.9427 3334.00
91.2469 3372.00
91.5512 3349.00
91.8555 3340.00
92.1597 3285.00
92.464 3341.00
92.7682 3369.00
93.0725 3298.00
93.3768 3403.00
93.681 3329.00
93.9853 3233.00
94.2895 3379.00
94.5938 3329.00
94.8981 3288.00
95.2023 3336.00
95.5066 3303.00
95.8108 3392.00
96.1151 3257.00
96.4194 3341.00
96.7236 3525.00
97.0279 3330.00
97.3321 3329.00
97.6364 3395.00
97.9407 3305.00
98.2449 3410.00
98.5492 3218.00
98.8534 3290.00
99.1577 3370.00
99.462 3348.00
99.7662 3427.00
99.9944 3360.00

File: PG_1420-1.xy
10.0094 4508.00
10.3137 4491.00
10.618 4431.00
10.9222 4576.00
11.2265 4389.00
11.5307 4298.00
11.835 4245.00
12.1393 4073.00
12.4435 4180.00
12.7478 4239.00
13.052 4111.00
13.3563 4243.00
13.6606 4081.00
13.9648 4120.00
14.2691 4097.00
14.5733 4043.00
14.8776 4051.00
15.1819 3977.00
15.4861 4029.00
15.7904 3889.00
16.0946 4047.00
16.3989 3847.00
16.7032 3934.00
17.0074 3979.00
17.3117 4130.00
17.6159 4940.00
17.9202 4010.00
18.2245 4367.00
18.5287 5226.00
18.833 6577.00
19.1372 5945.00
19.4415 3965.00
19.7458 3826.00
20.05 3718.00
20.3543 3775.00
20.6585 3716.00
20.9628 3816.00
21.2671 3799.00
21.5713 3857.00
21.8756 3621.00
22.1798 3649.00
22.4841 3748.00
22.7884 3945.00
23.0926 4110.00
23.3969 3963.00
23.7011 3981.00
24.0054 6147.00
24.3097 4402.00
24.6139 3953.00
24.9182 4295.00
25.2224 3851.00
25.5267 3592.00
25.831 3625.00
26.1352 3590.00
26.4395 3632.00
26.7438 3538.00
27.048 3647.00
27.3523 3511.00
27.6565 3532.00
27.9608 3532.00
28.2651 3546.00
28.5693 3619.00
28.8736 3419.00
29.1778 3524.00
29.4821 3561.00
29.7864 4050.00
30.0906 4873.00
30.3949 3561.00
30.6991 3663.00
31.0034 12135.00
31.3077 3552.00
31.6119 3425.00
31.9162 3348.00
32.2204 3381.00
32.5247 3458.00
32.829 3295.00
33.1332 3389.00
33.4375 3370.00
33.7417 3491.00
34.046 4294.00
34.3503 4950.00
34.6545 4003.00
34.9588 3346.00
35.263 3394.00
35.5673 3654.00
35.8716 3295.00
36.1758 3350.00
36.4801 3303.00
36.7843 3408.00
37.0886 3289.00
37.3929 3415.00
37.6971 3470.00
38.0014 3411.00
38.3056 3391.00
38.6099 3857.00
38.9142 3389.00
39.2184 3249.00
39.5227 3266.00
39.8269 3287.00
40.1312 3539.00
40.4355 3283.00
40.7397 3396.00
41.044 3370.00
41.3482 3251.00
41.6525 3242.00
41.9568 3182.00
42.261 3239.00
42.5653 3238.00
42.8695 3434.00
43.1738 3385.00
43.4781 3229.00
43.7823 3268.00
44.0866 3122.00
44.3909 3386.00
44.6951 3468.00
44.9994 3538.00
45.3036 3281.00
45.6079 3405.00
45.9122 3584.00
46.2164 3441.00
46.5207 3521.00
46.8249 5503.00
47.1292 3453.00
47.4335 3278.00
47.7377 3301.00
48.042 3434.00
48.3462 3555.00
48.6505 3352.00
48.9548 3239.00
49.259 3297.00
49.5633 3325.00
49.8675 3243.00
50.1718 3264.00
50.4761 3728.00
50.7803 3254.00
51.0846 3216.00
51.3888 3241.00
51.6931 3222.00
51.9974 3233.00
52.3016 3144.00
52.6059 3214.00
52.9101 3118.00
53.2144 3242.00
53.5187 3167.00
53.8229 3054.00
54.1272 3158.00
54.4314 3166.00
54.7357 3256.00
55.04 3194.00
55.3442 3685.00
55.6485 3164.00
55.9527 3031.00
56.257 3082.00
56.5613 3228.00
56.8655 3195.00
57.1698 3138.00
57.474 3256.00
57.7783 3173.00
58.0826 3245.00
58.3868 3339.00
58.6911 3489.00
58.9953 3597.00
59.2996 3278.00
59.6039 3130.00
59.9081 3195.00
60.2124 3258.00
60.5166 3144.00
60.8209 3173.00
61.1252 3226.00
61.4294 3146.00
61.7337 3145.00
62.0379 3212.00
62.3422 3169.00
62.6465 3067.00
62.9507 3075.00
63.255 3169.00
63.5592 3130.00
63.8635 3172.00
64.1678 3448.00
64.472 3118.00
64.7763 3141.00
65.0806 3223.00
65.3848 3054.00
65.6891 3101.00
65.9933 3246.00
66.2976 3059.00
66.6019 3064.00
66.9061 3034.00
67.2104 3029.00
67.5146 3065.00
67.8189 3100.00
68.1232 3057.00
68.4274 3134.00
68.7317 3048.00
69.0359 3177.00
69.3402 3134.00
69.6445 3170.00
69.9487 3731.00
70.253 3201.00
70.5572 3001.00
70.8615 3019.00
71.1658 3031.00
71.47 3077.00
71.7743 3331.00
72.0785 3133.00
72.3828 3091.00
72.6871 3134.00
72.9913 2973.00
73.2956 3094.00
73.5998 3070.00
73.9041 3161.00
74.2084 3136.00
74.5126 3041.00
74.8169 3171.00
75.1211 2964.00
75.4254 3032.00
75.7297 2999.00
76.0339 3041.00
76.3382 3014.00
76.6424 3134.00
76.9467 3171.00
77.251 3061.00
77.5552 3066.00
77.8595 3066.00
78.1637 3081.00
78.468 2949.00
78.7723 3018.00
79.0765 3028.00
79.3808 3212.00
79.685 3545.00
79.9893 3373.00
80.2936 3306.00
80.5978 3080.00
80.9021 3143.00
81.2063 3031.00
81.5106 3184.00
81.8149 3302.00
82.1191 3201.00
82.4234 3118.00
82.7277 3062.00
83.0319 3007.00
83.3362 3078.00
83.6404 2998.00
83.9447 3020.00
84.249 2968.00
84.5532 2984.00
84.8575 3010.00
85.1617 2991.00
85.466 3068.00
85.7703 3052.00
86.0745 2939.00
86.3788 3049.00
86.683 3072.00
86.9873 3011.00
87.2916 3115.00
87.5958 2944.00
87.9001 3166.00
88.2043 3053.00
88.5086 3052.00
88.8129 3005.00
89.1171 2938.00
89.4214 3074.00
89.7256 2947.00
90.0299 2954.00
90.3342 2909.00
90.6384 2969.00
90.9427 3085.00
91.2469 3051.00
91.5512 3109.00
91.8555 2970.00
92.1597 2995.00
92.464 2907.00
92.7682 3049.00
93.0725 3059.00
93.3768 2969.00
93.681 3160.00
93.9853 3046.00
94.2895 3167.00
94.5938 2958.00
94.8981 3074.00
95.2023 3120.00
95.5066 3122.00
95.8108 3002.00
96.1151 3089.00
96.4194 3068.00
96.7236 2990.00
97.0279 3016.00
97.3321 3043.00
97.6364 3035.00
97.9407 3053.00
98.2449 2958.00
98.5492 2952.00
98.8534 3073.00
99.1577 3093.00
99.462 3106.00
99.7662 3183.00
99.9944 3193.00

File: PG_1421-1.xy
10.0094 3028.00
10.3137 2914.00
10.618 2871.00
10.9222 2832.00
11.2265 2692.00
11.5307 2698.00
11.835 2585.00
12.1393 2547.00
12.4435 2604.00
12.7478 2454.00
13.052 2517.00
13.3563 2381.00
13.6606 2468.00
13.9648 2375.00
14.2691 2306.00
14.5733 2350.00
14.8776 2361.00
15.1819 2387.00
15.4861 2854.00
15.7904 6021.00
16.0946 4655.00
16.3989 2506.00
16.7032 2354.00
17.0074 2275.00
17.3117 2235.00
17.6159 2291.00
17.9202 2269.00
18.2245 2269.00
18.5287 2268.00
18.833 2330.00
19.1372 2175.00
19.4415 2089.00
19.7458 2056.00
20.05 2015.00
20.3543 2017.00
20.6585 1956.00
20.9628 2062.00
21.2671 1958.00
21.5713 2009.00
21.8756 1996.00
22.1798 1930.00
22.4841 1914.00
22.7884 2005.00
23.0926 1989.00
23.3969 2004.00
23.7011 2033.00
24.0054 2234.00
24.3097 2336.00
24.6139 2228.00
24.9182 2062.00
25.2224 1982.00
25.5267 1873.00
25.831 1793.00
26.1352 1802.00
26.4395 1822.00
26.7438 1919.00
27.048 1983.00
27.3523 3370.00
27.6565 6106.00
27.9608 3096.00
28.2651 9672.00
28.5693 2697.00
28.8736 1890.00
29.1778 1825.00
29.4821 1700.00
29.7864 1772.00
30.0906 1758.00
30.3949 1713.00
30.6991 1599.00
31.0034 1662.00
31.3077 1723.00
31.6119 1836.00
31.9162 3005.00
32.2204 1786.00
32.5247 1560.00
32.829 1603.00
33.1332 1607.00
33.4375 1664.00
33.7417 1571.00
34.046 1548.00
34.3503 1614.00
34.6545 1519.00
34.9588 1511.00
35.263 1491.00
35.5673 1537.00
35.8716 1620.00
36.1758 1794.00
36.4801 1774.00
36.7843 1507.00
37.0886 1541.00
37.3929 1479.00
37.6971 1505.00
38.0014 1466.00
38.3056 1520.00
38.6099 1608.00
38.9142 1556.00
39.2184 1685.00
39.5227 2792.00
39.8269 6116.00
40.1312 2053.00
40.4355 1574.00
40.7397 1432.00
41.044 1473.00
41.3482 1386.00
41.6525 1481.00
41.9568 1504.00
42.261 1630.00
42.5653 2132.00
42.8695 1543.00
43.1738 1417.00
43.4781 1414.00
43.7823 1397.00
44.0866 1340.00
44.3909 1406.00
44.6951 1376.00
44.9994 1304.00
45.3036 1310.00
45.6079 1342.00
45.9122 1344.00
46.2164 1324.00
46.5207 1433.00
46.8249 1351.00
47.1292 1614.00
47.4335 2125.00
47.7377 1551.00
48.042 1603.00
48.3462 2433.00
48.6505 3321.00
48.9548 5186.00
49.259 2178.00
49.5633 1676.00
49.8675 1535.00
50.1718 1898.00
50.4761 1589.00
50.7803 1383.00
51.0846 1392.00
51.3888 1325.00
51.6931 1333.00
51.9974 1319.00
52.3016 1322.00
52.6059 1330.00
52.9101 1271.00
53.2144 1314.00
53.5187 1268.00
53.8229 1307.00
54.1272 1272.00
54.4314 1311.00
54.7357 1322.00
55.04 1384.00
55.3442 1785.00
55.6485 2328.00
55.9527 1512.00
56.257 1518.00
56.5613 1732.00
56.8655 1469.00
57.1698 1271.00
57.474 1233.00
57.7783 1422.00
58.0826 1570.00
58.3868 1382.00
58.6911 1373.00
58.9953 1507.00
59.2996 1434.00
59.6039 1282.00
59.9081 1244.00
60.2124 1238.00
60.5166 1245.00
60.8209 1253.00
61.1252 1248.00
61.4294 1306.00
61.7337 1230.00
62.0379 1203.00
62.3422 1322.00
62.6465 1279.00
62.9507 1275.00
63.255 1278.00
63.5592 1297.00
63.8635 1472.00
64.1678 1891.00
64.472 1886.00
64.7763 1454.00
65.0806 1343.00
65.3848 1598.00
65.6891 1338.00
65.9933 1299.00
66.2976 1347.00
66.6019 1291.00
66.9061 1255.00
67.2104 1272.00
67.5146 1137.00
67.8189 1248.00
68.1232 1197.00
68.4274 1245.00
68.7317 1263.00
69.0359 1258.00
69.3402 1270.00
69.6445 1420.00
69.9487 1935.00
70.253 1549.00
70.5572 1302.00
70.8615 1301.00
71.1658 1448.00
71.47 1331.00
71.7743 1212.00
72.0785 1147.00
72.3828 1228.00
72.6871 1217.00
72.9913 1319.00
73.2956 1307.00
73.5998 1213.00
73.9041 1115.00
74.2084 1224.00
74.5126 1236.00
74.8169 1210.00
75.1211 1264.00
75.4254 1245.00
75.7297 1307.00
76.0339 1494.00
76.3382 1512.00
76.6424 1623.00
76.9467 1504.00
77.251 1641.00
77.5552 1890.00
77.8595 1916.00
78.1637 1504.00
78.468 1389.00
78.7723 1345.00
79.0765 1262.00
79.3808 1346.00
79.685 1279.00
79.9893 1176.00
80.2936 1206.00
80.5978 1229.00
80.9021 1188.00
81.2063 1220.00
81.5106 1191.00
81.8149 1170.00
82.1191 1210.00
82.4234 1359.00
82.7277 1384.00
83.0319 1259.00
83.3362 1235.00
83.6404 1212.00
83.9447 1157.00
84.249 1176.00
84.5532 1249.00
84.8575 1226.00
85.1617 1322.00
85.466 1247.00
85.7703 1227.00
86.0745 1154.00
86.3788 1201.00
86.683 1215.00
86.9873 1145.00
87.2916 1132.00
87.5958 1164.00
87.9001 1134.00
88.2043 1174.00
88.5086 1242.00
88.8129 1478.00
89.1171 1535.00
89.4214 1325.00
89.7256 1251.00
90.0299 1298.00
90.3342 1350.00
90.6384 1352.00
90.9427 1336.00
91.2469 1262.00
91.5512 1312.00
91.8555 1290.00
92.1597 1235.00
92.464 1245.00
92.7682 1174.00
93.0725 1196.00
93.3768 1133.00
93.681 1204.00
93.9853 1212.00
94.2895 1137.00
94.5938 1163.00
94.8981 1175.00
95.2023 1218.00
95.5066 1378.00
95.8108 1537.00
96.1151 1485.00
96.4194 1335.00
96.7236 1412.00
97.0279 1454.00
97.3321 1344.00
97.6364 1219.00
97.9407 1192.00
98.2449 1203.00
98.5492 1254.00
98.8534 1186.00
99.1577 1226.00
99.462 1184.00
99.7662 1161.00
99.9944 1248.00

File: PG_1422-1.xy
10.0094 6348.00
10.3137 6368.00
10.618 6496.00
10.9222 6304.00
11.2265 6362.00
11.5307 6356.00
11.835 6407.00
12.1393 6378.00
12.4435 6481.00
12.7478 6478.00
13.052 6539.00
13.3563 6414.00
13.6606 6357.00
13.9648 6382.00
14.2691 6392.00
14.5733 6294.00
14.8776 6484.00
15.1819 6521.00
15.4861 6490.00
15.7904 6421.00
16.0946 6625.00
16.3989 6511.00
16.7032 6358.00
17.0074 6494.00
17.3117 6491.00
17.6159 6537.00
17.9202 6672.00
18.2245 6707.00
18.5287 7642.00
18.833 12144.00
19.1372 9385.00
19.4415 7008.00
19.7458 6470.00
20.05 6647.00
20.3543 6573.00
20.6585 6510.00
20.9628 6366.00
21.2671 6219.00
21.5713 6603.00
21.8756 6485.00
22.1798 6459.00
22.4841 6472.00
22.7884 6379.00
23.0926 6552.00
23.3969 7240.00
23.7011 6466.00
24.0054 6608.00
24.3097 6514.00
24.6139 6671.00
24.9182 7087.00
25.2224 7146.00
25.5267 6332.00
25.831 6240.00
26.1352 6044.00
26.4395 6235.00
26.7438 6094.00
27.048 6130.00
27.3523 6348.00
27.6565 6290.00
27.9608 6320.00
28.2651 6401.00
28.5693 6324.00
28.8736 6137.00
29.1778 6191.00
29.4821 6430.00
29.7864 6916.00
30.0906 8317.00
30.3949 6665.00
30.6991 6159.00
31.0034 6743.00
31.3077 6074.00
31.6119 6255.00
31.9162 6259.00
32.2204 6538.00
32.5247 6512.00
32.829 6116.00
33.1332 6197.00
33.4375 6220.00
33.7417 6209.00
34.046 7345.00
34.3503 7229.00
34.6545 7475.00
34.9588 6289.00
35.263 6252.00
35.5673 6036.00
35.8716 6184.00
36.1758 6069.00
36.4801 6260.00
36.7843 6048.00
37.0886 6039.00
37.3929 6378.00
37.6971 6311.00
38.0014 6164.00
38.3056 6082.00
38.6099 6270.00
38.9142 5911.00
39.2184 5907.00
39.5227 5980.00
39.8269 5888.00
40.1312 6280.00
40.4355 6270.00
40.7397 6086.00
41.044 6170.00
41.3482 6028.00
41.6525 6081.00
41.9568 6040.00
42.261 5836.00
42.5653 6064.00
42.8695 6496.00
43.1738 6220.00
43.4781 6167.00
43.7823 6103.00
44.0866 5857.00
44.3909 6030.00
44.6951 6396.00
44.9994 6325.00
45.3036 6232.00
45.6079 5995.00
45.9122 5919.00
46.2164 6024.00
46.5207 6082.00
46.8249 6295.00
47.1292 6222.00
47.4335 6358.00
47.7377 6110.00
48.042 5947.00
48.3462 6563.00
48.6505 6160.00
48.9548 6106.00
49.259 5987.00
49.5633 6005.00
49.8675 6005.00
50.1718 6108.00
50.4761 6588.00
50.7803 6357.00
51.0846 6097.00
51.3888 6110.00
51.6931 5972.00
51.9974 5835.00
52.3016 6084.00
52.6059 5969.00
52.9101 5907.00
53.2144 5960.00
53.5187 6074.00
53.8229 5932.00
54.1272 5981.00
54.4314 5993.00
54.7357 6065.00
55.04 5965.00
55.3442 6047.00
55.6485 5938.00
55.9527 5891.00
56.257 6163.00
56.5613 6244.00
56.8655 5890.00
57.1698 5983.00
57.474 6084.00
57.7783 6087.00
58.0826 6153.00
58.3868 6083.00
58.6911 6037.00
58.9953 6089.00
59.2996 5850.00
59.6039 6017.00
59.9081 5914.00
60.2124 6141.00
60.5166 5869.00
60.8209 6028.00
61.1252 5932.00
61.4294 5971.00
61.7337 6191.00
62.0379 6059.00
62.3422 5845.00
62.6465 5920.00
62.9507 5988.00
63.255 5886.00
63.5592 5948.00
63.8635 5938.00
64.1678 6087.00
64.472 5865.00
64.7763 5812.00
65.0806 5923.00
65.3848 5845.00
65.6891 5887.00
65.9933 5910.00
66.2976 6017.00
66.6019 5996.00
66.9061 5891.00
67.2104 5805.00
67.5146 5784.00
67.8189 5983.00
68.1232 5797.00
68.4274 5894.00
68.7317 5932.00
69.0359 5845.00
69.3402 5861.00
69.6445 5918.00
69.9487 5862.00
70.253 5803.00
70.5572 5808.00
70.8615 5866.00
71.1658 5954.00
71.47 5739.00
71.7743 5832.00
72.0785 5840.00
72.3828 5883.00
72.6871 5808.00
72.9913 5864.00
73.2956 5755.00
73.5998 5814.00
73.9041 5782.00
74.2084 5880.00
74.5126 5745.00
74.8169 5807.00
75.1211 5852.00
75.4254 5737.00
75.7297 5794.00
76.0339 5968.00
76.3382 5910.00
76.6424 5833.00
76.9467 5851.00
77.251 5718.00
77.5552 5797.00
77.8595 5900.00
78.1637 5811.00
78.468 5798.00
78.7723 5794.00
79.0765 5917.00
79.3808 5820.00
79.685 5711.00
79.9893 5864.00
80.2936 5958.00
80.5978 5893.00
80.9021 5803.00
81.2063 5842.00
81.5106 5884.00
81.8149 5812.00
82.1191 5860.00
82.4234 5932.00
82.7277 5708.00
83.0319 5881.00
83.3362 5823.00
83.6404 5748.00
83.9447 5629.00
84.249 5788.00
84.5532 5749.00
84.8575 5794.00
85.1617 5809.00
85.466 5773.00
85.7703 5767.00
86.0745 5705.00
86.3788 5736.00
86.683 5734.00
86.9873 5865.00
87.2916 5879.00
87.5958 5709.00
87.9001 5722.00
88.2043 5820.00
88.5086 5783.00
88.8129 5865.00
89.1171 5693.00
89.4214 5730.00
89.7256 5787.00
90.0299 5902.00
90.3342 5704.00
90.6384 5828.00
90.9427 5613.00
91.2469 5827.00
91.5512 5827.00
91.8555 5811.00
92.1597 5946.00
92.464 5821.00
92.7682 5774.00
93.0725 5821.00
93.3768 5745.00
93.681 5917.00
93.9853 5858.00
94.2895 5935.00
94.5938 5792.00
94.8981 5685.00
95.2023 5798.00
95.5066 5770.00
95.8108 5966.00
96.1151 5717.00
96.4194 5871.00
96.7236 5815.00
97.0279 5827.00
97.3321 5845.00
97.6364 5716.00
97.9407 5819.00
98.2449 5881.00
98.5492 5722.00
98.8534 5779.00
99.1577 5766.00
99.462 5748.00
99.7662 5892.00
99.9944 5811.00

File: PG_1517-1.xy
10.0094 2255.00
10.3137 2071.00
10.618 2058.00
10.9222 1961.00
11.2265 1870.00
11.5307 1783.00
11.835 1709.00
12.1393 1638.00
12.4435 1661.00
12.7478 1559.00
13.052 1465.00
13.3563 1423.00
13.6606 1351.00
13.9648 1297.00
14.2691 1375.00
14.5733 1311.00
14.8776 1283.00
15.1819 1251.00
15.4861 1180.00
15.7904 1175.00
16.0946 1171.00
16.3989 1143.00
16.7032 1113.00
17.0074 1123.00
17.3117 1125.00
17.6159 1202.00
17.9202 1201.00
18.2245 1096.00
18.5287 1051.00
18.833 972.00
19.1372 1045.00
19.4415 985.00
19.7458 952.00
20.05 900.00
20.3543 976.00
20.6585 839.00
20.9628 839.00
21.2671 847.00
21.5713 890.00
21.8756 752.00
22.1798 805.00
22.4841 812.00
22.7884 814.00
23.0926 810.00
23.3969 785.00
23.7011 779.00
24.0054 819.00
24.3097 1381.00
24.6139 1319.00
24.9182 1729.00
25.2224 771.00
25.5267 742.00
25.831 724.00
26.1352 728.00
26.4395 686.00
26.7438 660.00
27.048 708.00
27.3523 674.00
27.6565 718.00
27.9608 858.00
28.2651 1563.00
28.5693 8374.00
28.8736 1675.00
29.1778 847.00
29.4821 679.00
29.7864 644.00
30.0906 819.00
30.3949 1126.00
30.6991 1386.00
31.0034 865.00
31.3077 866.00
31.6119 1789.00
31.9162 8433.00
32.2204 1475.00
32.5247 757.00
32.829 703.00
33.1332 632.00
33.4375 638.00
33.7417 855.00
34.046 690.00
34.3503 1123.00
34.6545 3114.00
34.9588 2357.00
35.263 1076.00
35.5673 1653.00
35.8716 2486.00
36.1758 930.00
36.4801 894.00
36.7843 567.00
37.0886 556.00
37.3929 606.00
37.6971 793.00
38.0014 666.00
38.3056 588.00
38.6099 976.00
38.9142 978.00
39.2184 960.00
39.5227 571.00
39.8269 559.00
40.1312 516.00
40.4355 712.00
40.7397 599.00
41.044 914.00
41.3482 1517.00
41.6525 1060.00
41.9568 916.00
42.261 548.00
42.5653 493.00
42.8695 516.00
43.1738 569.00
43.4781 533.00
43.7823 468.00
44.0866 445.00
44.3909 485.00
44.6951 449.00
44.9994 565.00
45.3036 992.00
45.6079 613.00
45.9122 1000.00
46.2164 835.00
46.5207 496.00
46.8249 469.00
47.1292 458.00
47.4335 461.00
47.7377 476.00
48.042 429.00
48.3462 494.00
48.6505 545.00
48.9548 657.00
49.259 578.00
49.5633 1056.00
49.8675 2508.00
50.1718 656.00
50.4761 984.00
50.7803 2846.00
51.0846 1878.00
51.3888 838.00
51.6931 882.00
51.9974 698.00
52.3016 503.00
52.6059 452.00
52.9101 487.00
53.2144 489.00
53.5187 452.00
53.8229 485.00
54.1272 519.00
54.4314 837.00
54.7357 1852.00
55.04 680.00
55.3442 658.00
55.6485 876.00
55.9527 2472.00
56.257 1349.00
56.5613 1618.00
56.8655 688.00
57.1698 570.00
57.474 683.00
57.7783 1734.00
58.0826 900.00
58.3868 1004.00
58.6911 1127.00
58.9953 934.00
59.2996 647.00
59.6039 520.00
59.9081 572.00
60.2124 983.00
60.5166 1871.00
60.8209 1166.00
61.1252 781.00
61.4294 643.00
61.7337 761.00
62.0379 1212.00
62.3422 965.00
62.6465 1366.00
62.9507 771.00
63.255 920.00
63.5592 1552.00
63.8635 757.00
64.1678 642.00
64.472 765.00
64.7763 1321.00
65.0806 1181.00
65.3848 651.00
65.6891 667.00
65.9933 1006.00
66.2976 1479.00
66.6019 1183.00
66.9061 591.00
67.2104 485.00
67.5146 489.00
67.8189 489.00
68.1232 499.00
68.4274 504.00
68.7317 434.00
69.0359 495.00
69.3402 645.00
69.6445 933.00
69.9487 670.00
70.253 633.00
70.5572 710.00
70.8615 587.00
71.1658 516.00
71.47 609.00
71.7743 1137.00
72.0785 890.00
72.3828 568.00
72.6871 733.00
72.9913 734.00
73.2956 778.00
73.5998 629.00
73.9041 589.00
74.2084 557.00
74.5126 564.00
74.8169 495.00
75.1211 495.00
75.4254 830.00
75.7297 931.00
76.0339 939.00
76.3382 582.00
76.6424 493.00
76.9467 585.00
77.251 784.00
77.5552 570.00
77.8595 608.00
78.1637 719.00
78.468 618.00
78.7723 666.00
79.0765 590.00
79.3808 612.00
79.685 915.00
79.9893 641.00
80.2936 492.00
80.5978 474.00
80.9021 516.00
81.2063 567.00
81.5106 503.00
81.8149 568.00
82.1191 731.00
82.4234 778.00
82.7277 642.00
83.0319 604.00
83.3362 838.00
83.6404 783.00
83.9447 916.00
84.249 857.00
84.5532 819.00
84.8575 983.00
85.1617 790.00
85.466 654.00
85.7703 755.00
86.0745 627.00
86.3788 581.00
86.683 649.00
86.9873 738.00
87.2916 565.00
87.5958 527.00
87.9001 565.00
88.2043 788.00
88.5086 773.00
88.8129 825.00
89.1171 958.00
89.4214 1002.00
89.7256 770.00
90.0299 743.00
90.3342 810.00
90.6384 956.00
90.9427 748.00
91.2469 668.00
91.5512 676.00
91.8555 655.00
92.1597 702.00
92.464 641.00
92.7682 567.00
93.0725 505.00
93.3768 538.00
93.681 607.00
93.9853 563.00
94.2895 643.00
94.5938 773.00
94.8981 780.00
95.2023 626.00
95.5066 705.00
95.8108 899.00
96.1151 958.00
96.4194 895.00
96.7236 768.00
97.0279 950.00
97.3321 983.00
97.6364 1097.00
97.9407 1044.00
98.2449 841.00
98.5492 668.00
98.8534 784.00
99.1577 846.00
99.462 876.00
99.7662 894.00
99.9944 932.00