Folder: alab-pipeline/data/xrd_creation/results (part 90)

File: PG_1852-1.xy
9.903433 2514.00
10.2077 2413.00
10.512 2382.00
10.8162 2234.00
11.1205 2148.00
11.4247 2045.00
11.729 2004.00
12.0333 1964.00
12.3375 1775.00
12.6418 1828.00
12.946 1701.00
13.2503 1709.00
13.5546 1696.00
13.8588 1672.00
14.1631 1592.00
14.4673 1656.00
14.7716 1575.00
15.0759 1618.00
15.3801 1559.00
15.6844 1510.00
15.9886 1559.00
16.2929 1473.00
16.5972 1473.00
16.9014 1568.00
17.2057 1433.00
17.5099 1455.00
17.8142 1461.00
18.1185 1364.00
18.4227 1417.00
18.727 1422.00
19.0312 1267.00
19.3355 1303.00
19.6398 1195.00
19.944 1242.00
20.2483 1322.00
20.5525 1263.00
20.8568 1169.00
21.1611 1179.00
21.4653 1245.00
21.7696 1676.00
22.0738 1071.00
22.3781 1174.00
22.6824 1169.00
22.9866 1152.00
23.2909 1137.00
23.5951 1114.00
23.8994 1165.00
24.2037 1324.00
24.5079 1209.00
24.8122 1204.00
25.1164 1196.00
25.4207 1155.00
25.725 1104.00
26.0292 1078.00
26.3335 1077.00
26.6378 988.00
26.942 1059.00
27.2463 1051.00
27.5505 980.00
27.8548 1084.00
28.1591 1366.00
28.4633 3194.00
28.7676 1061.00
29.0718 1063.00
29.3761 941.00
29.6804 1033.00
29.9846 1045.00
30.2889 1190.00
30.5931 2253.00
30.8974 7399.00
31.2017 1228.00
31.5059 1457.00
31.8102 2265.00
32.1144 1002.00
32.4187 983.00
32.723 920.00
33.0272 943.00
33.3315 962.00
33.6357 906.00
33.94 932.00
34.2443 1197.00
34.5485 1217.00
34.8528 936.00
35.157 1029.00
35.4613 1503.00
35.7656 3267.00
36.0698 951.00
36.3741 841.00
36.6783 847.00
36.9826 918.00
37.2869 859.00
37.5911 879.00
37.8954 1187.00
38.1996 879.00
38.5039 838.00
38.8082 957.00
39.1124 952.00
39.4167 793.00
39.7209 897.00
40.0252 973.00
40.3295 818.00
40.6337 830.00
40.938 1165.00
41.2422 941.00
41.5465 979.00
41.8508 931.00
42.155 1177.00
42.4593 733.00
42.7635 811.00
43.0678 754.00
43.3721 728.00
43.6763 771.00
43.9806 845.00
44.2849 801.00
44.5891 794.00
44.8934 931.00
45.1976 916.00
45.5019 853.00
45.8062 1323.00
46.1104 1084.00
46.4147 776.00
46.7189 792.00
47.0232 733.00
47.3275 813.00
47.6317 739.00
47.936 756.00
48.2402 762.00
48.5445 729.00
48.8488 789.00
49.153 968.00
49.4573 1455.00
49.7615 1030.00
50.0658 852.00
50.3701 1602.00
50.6743 1195.00
50.9786 1369.00
51.2828 4617.00
51.5871 1069.00
51.8914 789.00
52.1956 809.00
52.4999 786.00
52.8041 856.00
53.1084 856.00
53.4127 781.00
53.7169 805.00
54.0212 885.00
54.3254 1231.00
54.6297 848.00
54.934 829.00
55.2382 885.00
55.5425 1199.00
55.8467 1195.00
56.151 1414.00
56.4553 980.00
56.7595 763.00
57.0638 804.00
57.368 1063.00
57.6723 892.00
57.9766 900.00
58.2808 882.00
58.5851 960.00
58.8893 800.00
59.1936 962.00
59.4979 988.00
59.8021 821.00
60.1064 1189.00
60.4106 1122.00
60.7149 1612.00
61.0192 2427.00
61.3234 993.00
61.6277 967.00
61.932 909.00
62.2362 1198.00
62.5405 1163.00
62.8447 972.00
63.149 1047.00
63.4533 794.00
63.7575 993.00
64.0618 1097.00
64.366 879.00
64.6703 810.00
64.9745 810.00
65.2788 912.00
65.5831 963.00
65.8873 1032.00
66.1916 858.00
66.4959 809.00
66.8001 896.00
67.1044 784.00
67.4086 747.00
67.7129 786.00
68.0172 829.00
68.3214 917.00
68.6257 807.00
68.9299 741.00
69.2342 862.00
69.5385 811.00
69.8427 899.00
70.147 784.00
70.4512 745.00
70.7555 801.00
71.0598 769.00
71.364 987.00
71.6683 839.00
71.9725 794.00
72.2768 802.00
72.5811 791.00
72.8853 813.00
73.1896 821.00
73.4938 765.00
73.7981 948.00
74.1024 851.00
74.4066 781.00
74.7109 818.00
75.0151 931.00
75.3194 1167.00
75.6237 896.00
75.9279 827.00
76.2322 756.00
76.5364 1078.00
76.8407 1070.00
77.145 790.00
77.4492 832.00
77.7535 891.00
78.0577 958.00
78.362 808.00
78.6663 850.00
78.9705 808.00
79.2748 1019.00
79.579 936.00
79.8833 759.00
80.1876 784.00
80.4918 879.00
80.7961 882.00
81.1003 809.00
81.4046 790.00
81.7089 893.00
82.0131 1221.00
82.3174 985.00
82.6217 898.00
82.9259 856.00
83.2302 1249.00
83.5344 1238.00
83.8387 850.00
84.143 834.00
84.4472 827.00
84.7515 860.00
85.0557 853.00
85.36 802.00
85.6643 811.00
85.9685 1286.00
86.2728 1122.00
86.577 818.00
86.8813 792.00
87.1856 839.00
87.4898 911.00
87.7941 855.00
88.0983 841.00
88.4026 938.00
88.7069 1021.00
89.0111 880.00
89.3154 880.00
89.6196 883.00
89.9239 1057.00
90.2282 1052.00
90.5324 817.00
90.8367 839.00
91.1409 817.00
91.4452 811.00
91.7495 782.00
92.0537 831.00
92.358 755.00
92.6622 973.00
92.9665 940.00
93.2708 771.00
93.575 842.00
93.8793 803.00
94.1835 792.00
94.4878 840.00
94.7921 834.00
95.0963 930.00
95.4006 1123.00
95.7048 932.00
96.0091 868.00
96.3134 951.00
96.6176 1513.00
96.9219 1176.00
97.2261 971.00
97.5304 828.00
97.8347 934.00
98.1389 903.00
98.4432 909.00
98.7474 845.00
99.0517 893.00
99.356 1077.00
99.6602 1009.00
99.9645 937.00
100.095 921.00

File: PG_1934-1.xy
9.903433 2591.00
10.2077 2453.00
10.512 2397.00
10.8162 2170.00
11.1205 2186.00
11.4247 2037.00
11.729 1948.00
12.0333 1936.00
12.3375 1853.00
12.6418 1726.00
12.946 1678.00
13.2503 1589.00
13.5546 1600.00
13.8588 1471.00
14.1631 1450.00
14.4673 1446.00
14.7716 1440.00
15.0759 1311.00
15.3801 1368.00
15.6844 1332.00
15.9886 1310.00
16.2929 1269.00
16.5972 1231.00
16.9014 1191.00
17.2057 1154.00
17.5099 1109.00
17.8142 1117.00
18.1185 1189.00
18.4227 1143.00
18.727 1056.00
19.0312 1009.00
19.3355 1075.00
19.6398 1003.00
19.944 977.00
20.2483 993.00
20.5525 977.00
20.8568 912.00
21.1611 919.00
21.4653 912.00
21.7696 892.00
22.0738 846.00
22.3781 846.00
22.6824 852.00
22.9866 886.00
23.2909 875.00
23.5951 806.00
23.8994 842.00
24.2037 869.00
24.5079 804.00
24.8122 779.00
25.1164 746.00
25.4207 810.00
25.725 748.00
26.0292 761.00
26.3335 825.00
26.6378 726.00
26.942 702.00
27.2463 627.00
27.5505 752.00
27.8548 759.00
28.1591 771.00
28.4633 662.00
28.7676 654.00
29.0718 726.00
29.3761 597.00
29.6804 672.00
29.9846 676.00
30.2889 616.00
30.5931 590.00
30.8974 593.00
31.2017 575.00
31.5059 586.00
31.8102 549.00
32.1144 530.00
32.4187 504.00
32.723 565.00
33.0272 509.00
33.3315 604.00
33.6357 621.00
33.94 526.00
34.2443 494.00
34.5485 485.00
34.8528 505.00
35.157 478.00
35.4613 514.00
35.7656 422.00
36.0698 466.00
36.3741 457.00
36.6783 435.00
36.9826 454.00
37.2869 449.00
37.5911 408.00
37.8954 425.00
38.1996 427.00
38.5039 445.00
38.8082 376.00
39.1124 402.00
39.4167 382.00
39.7209 398.00
40.0252 427.00
40.3295 355.00
40.6337 400.00
40.938 369.00
41.2422 381.00
41.5465 331.00
41.8508 394.00
42.155 363.00
42.4593 356.00
42.7635 391.00
43.0678 381.00
43.3721 350.00
43.6763 393.00
43.9806 389.00
44.2849 350.00
44.5891 352.00
44.8934 369.00
45.1976 335.00
45.5019 344.00
45.8062 326.00
46.1104 356.00
46.4147 313.00
46.7189 322.00
47.0232 340.00
47.3275 336.00
47.6317 311.00
47.936 354.00
48.2402 277.00
48.5445 336.00
48.8488 297.00
49.153 322.00
49.4573 298.00
49.7615 273.00
50.0658 301.00
50.3701 268.00
50.6743 335.00
50.9786 299.00
51.2828 306.00
51.5871 346.00
51.8914 320.00
52.1956 304.00
52.4999 248.00
52.8041 272.00
53.1084 298.00
53.4127 305.00
53.7169 315.00
54.0212 303.00
54.3254 290.00
54.6297 304.00
54.934 295.00
55.2382 268.00
55.5425 274.00
55.8467 295.00
56.151 249.00
56.4553 235.00
56.7595 262.00
57.0638 262.00
57.368 294.00
57.6723 246.00
57.9766 262.00
58.2808 259.00
58.5851 233.00
58.8893 278.00
59.1936 223.00
59.4979 269.00
59.8021 229.00
60.1064 224.00
60.4106 246.00
60.7149 221.00
61.0192 199.00
61.3234 224.00
61.6277 237.00
61.932 235.00
62.2362 242.00
62.5405 222.00
62.8447 200.00
63.149 273.00
63.4533 249.00
63.7575 202.00
64.0618 212.00
64.366 201.00
64.6703 193.00
64.9745 219.00
65.2788 222.00
65.5831 241.00
65.8873 210.00
66.1916 174.00
66.4959 201.00
66.8001 220.00
67.1044 210.00
67.4086 223.00
67.7129 223.00
68.0172 196.00
68.3214 206.00
68.6257 214.00
68.9299 220.00
69.2342 208.00
69.5385 201.00
69.8427 211.00
70.147 203.00
70.4512 245.00
70.7555 234.00
71.0598 214.00
71.364 183.00
71.6683 237.00
71.9725 195.00
72.2768 193.00
72.5811 237.00
72.8853 223.00
73.1896 214.00
73.4938 213.00
73.7981 233.00
74.1024 216.00
74.4066 224.00
74.7109 206.00
75.0151 198.00
75.3194 250.00
75.6237 240.00
75.9279 228.00
76.2322 273.00
76.5364 204.00
76.8407 242.00
77.145 257.00
77.4492 240.00
77.7535 245.00
78.0577 227.00
78.362 240.00
78.6663 261.00
78.9705 267.00
79.2748 279.00
79.579 262.00
79.8833 246.00
80.1876 273.00
80.4918 259.00
80.7961 236.00
81.1003 284.00
81.4046 236.00
81.7089 235.00
82.0131 279.00
82.3174 224.00
82.6217 248.00
82.9259 250.00
83.2302 200.00
83.5344 235.00
83.8387 233.00
84.143 228.00
84.4472 215.00
84.7515 232.00
85.0557 236.00
85.36 270.00
85.6643 198.00
85.9685 235.00
86.2728 224.00
86.577 205.00
86.8813 189.00
87.1856 199.00
87.4898 222.00
87.7941 228.00
88.0983 199.00
88.4026 178.00
88.7069 170.00
89.0111 213.00
89.3154 191.00
89.6196 186.00
89.9239 176.00
90.2282 207.00
90.5324 183.00
90.8367 210.00
91.1409 227.00
91.4452 178.00
91.7495 206.00
92.0537 180.00
92.358 194.00
92.6622 193.00
92.9665 180.00
93.2708 201.00
93.575 195.00
93.8793 210.00
94.1835 216.00
94.4878 200.00
94.7921 190.00
95.0963 174.00
95.4006 175.00
95.7048 168.00
96.0091 178.00
96.3134 190.00
96.6176 178.00
96.9219 176.00
97.2261 169.00
97.5304 199.00
97.8347 199.00
98.1389 208.00
98.4432 158.00
98.7474 207.00
99.0517 193.00
99.356 191.00
99.6602 187.00
99.9645 198.00
100.095 202.00

File: PG_1935-1.xy
9.903433 2514.00
10.2077 2453.00
10.512 2360.00
10.8162 2231.00
11.1205 2186.00
11.4247 2073.00
11.729 1968.00
12.0333 1850.00
12.3375 1817.00
12.6418 1775.00
12.946 1638.00
13.2503 1624.00
13.5546 1590.00
13.8588 1486.00
14.1631 1506.00
14.4673 1393.00
14.7716 1415.00
15.0759 1388.00
15.3801 1333.00
15.6844 1263.00
15.9886 1261.00
16.2929 1292.00
16.5972 1191.00
16.9014 1143.00
17.2057 1199.00
17.5099 1020.00
17.8142 1138.00
18.1185 1064.00
18.4227 1100.00
18.727 1074.00
19.0312 1057.00
19.3355 1016.00
19.6398 976.00
19.944 998.00
20.2483 923.00
20.5525 933.00
20.8568 919.00
21.1611 836.00
21.4653 857.00
21.7696 848.00
22.0738 888.00
22.3781 828.00
22.6824 801.00
22.9866 823.00
23.2909 764.00
23.5951 823.00
23.8994 780.00
24.2037 754.00
24.5079 709.00
24.8122 700.00
25.1164 785.00
25.4207 714.00
25.725 677.00
26.0292 657.00
26.3335 684.00
26.6378 689.00
26.942 711.00
27.2463 698.00
27.5505 706.00
27.8548 1302.00
28.1591 699.00
28.4633 643.00
28.7676 606.00
29.0718 580.00
29.3761 558.00
29.6804 602.00
29.9846 623.00
30.2889 561.00
30.5931 593.00
30.8974 587.00
31.2017 567.00
31.5059 578.00
31.8102 544.00
32.1144 542.00
32.4187 584.00
32.723 509.00
33.0272 486.00
33.3315 500.00
33.6357 499.00
33.94 430.00
34.2443 474.00
34.5485 417.00
34.8528 518.00
35.157 480.00
35.4613 461.00
35.7656 422.00
36.0698 449.00
36.3741 451.00
36.6783 404.00
36.9826 432.00
37.2869 433.00
37.5911 377.00
37.8954 409.00
38.1996 383.00
38.5039 397.00
38.8082 372.00
39.1124 370.00
39.4167 361.00
39.7209 360.00
40.0252 377.00
40.3295 353.00
40.6337 379.00
40.938 366.00
41.2422 392.00
41.5465 333.00
41.8508 347.00
42.155 339.00
42.4593 300.00
42.7635 353.00
43.0678 391.00
43.3721 300.00
43.6763 342.00
43.9806 334.00
44.2849 291.00
44.5891 334.00
44.8934 334.00
45.1976 326.00
45.5019 305.00
45.8062 313.00
46.1104 443.00
46.4147 337.00
46.7189 365.00
47.0232 357.00
47.3275 281.00
47.6317 273.00
47.936 314.00
48.2402 311.00
48.5445 268.00
48.8488 299.00
49.153 271.00
49.4573 271.00
49.7615 276.00
50.0658 293.00
50.3701 289.00
50.6743 288.00
50.9786 289.00
51.2828 288.00
51.5871 256.00
51.8914 288.00
52.1956 299.00
52.4999 275.00
52.8041 298.00
53.1084 204.00
53.4127 290.00
53.7169 246.00
54.0212 295.00
54.3254 273.00
54.6297 269.00
54.934 261.00
55.2382 268.00
55.5425 313.00
55.8467 263.00
56.151 267.00
56.4553 283.00
56.7595 210.00
57.0638 240.00
57.368 234.00
57.6723 279.00
57.9766 228.00
58.2808 246.00
58.5851 234.00
58.8893 226.00
59.1936 215.00
59.4979 229.00
59.8021 228.00
60.1064 248.00
60.4106 225.00
60.7149 207.00
61.0192 233.00
61.3234 192.00
61.6277 222.00
61.932 208.00
62.2362 204.00
62.5405 237.00
62.8447 223.00
63.149 221.00
63.4533 218.00
63.7575 200.00
64.0618 193.00
64.366 211.00
64.6703 192.00
64.9745 194.00
65.2788 207.00
65.5831 192.00
65.8873 172.00
66.1916 231.00
66.4959 212.00
66.8001 195.00
67.1044 186.00
67.4086 193.00
67.7129 199.00
68.0172 208.00
68.3214 197.00
68.6257 195.00
68.9299 188.00
69.2342 183.00
69.5385 194.00
69.8427 204.00
70.147 181.00
70.4512 187.00
70.7555 209.00
71.0598 196.00
71.364 202.00
71.6683 196.00
71.9725 199.00
72.2768 219.00
72.5811 198.00
72.8853 213.00
73.1896 208.00
73.4938 202.00
73.7981 202.00
74.1024 204.00
74.4066 226.00
74.7109 230.00
75.0151 207.00
75.3194 226.00
75.6237 256.00
75.9279 196.00
76.2322 220.00
76.5364 217.00
76.8407 212.00
77.145 247.00
77.4492 232.00
77.7535 183.00
78.0577 236.00
78.362 211.00
78.6663 195.00
78.9705 238.00
79.2748 237.00
79.579 226.00
79.8833 249.00
80.1876 200.00
80.4918 225.00
80.7961 219.00
81.1003 257.00
81.4046 231.00
81.7089 265.00
82.0131 268.00
82.3174 233.00
82.6217 213.00
82.9259 214.00
83.2302 208.00
83.5344 235.00
83.8387 226.00
84.143 256.00
84.4472 224.00
84.7515 196.00
85.0557 231.00
85.36 233.00
85.6643 213.00
85.9685 212.00
86.2728 202.00
86.577 213.00
86.8813 202.00
87.1856 215.00
87.4898 211.00
87.7941 211.00
88.0983 179.00
88.4026 193.00
88.7069 218.00
89.0111 194.00
89.3154 221.00
89.6196 171.00
89.9239 173.00
90.2282 169.00
90.5324 184.00
90.8367 226.00
91.1409 196.00
91.4452 172.00
91.7495 204.00
92.0537 187.00
92.358 177.00
92.6622 204.00
92.9665 190.00
93.2708 180.00
93.575 187.00
93.8793 201.00
94.1835 188.00
94.4878 197.00
94.7921 168.00
95.0963 174.00
95.4006 183.00
95.7048 208.00
96.0091 189.00
96.3134 214.00
96.6176 198.00
96.9219 217.00
97.2261 194.00
97.5304 167.00
97.8347 195.00
98.1389 196.00
98.4432 184.00
98.7474 192.00
99.0517 209.00
99.356 205.00
99.6602 193.00
99.9645 171.00
100.095 180.00

File: PG_1938-1.xy
9.903433 3780.00
10.2077 3938.00
10.512 4050.00
10.8162 3882.00
11.1205 3939.00
11.4247 3153.00
11.729 2953.00
12.0333 2829.00
12.3375 2871.00
12.6418 2797.00
12.946 2639.00
13.2503 2477.00
13.5546 2471.00
13.8588 2358.00
14.1631 2402.00
14.4673 2310.00
14.7716 2369.00
15.0759 2302.00
15.3801 2270.00
15.6844 2217.00
15.9886 2237.00
16.2929 2223.00
16.5972 2127.00
16.9014 2065.00
17.2057 2160.00
17.5099 2219.00
17.8142 2210.00
18.1185 1983.00
18.4227 2026.00
18.727 2018.00
19.0312 1982.00
19.3355 1979.00
19.6398 1963.00
19.944 1966.00
20.2483 1911.00
20.5525 2076.00
20.8568 2042.00
21.1611 1975.00
21.4653 1980.00
21.7696 2071.00
22.0738 1988.00
22.3781 2333.00
22.6824 2929.00
22.9866 5463.00
23.2909 2416.00
23.5951 2184.00
23.8994 2279.00
24.2037 2075.00
24.5079 2202.00
24.8122 2316.00
25.1164 2207.00
25.4207 2319.00
25.725 2363.00
26.0292 2272.00
26.3335 2262.00
26.6378 2395.00
26.942 2374.00
27.2463 2605.00
27.5505 2638.00
27.8548 2852.00
28.1591 2970.00
28.4633 3347.00
28.7676 7283.00
29.0718 3666.00
29.3761 4475.00
29.6804 2811.00
29.9846 2654.00
30.2889 2677.00
30.5931 3568.00
30.8974 2795.00
31.2017 2848.00
31.5059 2728.00
31.8102 4156.00
32.1144 4281.00
32.4187 2195.00
32.723 2070.00
33.0272 1945.00
33.3315 2036.00
33.6357 1947.00
33.94 1909.00
34.2443 2006.00
34.5485 2101.00
34.8528 1992.00
35.157 1845.00
35.4613 1818.00
35.7656 1993.00
36.0698 2155.00
36.3741 1965.00
36.6783 2047.00
36.9826 3972.00
37.2869 2252.00
37.5911 2346.00
37.8954 1905.00
38.1996 1897.00
38.5039 1763.00
38.8082 1699.00
39.1124 1698.00
39.4167 1790.00
39.7209 1967.00
40.0252 1638.00
40.3295 1661.00
40.6337 1707.00
40.938 1772.00
41.2422 1795.00
41.5465 1578.00
41.8508 1578.00
42.155 1625.00
42.4593 1702.00
42.7635 1741.00
43.0678 1931.00
43.3721 1711.00
43.6763 1688.00
43.9806 1587.00
44.2849 1626.00
44.5891 1837.00
44.8934 1981.00
45.1976 1913.00
45.5019 2830.00
45.8062 2083.00
46.1104 1840.00
46.4147 2081.00
46.7189 2518.00
47.0232 1934.00
47.3275 1638.00
47.6317 1701.00
47.936 1777.00
48.2402 1651.00
48.5445 1602.00
48.8488 1715.00
49.153 1740.00
49.4573 1710.00
49.7615 1955.00
50.0658 2013.00
50.3701 2243.00
50.6743 1829.00
50.9786 1974.00
51.2828 2708.00
51.5871 2206.00
51.8914 1673.00
52.1956 1698.00
52.4999 1781.00
52.8041 1719.00
53.1084 1611.00
53.4127 1633.00
53.7169 1577.00
54.0212 1524.00
54.3254 1633.00
54.6297 1570.00
54.934 1659.00
55.2382 1827.00
55.5425 2483.00
55.8467 2534.00
56.151 1965.00
56.4553 2471.00
56.7595 2712.00
57.0638 1957.00
57.368 1663.00
57.6723 1636.00
57.9766 1658.00
58.2808 1673.00
58.5851 1660.00
58.8893 1817.00
59.1936 1962.00
59.4979 1752.00
59.8021 1554.00
60.1064 1663.00
60.4106 1696.00
60.7149 1603.00
61.0192 1678.00
61.3234 1674.00
61.6277 1611.00
61.932 1615.00
62.2362 1505.00
62.5405 1608.00
62.8447 1590.00
63.149 1529.00
63.4533 1639.00
63.7575 1654.00
64.0618 1827.00
64.366 1645.00
64.6703 1512.00
64.9745 1502.00
65.2788 1596.00
65.5831 1620.00
65.8873 1676.00
66.1916 1830.00
66.4959 1677.00
66.8001 1582.00
67.1044 1566.00
67.4086 1445.00
67.7129 1472.00
68.0172 1513.00
68.3214 1413.00
68.6257 1479.00
68.9299 1422.00
69.2342 1499.00
69.5385 1375.00
69.8427 1446.00
70.147 1363.00
70.4512 1608.00
70.7555 1575.00
71.0598 1495.00
71.364 1593.00
71.6683 1679.00
71.9725 1449.00
72.2768 1349.00
72.5811 1439.00
72.8853 1362.00
73.1896 1191.00
73.4938 1370.00
73.7981 1455.00
74.1024 1365.00
74.4066 1291.00
74.7109 1391.00
75.0151 1489.00
75.3194 1505.00
75.6237 1422.00
75.9279 1394.00
76.2322 1301.00
76.5364 1392.00
76.8407 1370.00
77.145 1311.00
77.4492 1394.00
77.7535 1414.00
78.0577 1519.00
78.362 1394.00
78.6663 1403.00
78.9705 1403.00
79.2748 1451.00
79.579 1398.00
79.8833 1372.00
80.1876 1372.00
80.4918 1389.00
80.7961 1436.00
81.1003 1403.00
81.4046 1365.00
81.7089 1308.00
82.0131 1365.00
82.3174 1362.00
82.6217 1315.00
82.9259 1377.00
83.2302 1319.00
83.5344 1332.00
83.8387 1368.00
84.143 1339.00
84.4472 1282.00
84.7515 1351.00
85.0557 1381.00
85.36 1331.00
85.6643 1316.00
85.9685 1228.00
86.2728 1338.00
86.577 1312.00
86.8813 1300.00
87.1856 1329.00
87.4898 1361.00
87.7941 1332.00
88.0983 1446.00
88.4026 1295.00
88.7069 1306.00
89.0111 1236.00
89.3154 1338.00
89.6196 1276.00
89.9239 1320.00
90.2282 1294.00
90.5324 1413.00
90.8367 1256.00
91.1409 1279.00
91.4452 1253.00
91.7495 1430.00
92.0537 1435.00
92.358 1435.00
92.6622 1346.00
92.9665 1286.00
93.2708 1372.00
93.575 1323.00
93.8793 1338.00
94.1835 1352.00
94.4878 1396.00
94.7921 1401.00
95.0963 1383.00
95.4006 1300.00
95.7048 1346.00
96.0091 1254.00
96.3134 1347.00
96.6176 1283.00
96.9219 1234.00
97.2261 1321.00
97.5304 1261.00
97.8347 1310.00
98.1389 1334.00
98.4432 1376.00
98.7474 1278.00
99.0517 1299.00
99.356 1372.00
99.6602 1320.00
99.9645 1337.00
100.095 1340.00

File: PG_1939-1.xy
9.903433 3040.00
10.2077 2919.00
10.512 2906.00
10.8162 2864.00
11.1205 2746.00
11.4247 2736.00
11.729 2644.00
12.0333 2609.00
12.3375 2614.00
12.6418 2611.00
12.946 2994.00
13.2503 2594.00
13.5546 2393.00
13.8588 2441.00
14.1631 2426.00
14.4673 2440.00
14.7716 2305.00
15.0759 2373.00
15.3801 2260.00
15.6844 2266.00
15.9886 2255.00
16.2929 2230.00
16.5972 2211.00
16.9014 2151.00
17.2057 2257.00
17.5099 2273.00
17.8142 2148.00
18.1185 2147.00
18.4227 2176.00
18.727 2110.00
19.0312 2145.00
19.3355 2108.00
19.6398 2081.00
19.944 2108.00
20.2483 2053.00
20.5525 2049.00
20.8568 2015.00
21.1611 2033.00
21.4653 2100.00
21.7696 2052.00
22.0738 1939.00
22.3781 2003.00
22.6824 1977.00
22.9866 2034.00
23.2909 2300.00
23.5951 1976.00
23.8994 2014.00
24.2037 1948.00
24.5079 1927.00
24.8122 1910.00
25.1164 2034.00
25.4207 1941.00
25.725 2153.00
26.0292 2161.00
26.3335 1884.00
26.6378 2073.00
26.942 2001.00
27.2463 1963.00
27.5505 1900.00
27.8548 1763.00
28.1591 1936.00
28.4633 1912.00
28.7676 2139.00
29.0718 1896.00
29.3761 1852.00
29.6804 2462.00
29.9846 2591.00
30.2889 1946.00
30.5931 2102.00
30.8974 3750.00
31.2017 1999.00
31.5059 2122.00
31.8102 3312.00
32.1144 2553.00
32.4187 4219.00
32.723 3993.00
33.0272 2152.00
33.3315 1772.00
33.6357 1931.00
33.94 1890.00
34.2443 1956.00
34.5485 1824.00
34.8528 1819.00
35.157 2032.00
35.4613 1938.00
35.7656 1830.00
36.0698 1880.00
36.3741 2416.00
36.6783 1861.00
36.9826 2038.00
37.2869 5437.00
37.5911 4067.00
37.8954 2051.00
38.1996 2281.00
38.5039 2162.00
38.8082 2744.00
39.1124 2806.00
39.4167 2064.00
39.7209 2073.00
40.0252 2249.00
40.3295 1900.00
40.6337 2039.00
40.938 1769.00
41.2422 2019.00
41.5465 2475.00
41.8508 2257.00
42.155 1989.00
42.4593 1978.00
42.7635 1871.00
43.0678 2364.00
43.3721 9894.00
43.6763 4385.00
43.9806 1861.00
44.2849 1829.00
44.5891 1799.00
44.8934 1855.00
45.1976 2010.00
45.5019 1784.00
45.8062 1735.00
46.1104 1745.00
46.4147 1862.00
46.7189 1863.00
47.0232 1844.00
47.3275 1839.00
47.6317 1886.00
47.936 1877.00
48.2402 1879.00
48.5445 1828.00
48.8488 1904.00
49.153 1775.00
49.4573 2068.00
49.7615 2153.00
50.0658 1888.00
50.3701 1735.00
50.6743 1852.00
50.9786 1946.00
51.2828 1891.00
51.5871 2162.00
51.8914 1880.00
52.1956 1925.00
52.4999 1975.00
52.8041 1874.00
53.1084 1756.00
53.4127 1808.00
53.7169 1832.00
54.0212 1898.00
54.3254 1809.00
54.6297 1826.00
54.934 1678.00
55.2382 1770.00
55.5425 1966.00
55.8467 1922.00
56.151 1793.00
56.4553 1718.00
56.7595 1750.00
57.0638 1858.00
57.368 1880.00
57.6723 2055.00
57.9766 1836.00
58.2808 1813.00
58.5851 1694.00
58.8893 1754.00
59.1936 1722.00
59.4979 1765.00
59.8021 1759.00
60.1064 1761.00
60.4106 1732.00
60.7149 1808.00
61.0192 1901.00
61.3234 1796.00
61.6277 1764.00
61.932 1784.00
62.2362 1804.00
62.5405 1963.00
62.8447 3882.00
63.149 5203.00
63.4533 2193.00
63.7575 1839.00
64.0618 1791.00
64.366 1800.00
64.6703 1836.00
64.9745 1874.00
65.2788 1798.00
65.5831 1802.00
65.8873 1858.00
66.1916 1847.00
66.4959 1806.00
66.8001 1856.00
67.1044 1877.00
67.4086 1912.00
67.7129 1883.00
68.0172 1748.00
68.3214 1843.00
68.6257 1770.00
68.9299 1833.00
69.2342 1820.00
69.5385 1845.00
69.8427 1812.00
70.147 1909.00
70.4512 1843.00
70.7555 1921.00
71.0598 1923.00
71.364 1813.00
71.6683 1826.00
71.9725 1855.00
72.2768 1816.00
72.5811 1887.00
72.8853 1894.00
73.1896 1846.00
73.4938 1791.00
73.7981 1900.00
74.1024 1851.00
74.4066 1766.00
74.7109 1844.00
75.0151 1893.00
75.3194 2394.00
75.6237 3316.00
75.9279 2258.00
76.2322 1821.00
76.5364 1838.00
76.8407 1862.00
77.145 1834.00
77.4492 1847.00
77.7535 1862.00
78.0577 1828.00
78.362 1789.00
78.6663 1874.00
78.9705 2009.00
79.2748 2109.00
79.579 2769.00
79.8833 2058.00
80.1876 1951.00
80.4918 1927.00
80.7961 1847.00
81.1003 1901.00
81.4046 1888.00
81.7089 1962.00
82.0131 1943.00
82.3174 1860.00
82.6217 1870.00
82.9259 1764.00
83.2302 1851.00
83.5344 1849.00
83.8387 1849.00
84.143 1951.00
84.4472 1835.00
84.7515 1885.00
85.0557 1894.00
85.36 1759.00
85.6643 1815.00
85.9685 1811.00
86.2728 1874.00
86.577 1886.00
86.8813 1904.00
87.1856 1879.00
87.4898 1834.00
87.7941 1934.00
88.0983 1786.00
88.4026 1897.00
88.7069 1901.00
89.0111 1793.00
89.3154 1864.00
89.6196 1895.00
89.9239 1977.00
90.2282 1844.00
90.5324 1854.00
90.8367 1914.00
91.1409 1875.00
91.4452 1838.00
91.7495 1892.00
92.0537 1864.00
92.358 1881.00
92.6622 1811.00
92.9665 1920.00
93.2708 1886.00
93.575 1852.00
93.8793 1874.00
94.1835 2000.00
94.4878 1922.00
94.7921 1960.00
95.0963 2292.00
95.4006 2260.00
95.7048 1919.00
96.0091 1955.00
96.3134 1942.00
96.6176 1860.00
96.9219 1831.00
97.2261 1875.00
97.5304 1842.00
97.8347 1863.00
98.1389 1918.00
98.4432 1883.00
98.7474 1894.00
99.0517 1882.00
99.356 1877.00
99.6602 1978.00
99.9645 1908.00
100.095 1912.00