Folder: alab-pipeline/data/xrd_creation/results (part 107)

File: PG_2548-1.xy
9.903433 2823.00
10.2077 2646.00
10.512 2526.00
10.8162 2445.00
11.1205 2268.00
11.4247 2242.00
11.729 2190.00
12.0333 2008.00
12.3375 1950.00
12.6418 1890.00
12.946 1863.00
13.2503 1786.00
13.5546 1744.00
13.8588 1644.00
14.1631 1682.00
14.4673 1703.00
14.7716 1615.00
15.0759 1635.00
15.3801 1811.00
15.6844 3143.00
15.9886 1587.00
16.2929 1542.00
16.5972 1457.00
16.9014 1456.00
17.2057 1354.00
17.5099 1407.00
17.8142 1401.00
18.1185 1309.00
18.4227 1351.00
18.727 1353.00
19.0312 1272.00
19.3355 1250.00
19.6398 1222.00
19.944 1364.00
20.2483 1739.00
20.5525 5930.00
20.8568 1387.00
21.1611 1276.00
21.4653 1246.00
21.7696 1589.00
22.0738 2283.00
22.3781 1155.00
22.6824 1095.00
22.9866 1035.00
23.2909 1134.00
23.5951 1022.00
23.8994 1014.00
24.2037 965.00
24.5079 959.00
24.8122 1000.00
25.1164 919.00
25.4207 1005.00
25.725 1045.00
26.0292 1095.00
26.3335 3487.00
26.6378 1073.00
26.942 895.00
27.2463 890.00
27.5505 887.00
27.8548 889.00
28.1591 885.00
28.4633 915.00
28.7676 879.00
29.0718 863.00
29.3761 981.00
29.6804 904.00
29.9846 790.00
30.2889 792.00
30.5931 728.00
30.8974 871.00
31.2017 3077.00
31.5059 1110.00
31.8102 751.00
32.1144 757.00
32.4187 960.00
32.723 1821.00
33.0272 831.00
33.3315 775.00
33.6357 1110.00
33.94 690.00
34.2443 712.00
34.5485 2226.00
34.8528 669.00
35.157 638.00
35.4613 590.00
35.7656 605.00
36.0698 672.00
36.3741 720.00
36.6783 639.00
36.9826 585.00
37.2869 873.00
37.5911 718.00
37.8954 562.00
38.1996 565.00
38.5039 570.00
38.8082 566.00
39.1124 645.00
39.4167 561.00
39.7209 541.00
40.0252 524.00
40.3295 522.00
40.6337 576.00
40.938 569.00
41.2422 665.00
41.5465 1342.00
41.8508 648.00
42.155 722.00
42.4593 745.00
42.7635 644.00
43.0678 2802.00
43.3721 1235.00
43.6763 610.00
43.9806 521.00
44.2849 516.00
44.5891 601.00
44.8934 495.00
45.1976 485.00
45.5019 644.00
45.8062 996.00
46.1104 503.00
46.4147 536.00
46.7189 510.00
47.0232 555.00
47.3275 573.00
47.6317 1523.00
47.936 756.00
48.2402 860.00
48.5445 524.00
48.8488 631.00
49.153 956.00
49.4573 546.00
49.7615 590.00
50.0658 529.00
50.3701 468.00
50.6743 488.00
50.9786 469.00
51.2828 658.00
51.5871 1166.00
51.8914 519.00
52.1956 929.00
52.4999 580.00
52.8041 560.00
53.1084 468.00
53.4127 437.00
53.7169 465.00
54.0212 562.00
54.3254 423.00
54.6297 465.00
54.934 434.00
55.2382 455.00
55.5425 487.00
55.8467 895.00
56.151 487.00
56.4553 574.00
56.7595 469.00
57.0638 419.00
57.368 448.00
57.6723 421.00
57.9766 441.00
58.2808 488.00
58.5851 533.00
58.8893 603.00
59.1936 750.00
59.4979 518.00
59.8021 457.00
60.1064 502.00
60.4106 572.00
60.7149 497.00
61.0192 537.00
61.3234 1108.00
61.6277 538.00
61.932 491.00
62.2362 1033.00
62.5405 3141.00
62.8447 635.00
63.149 387.00
63.4533 438.00
63.7575 412.00
64.0618 416.00
64.366 453.00
64.6703 579.00
64.9745 529.00
65.2788 497.00
65.5831 446.00
65.8873 399.00
66.1916 535.00
66.4959 581.00
66.8001 408.00
67.1044 411.00
67.4086 385.00
67.7129 430.00
68.0172 577.00
68.3214 453.00
68.6257 545.00
68.9299 519.00
69.2342 528.00
69.5385 460.00
69.8427 594.00
70.147 492.00
70.4512 582.00
70.7555 567.00
71.0598 422.00
71.364 425.00
71.6683 430.00
71.9725 555.00
72.2768 547.00
72.5811 686.00
72.8853 721.00
73.1896 520.00
73.4938 403.00
73.7981 389.00
74.1024 402.00
74.4066 447.00
74.7109 690.00
75.0151 627.00
75.3194 404.00
75.6237 385.00
75.9279 414.00
76.2322 594.00
76.5364 435.00
76.8407 423.00
77.145 346.00
77.4492 440.00
77.7535 452.00
78.0577 417.00
78.362 571.00
78.6663 593.00
78.9705 640.00
79.2748 412.00
79.579 369.00
79.8833 367.00
80.1876 349.00
80.4918 371.00
80.7961 325.00
81.1003 367.00
81.4046 432.00
81.7089 418.00
82.0131 383.00
82.3174 385.00
82.6217 366.00
82.9259 449.00
83.2302 432.00
83.5344 369.00
83.8387 355.00
84.143 407.00
84.4472 446.00
84.7515 409.00
85.0557 431.00
85.36 433.00
85.6643 446.00
85.9685 368.00
86.2728 417.00
86.577 388.00
86.8813 468.00
87.1856 467.00
87.4898 387.00
87.7941 369.00
88.0983 396.00
88.4026 419.00
88.7069 490.00
89.0111 432.00
89.3154 403.00
89.6196 374.00
89.9239 401.00
90.2282 402.00
90.5324 410.00
90.8367 446.00
91.1409 444.00
91.4452 418.00
91.7495 374.00
92.0537 342.00
92.358 361.00
92.6622 400.00
92.9665 423.00
93.2708 424.00
93.575 478.00
93.8793 439.00
94.1835 578.00
94.4878 550.00
94.7921 377.00
95.0963 405.00
95.4006 436.00
95.7048 447.00
96.0091 384.00
96.3134 374.00
96.6176 371.00
96.9219 387.00
97.2261 430.00
97.5304 385.00
97.8347 367.00
98.1389 384.00
98.4432 408.00
98.7474 387.00
99.0517 361.00
99.356 430.00
99.6602 429.00
99.9645 462.00
100.095 458.00

File: PG_2549-1.xy
9.903433 2476.00
10.2077 2447.00
10.512 2360.00
10.8162 2141.00
11.1205 2109.00
11.4247 1941.00
11.729 1964.00
12.0333 1776.00
12.3375 1796.00
12.6418 1705.00
12.946 1605.00
13.2503 1569.00
13.5546 1562.00
13.8588 1521.00
14.1631 1464.00
14.4673 1473.00
14.7716 1477.00
15.0759 1465.00
15.3801 1428.00
15.6844 1944.00
15.9886 3157.00
16.2929 1319.00
16.5972 1221.00
16.9014 1305.00
17.2057 1256.00
17.5099 1224.00
17.8142 1126.00
18.1185 1192.00
18.4227 1260.00
18.727 1484.00
19.0312 4135.00
19.3355 4270.00
19.6398 1178.00
19.944 1081.00
20.2483 1091.00
20.5525 1050.00
20.8568 1024.00
21.1611 1021.00
21.4653 948.00
21.7696 969.00
22.0738 974.00
22.3781 933.00
22.6824 960.00
22.9866 1026.00
23.2909 1916.00
23.5951 1404.00
23.8994 5576.00
24.2037 18867.00
24.5079 2322.00
24.8122 4059.00
25.1164 1362.00
25.4207 961.00
25.725 836.00
26.0292 866.00
26.3335 870.00
26.6378 828.00
26.942 1386.00
27.2463 751.00
27.5505 731.00
27.8548 803.00
28.1591 735.00
28.4633 701.00
28.7676 884.00
29.0718 993.00
29.3761 955.00
29.6804 707.00
29.9846 856.00
30.2889 878.00
30.5931 2338.00
30.8974 10683.00
31.2017 10361.00
31.5059 1033.00
31.8102 4449.00
32.1144 808.00
32.4187 664.00
32.723 647.00
33.0272 724.00
33.3315 1031.00
33.6357 1604.00
33.94 1774.00
34.2443 1366.00
34.5485 1805.00
34.8528 822.00
35.157 594.00
35.4613 584.00
35.7656 725.00
36.0698 708.00
36.3741 762.00
36.6783 4514.00
36.9826 1820.00
37.2869 3555.00
37.5911 700.00
37.8954 504.00
38.1996 545.00
38.5039 963.00
38.8082 1423.00
39.1124 474.00
39.4167 531.00
39.7209 494.00
40.0252 636.00
40.3295 595.00
40.6337 516.00
40.938 613.00
41.2422 1147.00
41.5465 3334.00
41.8508 7549.00
42.155 1652.00
42.4593 629.00
42.7635 508.00
43.0678 752.00
43.3721 876.00
43.6763 521.00
43.9806 498.00
44.2849 551.00
44.5891 1516.00
44.8934 1063.00
45.1976 810.00
45.5019 690.00
45.8062 2824.00
46.1104 1698.00
46.4147 1250.00
46.7189 462.00
47.0232 426.00
47.3275 424.00
47.6317 734.00
47.936 433.00
48.2402 761.00
48.5445 1333.00
48.8488 533.00
49.153 2148.00
49.4573 679.00
49.7615 436.00
50.0658 715.00
50.3701 1179.00
50.6743 2107.00
50.9786 1388.00
51.2828 522.00
51.5871 411.00
51.8914 532.00
52.1956 1001.00
52.4999 2993.00
52.8041 662.00
53.1084 1068.00
53.4127 1496.00
53.7169 2142.00
54.0212 3353.00
54.3254 2047.00
54.6297 4585.00
54.934 804.00
55.2382 688.00
55.5425 904.00
55.8467 1139.00
56.151 1063.00
56.4553 1141.00
56.7595 484.00
57.0638 543.00
57.368 588.00
57.6723 429.00
57.9766 397.00
58.2808 446.00
58.5851 724.00
58.8893 1135.00
59.1936 574.00
59.4979 849.00
59.8021 434.00
60.1064 501.00
60.4106 597.00
60.7149 592.00
61.0192 480.00
61.3234 539.00
61.6277 681.00
61.932 2589.00
62.2362 2094.00
62.5405 3225.00
62.8447 863.00
63.149 618.00
63.4533 1383.00
63.7575 1419.00
64.0618 521.00
64.366 1043.00
64.6703 2207.00
64.9745 892.00
65.2788 2726.00
65.5831 2014.00
65.8873 3140.00
66.1916 888.00
66.4959 548.00
66.8001 477.00
67.1044 435.00
67.4086 429.00
67.7129 394.00
68.0172 445.00
68.3214 393.00
68.6257 586.00
68.9299 1388.00
69.2342 1554.00
69.5385 865.00
69.8427 440.00
70.147 453.00
70.4512 373.00
70.7555 472.00
71.0598 533.00
71.364 896.00
71.6683 965.00
71.9725 1164.00
72.2768 2024.00
72.5811 1030.00
72.8853 976.00
73.1896 565.00
73.4938 541.00
73.7981 463.00
74.1024 442.00
74.4066 600.00
74.7109 374.00
75.0151 927.00
75.3194 588.00
75.6237 704.00
75.9279 655.00
76.2322 407.00
76.5364 463.00
76.8407 500.00
77.145 712.00
77.4492 522.00
77.7535 550.00
78.0577 358.00
78.362 590.00
78.6663 562.00
78.9705 479.00
79.2748 531.00
79.579 806.00
79.8833 1128.00
80.1876 582.00
80.4918 592.00
80.7961 598.00
81.1003 870.00
81.4046 629.00
81.7089 1181.00
82.0131 1352.00
82.3174 1106.00
82.6217 908.00
82.9259 499.00
83.2302 599.00
83.5344 455.00
83.8387 403.00
84.143 329.00
84.4472 382.00
84.7515 371.00
85.0557 363.00
85.36 386.00
85.6643 441.00
85.9685 523.00
86.2728 683.00
86.577 526.00
86.8813 674.00
87.1856 784.00
87.4898 871.00
87.7941 710.00
88.0983 451.00
88.4026 524.00
88.7069 1133.00
89.0111 1110.00
89.3154 660.00
89.6196 635.00
89.9239 541.00
90.2282 505.00
90.5324 990.00
90.8367 1036.00
91.1409 623.00
91.4452 951.00
91.7495 1024.00
92.0537 748.00
92.358 507.00
92.6622 405.00
92.9665 521.00
93.2708 708.00
93.575 576.00
93.8793 541.00
94.1835 663.00
94.4878 516.00
94.7921 695.00
95.0963 735.00
95.4006 621.00
95.7048 441.00
96.0091 343.00
96.3134 419.00
96.6176 587.00
96.9219 804.00
97.2261 767.00
97.5304 670.00
97.8347 658.00
98.1389 684.00
98.4432 442.00
98.7474 352.00
99.0517 482.00
99.356 604.00
99.6602 723.00
99.9645 927.00
100.095 1017.00

File: PG_2550-1.xy
9.903433 3092.00
10.2077 2904.00
10.512 2741.00
10.8162 2712.00
11.1205 2632.00
11.4247 2536.00
11.729 2533.00
12.0333 2538.00
12.3375 2378.00
12.6418 2368.00
12.946 2343.00
13.2503 2211.00
13.5546 2214.00
13.8588 2196.00
14.1631 2294.00
14.4673 2301.00
14.7716 2259.00
15.0759 2185.00
15.3801 2238.00
15.6844 2159.00
15.9886 2153.00
16.2929 2119.00
16.5972 2152.00
16.9014 2078.00
17.2057 2044.00
17.5099 2030.00
17.8142 2037.00
18.1185 1972.00
18.4227 1955.00
18.727 1870.00
19.0312 1826.00
19.3355 1922.00
19.6398 1933.00
19.944 1884.00
20.2483 1902.00
20.5525 2423.00
20.8568 6689.00
21.1611 1937.00
21.4653 1799.00
21.7696 1833.00
22.0738 1769.00
22.3781 1770.00
22.6824 1772.00
22.9866 1882.00
23.2909 1768.00
23.5951 1699.00
23.8994 1724.00
24.2037 1750.00
24.5079 1647.00
24.8122 1678.00
25.1164 1561.00
25.4207 1682.00
25.725 1647.00
26.0292 1614.00
26.3335 1620.00
26.6378 1816.00
26.942 1634.00
27.2463 1745.00
27.5505 1607.00
27.8548 1697.00
28.1591 1702.00
28.4633 1892.00
28.7676 2161.00
29.0718 3152.00
29.3761 25248.00
29.6804 5301.00
29.9846 2157.00
30.2889 1890.00
30.5931 1890.00
30.8974 1801.00
31.2017 1692.00
31.5059 1748.00
31.8102 1857.00
32.1144 1668.00
32.4187 1566.00
32.723 1572.00
33.0272 1670.00
33.3315 1738.00
33.6357 1929.00
33.94 3951.00
34.2443 5014.00
34.5485 1774.00
34.8528 1595.00
35.157 1592.00
35.4613 1576.00
35.7656 1612.00
36.0698 2173.00
36.3741 2074.00
36.6783 1556.00
36.9826 1592.00
37.2869 2170.00
37.5911 1715.00
37.8954 1544.00
38.1996 2079.00
38.5039 1554.00
38.8082 1527.00
39.1124 1493.00
39.4167 1551.00
39.7209 1568.00
40.0252 2320.00
40.3295 2099.00
40.6337 1543.00
40.938 1466.00
41.2422 1524.00
41.5465 1430.00
41.8508 1616.00
42.155 1555.00
42.4593 1536.00
42.7635 1676.00
43.0678 2817.00
43.3721 4583.00
43.6763 3072.00
43.9806 2289.00
44.2849 1552.00
44.5891 1519.00
44.8934 1460.00
45.1976 1485.00
45.5019 1463.00
45.8062 1484.00
46.1104 1441.00
46.4147 1454.00
46.7189 1573.00
47.0232 1777.00
47.3275 2209.00
47.6317 1503.00
47.936 1618.00
48.2402 1728.00
48.5445 2748.00
48.8488 23884.00
49.153 2389.00
49.4573 1649.00
49.7615 1611.00
50.0658 1620.00
50.3701 2318.00
50.6743 1507.00
50.9786 1520.00
51.2828 1480.00
51.5871 1419.00
51.8914 1662.00
52.1956 1565.00
52.4999 1449.00
52.8041 1470.00
53.1084 1513.00
53.4127 2751.00
53.7169 1983.00
54.0212 1501.00
54.3254 1449.00
54.6297 1526.00
54.934 1851.00
55.2382 1494.00
55.5425 1416.00
55.8467 1450.00
56.151 1627.00
56.4553 3760.00
56.7595 1646.00
57.0638 1487.00
57.368 1640.00
57.6723 2675.00
57.9766 9850.00
58.2808 2062.00
58.5851 1608.00
58.8893 1580.00
59.1936 2344.00
59.4979 3002.00
59.8021 1468.00
60.1064 1462.00
60.4106 1544.00
60.7149 4166.00
61.0192 1636.00
61.3234 1501.00
61.6277 1450.00
61.932 1578.00
62.2362 2110.00
62.5405 4673.00
62.8447 2094.00
63.149 1498.00
63.4533 2146.00
63.7575 1498.00
64.0618 1383.00
64.366 1489.00
64.6703 1736.00
64.9745 2307.00
65.2788 1435.00
65.5831 1441.00
65.8873 1423.00
66.1916 1817.00
66.4959 1381.00
66.8001 1355.00
67.1044 1376.00
67.4086 1456.00
67.7129 1417.00
68.0172 1310.00
68.3214 1349.00
68.6257 1365.00
68.9299 1391.00
69.2342 1409.00
69.5385 1340.00
69.8427 1549.00
70.147 1801.00
70.4512 1371.00
70.7555 1378.00
71.0598 1519.00
71.364 3104.00
71.6683 1612.00
71.9725 1370.00
72.2768 1447.00
72.5811 3225.00
72.8853 1718.00
73.1896 1454.00
73.4938 1424.00
73.7981 1992.00
74.1024 1756.00
74.4066 1386.00
74.7109 1382.00
75.0151 2041.00
75.3194 1907.00
75.6237 1367.00
75.9279 1336.00
76.2322 1483.00
76.5364 1681.00
76.8407 1356.00
77.145 1404.00
77.4492 1684.00
77.7535 2057.00
78.0577 1484.00
78.362 1459.00
78.6663 2071.00
78.9705 2980.00
79.2748 1567.00
79.579 1310.00
79.8833 1393.00
80.1876 1358.00
80.4918 1373.00
80.7961 1293.00
81.1003 1693.00
81.4046 2000.00
81.7089 1475.00
82.0131 1373.00
82.3174 1372.00
82.6217 1432.00
82.9259 1324.00
83.2302 1336.00
83.5344 1368.00
83.8387 1513.00
84.143 1475.00
84.4472 1347.00
84.7515 1515.00
85.0557 1687.00
85.36 1436.00
85.6643 1376.00
85.9685 1363.00
86.2728 1278.00
86.577 1418.00
86.8813 1340.00
87.1856 1529.00
87.4898 1550.00
87.7941 1409.00
88.0983 1370.00
88.4026 1355.00
88.7069 1277.00
89.0111 1307.00
89.3154 1406.00
89.6196 1545.00
89.9239 1704.00
90.2282 1462.00
90.5324 1439.00
90.8367 1964.00
91.1409 2003.00
91.4452 1650.00
91.7495 1413.00
92.0537 1666.00
92.358 1646.00
92.6622 1407.00
92.9665 1338.00
93.2708 1595.00
93.575 1482.00
93.8793 1468.00
94.1835 1660.00
94.4878 1557.00
94.7921 1486.00
95.0963 1394.00
95.4006 1437.00
95.7048 1867.00
96.0091 1742.00
96.3134 1524.00
96.6176 1369.00
96.9219 1485.00
97.2261 1470.00
97.5304 1403.00
97.8347 1332.00
98.1389 2249.00
98.4432 1963.00
98.7474 1509.00
99.0517 1409.00
99.356 1917.00
99.6602 1720.00
99.9645 1404.00
100.095 1432.00

File: PG_2551-1.xy
9.903433 2529.00
10.2077 2392.00
10.512 2365.00
10.8162 2197.00
11.1205 2209.00
11.4247 2006.00
11.729 1956.00
12.0333 1795.00
12.3375 1810.00
12.6418 1784.00
12.946 1763.00
13.2503 1655.00
13.5546 1533.00
13.8588 1580.00
14.1631 1632.00
14.4673 1509.00
14.7716 1478.00
15.0759 1500.00
15.3801 1517.00
15.6844 1427.00
15.9886 1484.00
16.2929 1472.00
16.5972 1462.00
16.9014 1349.00
17.2057 1358.00
17.5099 1254.00
17.8142 1258.00
18.1185 1201.00
18.4227 1266.00
18.727 1228.00
19.0312 1150.00
19.3355 1140.00
19.6398 1172.00
19.944 1142.00
20.2483 1094.00
20.5525 1075.00
20.8568 1147.00
21.1611 1006.00
21.4653 1069.00
21.7696 1081.00
22.0738 972.00
22.3781 983.00
22.6824 979.00
22.9866 926.00
23.2909 933.00
23.5951 898.00
23.8994 961.00
24.2037 898.00
24.5079 876.00
24.8122 942.00
25.1164 863.00
25.4207 820.00
25.725 805.00
26.0292 806.00
26.3335 869.00
26.6378 814.00
26.942 807.00
27.2463 730.00
27.5505 817.00
27.8548 831.00
28.1591 798.00
28.4633 770.00
28.7676 843.00
29.0718 729.00
29.3761 769.00
29.6804 743.00
29.9846 706.00
30.2889 736.00
30.5931 753.00
30.8974 816.00
31.2017 910.00
31.5059 1228.00
31.8102 5860.00
32.1144 13766.00
32.4187 1150.00
32.723 895.00
33.0272 808.00
33.3315 769.00
33.6357 812.00
33.94 855.00
34.2443 1031.00
34.5485 3859.00
34.8528 10786.00
35.157 1060.00
35.4613 917.00
35.7656 1041.00
36.0698 1797.00
36.3741 14788.00
36.6783 11493.00
36.9826 3654.00
37.2869 1652.00
37.5911 834.00
37.8954 752.00
38.1996 702.00
38.5039 736.00
38.8082 719.00
39.1124 631.00
39.4167 689.00
39.7209 671.00
40.0252 620.00
40.3295 628.00
40.6337 575.00
40.938 631.00
41.2422 576.00
41.5465 627.00
41.8508 619.00
42.155 701.00
42.4593 864.00
42.7635 3296.00
43.0678 16285.00
43.3721 1930.00
43.6763 657.00
43.9806 590.00
44.2849 608.00
44.5891 534.00
44.8934 539.00
45.1976 567.00
45.5019 528.00
45.8062 545.00
46.1104 511.00
46.4147 518.00
46.7189 506.00
47.0232 579.00
47.3275 678.00
47.6317 2438.00
47.936 5783.00
48.2402 703.00
48.5445 558.00
48.8488 470.00
49.153 467.00
49.4573 455.00
49.7615 474.00
50.0658 433.00
50.3701 485.00
50.6743 475.00
50.9786 503.00
51.2828 440.00
51.5871 447.00
51.8914 435.00
52.1956 484.00
52.4999 413.00
52.8041 418.00
53.1084 444.00
53.4127 427.00
53.7169 458.00
54.0212 398.00
54.3254 431.00
54.6297 458.00
54.934 451.00
55.2382 430.00
55.5425 501.00
55.8467 549.00
56.151 560.00
56.4553 1331.00
56.7595 11028.00
57.0638 2340.00
57.368 633.00
57.6723 514.00
57.9766 475.00
58.2808 460.00
58.5851 459.00
58.8893 433.00
59.1936 441.00
59.4979 483.00
59.8021 434.00
60.1064 449.00
60.4106 456.00
60.7149 508.00
61.0192 587.00
61.3234 529.00
61.6277 602.00
61.932 1111.00
62.2362 5744.00
62.5405 5443.00
62.8447 1552.00
63.149 9268.00
63.4533 2839.00
63.7575 642.00
64.0618 550.00
64.366 475.00
64.6703 476.00
64.9745 484.00
65.2788 469.00
65.5831 508.00
65.8873 469.00
66.1916 567.00
66.4959 1697.00
66.8001 1008.00
67.1044 540.00
67.4086 548.00
67.7129 746.00
68.0172 3564.00
68.3214 5233.00
68.6257 880.00
68.9299 806.00
69.2342 4037.00
69.5385 1812.00
69.8427 540.00
70.147 428.00
70.4512 443.00
70.7555 423.00
71.0598 403.00
71.364 414.00
71.6683 436.00
71.9725 369.00
72.2768 376.00
72.5811 432.00
72.8853 807.00
73.1896 716.00
73.4938 431.00
73.7981 420.00
74.1024 479.00
74.4066 881.00
74.7109 1418.00
75.0151 715.00
75.3194 418.00
75.6237 399.00
75.9279 382.00
76.2322 378.00
76.5364 355.00
76.8407 526.00
77.145 1551.00
77.4492 833.00
77.7535 411.00
78.0577 518.00
78.362 1294.00
78.6663 1924.00
78.9705 967.00
79.2748 409.00
79.579 358.00
79.8833 336.00
80.1876 352.00
80.4918 350.00
80.7961 367.00
81.1003 324.00
81.4046 382.00
81.7089 817.00
82.0131 602.00
82.3174 391.00
82.6217 341.00
82.9259 386.00
83.2302 348.00
83.5344 348.00
83.8387 343.00
84.143 328.00
84.4472 315.00
84.7515 348.00
85.0557 349.00
85.36 347.00
85.6643 347.00
85.9685 356.00
86.2728 330.00
86.577 351.00
86.8813 335.00
87.1856 343.00
87.4898 345.00
87.7941 312.00
88.0983 317.00
88.4026 352.00
88.7069 371.00
89.0111 347.00
89.3154 454.00
89.6196 962.00
89.9239 2049.00
90.2282 1028.00
90.5324 438.00
90.8367 392.00
91.1409 372.00
91.4452 339.00
91.7495 386.00
92.0537 361.00
92.358 417.00
92.6622 564.00
92.9665 1025.00
93.2708 719.00
93.575 672.00
93.8793 865.00
94.1835 843.00
94.4878 586.00
94.7921 471.00
95.0963 757.00
95.4006 2702.00
95.7048 1655.00
96.0091 528.00
96.3134 413.00
96.6176 373.00
96.9219 349.00
97.2261 383.00
97.5304 396.00
97.8347 376.00
98.1389 382.00
98.4432 427.00
98.7474 983.00
99.0517 1013.00
99.356 732.00
99.6602 433.00
99.9645 380.00
100.095 370.00

File: PG_2552-1.xy
9.903433 2760.00
10.2077 2697.00
10.512 2522.00
10.8162 2428.00
11.1205 2412.00
11.4247 2331.00
11.729 2342.00
12.0333 2159.00
12.3375 2218.00
12.6418 2068.00
12.946 2083.00
13.2503 2108.00
13.5546 1938.00
13.8588 1934.00
14.1631 2037.00
14.4673 2032.00
14.7716 2081.00
15.0759 2032.00
15.3801 1953.00
15.6844 1853.00
15.9886 1921.00
16.2929 1860.00
16.5972 1896.00
16.9014 1953.00
17.2057 1958.00
17.5099 2094.00
17.8142 2023.00
18.1185 1794.00
18.4227 1804.00
18.727 1736.00
19.0312 1760.00
19.3355 1735.00
19.6398 1694.00
19.944 1767.00
20.2483 1748.00
20.5525 1678.00
20.8568 1664.00
21.1611 1766.00
21.4653 1690.00
21.7696 1692.00
22.0738 1617.00
22.3781 1628.00
22.6824 1626.00
22.9866 1656.00
23.2909 1608.00
23.5951 1592.00
23.8994 1785.00
24.2037 2851.00
24.5079 2293.00
24.8122 2235.00
25.1164 1586.00
25.4207 1649.00
25.725 1606.00
26.0292 1541.00
26.3335 1532.00
26.6378 1560.00
26.942 1589.00
27.2463 1644.00
27.5505 1590.00
27.8548 1796.00
28.1591 4386.00
28.4633 10769.00
28.7676 2029.00
29.0718 1605.00
29.3761 1634.00
29.6804 1469.00
29.9846 1517.00
30.2889 1550.00
30.5931 1576.00
30.8974 1643.00
31.2017 1712.00
31.5059 4813.00
31.8102 5829.00
32.1144 1670.00
32.4187 1519.00
32.723 1454.00
33.0272 1435.00
33.3315 1380.00
33.6357 1451.00
33.94 1539.00
34.2443 2955.00
34.5485 3025.00
34.8528 1919.00
35.157 1567.00
35.4613 2732.00
35.7656 1639.00
36.0698 1663.00
36.3741 1375.00
36.6783 1402.00
36.9826 1478.00
37.2869 1413.00
37.5911 1397.00
37.8954 1283.00
38.1996 1373.00
38.5039 1427.00
38.8082 1967.00
39.1124 1399.00
39.4167 1325.00
39.7209 1388.00
40.0252 1342.00
40.3295 1397.00
40.6337 1444.00
40.938 2754.00
41.2422 1903.00
41.5465 1904.00
41.8508 1513.00
42.155 1384.00
42.4593 1262.00
42.7635 1398.00
43.0678 3737.00
43.3721 1697.00
43.6763 1287.00
43.9806 1256.00
44.2849 1239.00
44.5891 1314.00
44.8934 1738.00
45.1976 1703.00
45.5019 1597.00
45.8062 2049.00
46.1104 1333.00
46.4147 1219.00
46.7189 1269.00
47.0232 1208.00
47.3275 1310.00
47.6317 1245.00
47.936 1221.00
48.2402 1163.00
48.5445 1295.00
48.8488 1333.00
49.153 1792.00
49.4573 3437.00
49.7615 1690.00
50.0658 1753.00
50.3701 4165.00
50.6743 2673.00
50.9786 2001.00
51.2828 1650.00
51.5871 1613.00
51.8914 1336.00
52.1956 1161.00
52.4999 1224.00
52.8041 1152.00
53.1084 1209.00
53.4127 1173.00
53.7169 1216.00
54.0212 1785.00
54.3254 2614.00
54.6297 1412.00
54.934 1387.00
55.2382 1617.00
55.5425 2941.00
55.8467 2399.00
56.151 2256.00
56.4553 1441.00
56.7595 1332.00
57.0638 1449.00
57.368 2303.00
57.6723 1480.00
57.9766 1539.00
58.2808 1720.00
58.5851 1635.00
58.8893 1282.00
59.1936 1309.00
59.4979 1237.00
59.8021 1644.00
60.1064 2700.00
60.4106 1847.00
60.7149 1312.00
61.0192 1253.00
61.3234 1544.00
61.6277 1783.00
61.932 1695.00
62.2362 2248.00
62.5405 2981.00
62.8447 1966.00
63.149 2126.00
63.4533 1357.00
63.7575 1195.00
64.0618 1271.00
64.366 1447.00
64.6703 1340.00
64.9745 1248.00
65.2788 1319.00
65.5831 1666.00
65.8873 2108.00
66.1916 1524.00
66.4959 1282.00
66.8001 1109.00
67.1044 1166.00
67.4086 1179.00
67.7129 1114.00
68.0172 1123.00
68.3214 1180.00
68.6257 1149.00
68.9299 1277.00
69.2342 1419.00
69.5385 1196.00
69.8427 1216.00
70.147 1280.00
70.4512 1202.00
70.7555 1181.00
71.0598 1398.00
71.364 1751.00
71.6683 1414.00
71.9725 1258.00
72.2768 1430.00
72.5811 1375.00
72.8853 1312.00
73.1896 1206.00
73.4938 1298.00
73.7981 1206.00
74.1024 1189.00
74.4066 1175.00
74.7109 1477.00
75.0151 1576.00
75.3194 1691.00
75.6237 1424.00
75.9279 1190.00
76.2322 1190.00
76.5364 1323.00
76.8407 1392.00
77.145 1229.00
77.4492 1337.00
77.7535 1310.00
78.0577 1316.00
78.362 1342.00
78.6663 1522.00
78.9705 1635.00
79.2748 1425.00
79.579 1101.00
79.8833 1163.00
80.1876 1124.00
80.4918 1216.00
80.7961 1157.00
81.1003 1112.00
81.4046 1299.00
81.7089 1357.00
82.0131 1362.00
82.3174 1190.00
82.6217 1372.00
82.9259 1396.00
83.2302 1516.00
83.5344 1482.00
83.8387 1334.00
84.143 1528.00
84.4472 1355.00
84.7515 1296.00
85.0557 1402.00
85.36 1234.00
85.6643 1189.00
85.9685 1212.00
86.2728 1301.00
86.577 1291.00
86.8813 1193.00
87.1856 1170.00
87.4898 1325.00
87.7941 1352.00
88.0983 1482.00
88.4026 1515.00
88.7069 1597.00
89.0111 1389.00
89.3154 1213.00
89.6196 1429.00
89.9239 1569.00
90.2282 1359.00
90.5324 1230.00
90.8367 1229.00
91.1409 1247.00
91.4452 1310.00
91.7495 1154.00
92.0537 1133.00
92.358 1124.00
92.6622 1092.00
92.9665 1210.00
93.2708 1195.00
93.575 1251.00
93.8793 1393.00
94.1835 1427.00
94.4878 1363.00
94.7921 1314.00
95.0963 1394.00
95.4006 1396.00
95.7048 1290.00
96.0091 1392.00
96.3134 1424.00
96.6176 1746.00
96.9219 1661.00
97.2261 1492.00
97.5304 1319.00
97.8347 1179.00
98.1389 1323.00
98.4432 1320.00
98.7474 1502.00
99.0517 1472.00
99.356 1476.00
99.6602 1596.00
99.9645 1340.00
100.095 1392.00