Folder: alab-pipeline/data/xrd_creation/results (part 17)

File: Na_80.xy
9.903433 2820.00
10.2077 2735.00
10.512 2524.00
10.8162 2499.00
11.1205 2472.00
11.4247 2503.00
11.729 2614.00
12.0333 2231.00
12.3375 2176.00
12.6418 2061.00
12.946 1972.00
13.2503 1927.00
13.5546 1891.00
13.8588 1977.00
14.1631 1830.00
14.4673 1857.00
14.7716 1809.00
15.0759 1705.00
15.3801 1662.00
15.6844 1740.00
15.9886 1683.00
16.2929 1706.00
16.5972 1691.00
16.9014 1537.00
17.2057 1556.00
17.5099 1519.00
17.8142 1520.00
18.1185 1527.00
18.4227 1507.00
18.727 1403.00
19.0312 1457.00
19.3355 1557.00
19.6398 1369.00
19.944 1520.00
20.2483 3102.00
20.5525 1715.00
20.8568 1359.00
21.1611 1312.00
21.4653 1271.00
21.7696 1258.00
22.0738 1263.00
22.3781 1164.00
22.6824 1104.00
22.9866 1148.00
23.2909 1183.00
23.5951 1156.00
23.8994 1177.00
24.2037 1237.00
24.5079 1333.00
24.8122 1267.00
25.1164 1236.00
25.4207 1255.00
25.725 1270.00
26.0292 1474.00
26.3335 1781.00
26.6378 3935.00
26.942 5460.00
27.2463 1895.00
27.5505 1402.00
27.8548 1424.00
28.1591 1217.00
28.4633 1099.00
28.7676 1052.00
29.0718 1033.00
29.3761 1072.00
29.6804 1250.00
29.9846 1722.00
30.2889 1603.00
30.5931 1108.00
30.8974 1067.00
31.2017 992.00
31.5059 1020.00
31.8102 1009.00
32.1144 1031.00
32.4187 1059.00
32.723 1476.00
33.0272 3211.00
33.3315 2895.00
33.6357 2126.00
33.94 3152.00
34.2443 4490.00
34.5485 2026.00
34.8528 1388.00
35.157 1059.00
35.4613 972.00
35.7656 1016.00
36.0698 1163.00
36.3741 834.00
36.6783 819.00
36.9826 869.00
37.2869 834.00
37.5911 949.00
37.8954 1046.00
38.1996 2145.00
38.5039 1105.00
38.8082 1445.00
39.1124 902.00
39.4167 864.00
39.7209 735.00
40.0252 629.00
40.3295 663.00
40.6337 606.00
40.938 617.00
41.2422 582.00
41.5465 640.00
41.8508 691.00
42.155 616.00
42.4593 680.00
42.7635 787.00
43.0678 703.00
43.3721 580.00
43.6763 646.00
43.9806 808.00
44.2849 577.00
44.5891 547.00
44.8934 668.00
45.1976 754.00
45.5019 551.00
45.8062 558.00
46.1104 546.00
46.4147 523.00
46.7189 522.00
47.0232 596.00
47.3275 770.00
47.6317 1099.00
47.936 660.00
48.2402 591.00
48.5445 525.00
48.8488 503.00
49.153 573.00
49.4573 500.00
49.7615 558.00
50.0658 557.00
50.3701 622.00
50.6743 627.00
50.9786 630.00
51.2828 668.00
51.5871 1136.00
51.8914 2968.00
52.1956 3032.00
52.4999 1338.00
52.8041 825.00
53.1084 791.00
53.4127 776.00
53.7169 769.00
54.0212 647.00
54.3254 614.00
54.6297 798.00
54.934 1319.00
55.2382 826.00
55.5425 682.00
55.8467 557.00
56.151 579.00
56.4553 509.00
56.7595 530.00
57.0638 589.00
57.368 557.00
57.6723 552.00
57.9766 733.00
58.2808 725.00
58.5851 660.00
58.8893 731.00
59.1936 1016.00
59.4979 1050.00
59.8021 704.00
60.1064 594.00
60.4106 499.00
60.7149 496.00
61.0192 414.00
61.3234 536.00
61.6277 584.00
61.932 844.00
62.2362 1022.00
62.5405 760.00
62.8447 708.00
63.149 776.00
63.4533 616.00
63.7575 649.00
64.0618 557.00
64.366 612.00
64.6703 680.00
64.9745 1269.00
65.2788 810.00
65.5831 924.00
65.8873 788.00
66.1916 1421.00
66.4959 661.00
66.8001 532.00
67.1044 411.00
67.4086 437.00
67.7129 414.00
68.0172 377.00
68.3214 358.00
68.6257 376.00
68.9299 365.00
69.2342 372.00
69.5385 370.00
69.8427 535.00
70.147 436.00
70.4512 406.00
70.7555 315.00
71.0598 390.00
71.364 523.00
71.6683 593.00
71.9725 428.00
72.2768 389.00
72.5811 373.00
72.8853 376.00
73.1896 393.00
73.4938 396.00
73.7981 345.00
74.1024 335.00
74.4066 353.00
74.7109 343.00
75.0151 350.00
75.3194 334.00
75.6237 377.00
75.9279 355.00
76.2322 325.00
76.5364 351.00
76.8407 322.00
77.145 319.00
77.4492 329.00
77.7535 340.00
78.0577 400.00
78.362 363.00
78.6663 510.00
78.9705 942.00
79.2748 642.00
79.579 461.00
79.8833 360.00
80.1876 342.00
80.4918 350.00
80.7961 378.00
81.1003 396.00
81.4046 440.00
81.7089 419.00
82.0131 374.00
82.3174 365.00
82.6217 381.00
82.9259 367.00
83.2302 374.00
83.5344 419.00
83.8387 675.00
84.143 617.00
84.4472 488.00
84.7515 442.00
85.0557 448.00
85.36 376.00
85.6643 287.00
85.9685 338.00
86.2728 360.00
86.577 349.00
86.8813 381.00
87.1856 362.00
87.4898 480.00
87.7941 369.00
88.0983 389.00
88.4026 429.00
88.7069 422.00
89.0111 385.00
89.3154 403.00
89.6196 448.00
89.9239 757.00
90.2282 713.00
90.5324 444.00
90.8367 559.00
91.1409 828.00
91.4452 530.00
91.7495 411.00
92.0537 462.00
92.358 438.00
92.6622 320.00
92.9665 362.00
93.2708 464.00
93.575 484.00
93.8793 402.00
94.1835 401.00
94.4878 370.00
94.7921 378.00
95.0963 352.00
95.4006 339.00
95.7048 362.00
96.0091 407.00
96.3134 428.00
96.6176 371.00
96.9219 327.00
97.2261 354.00
97.5304 341.00
97.8347 328.00
98.1389 371.00
98.4432 370.00
98.7474 371.00
99.0517 347.00
99.356 325.00
99.6602 302.00
99.9645 301.00
100.095 329.00

File: Na_89.xy
9.903433 2696.00
10.2077 2712.00
10.512 2647.00
10.8162 2511.00
11.1205 2689.00
11.4247 4285.00
11.729 15778.00
12.0333 2573.00
12.3375 2277.00
12.6418 2303.00
12.946 2153.00
13.2503 2053.00
13.5546 2016.00
13.8588 1907.00
14.1631 1910.00
14.4673 1960.00
14.7716 2067.00
15.0759 2014.00
15.3801 2089.00
15.6844 1898.00
15.9886 1891.00
16.2929 2892.00
16.5972 6218.00
16.9014 1751.00
17.2057 1733.00
17.5099 1649.00
17.8142 1717.00
18.1185 2905.00
18.4227 1702.00
18.727 1531.00
19.0312 1511.00
19.3355 1472.00
19.6398 1399.00
19.944 1391.00
20.2483 1580.00
20.5525 1462.00
20.8568 1441.00
21.1611 1542.00
21.4653 1288.00
21.7696 1236.00
22.0738 1447.00
22.3781 1242.00
22.6824 1219.00
22.9866 1336.00
23.2909 1297.00
23.5951 1271.00
23.8994 1182.00
24.2037 1364.00
24.5079 2188.00
24.8122 1842.00
25.1164 1214.00
25.4207 1479.00
25.725 1495.00
26.0292 8539.00
26.3335 1725.00
26.6378 1491.00
26.942 3843.00
27.2463 1490.00
27.5505 1235.00
27.8548 5338.00
28.1591 4385.00
28.4633 1353.00
28.7676 996.00
29.0718 1009.00
29.3761 1004.00
29.6804 1059.00
29.9846 1014.00
30.2889 2312.00
30.5931 1332.00
30.8974 916.00
31.2017 916.00
31.5059 2146.00
31.8102 1475.00
32.1144 1408.00
32.4187 1133.00
32.723 1149.00
33.0272 7679.00
33.3315 1352.00
33.6357 1004.00
33.94 1483.00
34.2443 3338.00
34.5485 10293.00
34.8528 2820.00
35.157 1130.00
35.4613 942.00
35.7656 771.00
36.0698 818.00
36.3741 1283.00
36.6783 1287.00
36.9826 1378.00
37.2869 1399.00
37.5911 781.00
37.8954 1092.00
38.1996 1156.00
38.5039 876.00
38.8082 816.00
39.1124 897.00
39.4167 815.00
39.7209 768.00
40.0252 668.00
40.3295 636.00
40.6337 781.00
40.938 783.00
41.2422 829.00
41.5465 745.00
41.8508 1438.00
42.155 1378.00
42.4593 1687.00
42.7635 767.00
43.0678 693.00
43.3721 720.00
43.6763 1146.00
43.9806 767.00
44.2849 751.00
44.5891 688.00
44.8934 718.00
45.1976 1154.00
45.5019 958.00
45.8062 798.00
46.1104 604.00
46.4147 705.00
46.7189 682.00
47.0232 1141.00
47.3275 1695.00
47.6317 2554.00
47.936 717.00
48.2402 643.00
48.5445 773.00
48.8488 773.00
49.153 1283.00
49.4573 778.00
49.7615 1957.00
50.0658 1677.00
50.3701 1862.00
50.6743 712.00
50.9786 689.00
51.2828 806.00
51.5871 642.00
51.8914 1744.00
52.1956 1705.00
52.4999 813.00
52.8041 564.00
53.1084 1193.00
53.4127 1009.00
53.7169 672.00
54.0212 718.00
54.3254 725.00
54.6297 738.00
54.934 984.00
55.2382 854.00
55.5425 1265.00
55.8467 668.00
56.151 795.00
56.4553 920.00
56.7595 762.00
57.0638 995.00
57.368 1125.00
57.6723 642.00
57.9766 793.00
58.2808 927.00
58.5851 1594.00
58.8893 1135.00
59.1936 977.00
59.4979 1750.00
59.8021 1967.00
60.1064 1212.00
60.4106 1240.00
60.7149 688.00
61.0192 712.00
61.3234 536.00
61.6277 712.00
61.932 806.00
62.2362 786.00
62.5405 893.00
62.8447 670.00
63.149 995.00
63.4533 565.00
63.7575 612.00
64.0618 714.00
64.366 696.00
64.6703 657.00
64.9745 1081.00
65.2788 831.00
65.5831 828.00
65.8873 1008.00
66.1916 995.00
66.4959 819.00
66.8001 730.00
67.1044 643.00
67.4086 680.00
67.7129 584.00
68.0172 750.00
68.3214 582.00
68.6257 701.00
68.9299 788.00
69.2342 629.00
69.5385 468.00
69.8427 520.00
70.147 435.00
70.4512 458.00
70.7555 493.00
71.0598 529.00
71.364 480.00
71.6683 519.00
71.9725 529.00
72.2768 713.00
72.5811 542.00
72.8853 382.00
73.1896 533.00
73.4938 670.00
73.7981 424.00
74.1024 471.00
74.4066 594.00
74.7109 494.00
75.0151 515.00
75.3194 536.00
75.6237 479.00
75.9279 445.00
76.2322 533.00
76.5364 493.00
76.8407 581.00
77.145 582.00
77.4492 641.00
77.7535 460.00
78.0577 525.00
78.362 507.00
78.6663 568.00
78.9705 793.00
79.2748 685.00
79.579 521.00
79.8833 466.00
80.1876 604.00
80.4918 617.00
80.7961 513.00
81.1003 497.00
81.4046 527.00
81.7089 490.00
82.0131 452.00
82.3174 430.00
82.6217 499.00
82.9259 480.00
83.2302 453.00
83.5344 426.00
83.8387 585.00
84.143 546.00
84.4472 484.00
84.7515 562.00
85.0557 541.00
85.36 505.00
85.6643 445.00
85.9685 476.00
86.2728 508.00
86.577 578.00
86.8813 542.00
87.1856 525.00
87.4898 549.00
87.7941 429.00
88.0983 446.00
88.4026 561.00
88.7069 617.00
89.0111 525.00
89.3154 484.00
89.6196 516.00
89.9239 612.00
90.2282 586.00
90.5324 631.00
90.8367 515.00
91.1409 560.00
91.4452 594.00
91.7495 587.00
92.0537 635.00
92.358 487.00
92.6622 541.00
92.9665 453.00
93.2708 442.00
93.575 452.00
93.8793 429.00
94.1835 441.00
94.4878 481.00
94.7921 378.00
95.0963 423.00
95.4006 465.00
95.7048 481.00
96.0091 554.00
96.3134 549.00
96.6176 468.00
96.9219 584.00
97.2261 630.00
97.5304 626.00
97.8347 552.00
98.1389 532.00
98.4432 452.00
98.7474 474.00
99.0517 424.00
99.356 466.00
99.6602 574.00
99.9645 524.00
100.095 553.00

File: Na_90.xy
9.903433 2696.00
10.2077 2591.00
10.512 2504.00
10.8162 2508.00
11.1205 2390.00
11.4247 2401.00
11.729 2560.00
12.0333 2099.00
12.3375 2027.00
12.6418 1933.00
12.946 1930.00
13.2503 1843.00
13.5546 1938.00
13.8588 1765.00
14.1631 1819.00
14.4673 1773.00
14.7716 1747.00
15.0759 1761.00
15.3801 1696.00
15.6844 1642.00
15.9886 1806.00
16.2929 2349.00
16.5972 2746.00
16.9014 1680.00
17.2057 1529.00
17.5099 1538.00
17.8142 1546.00
18.1185 1509.00
18.4227 1454.00
18.727 1634.00
19.0312 1694.00
19.3355 1566.00
19.6398 1570.00
19.944 1561.00
20.2483 1458.00
20.5525 1367.00
20.8568 1536.00
21.1611 1635.00
21.4653 1365.00
21.7696 1317.00
22.0738 1282.00
22.3781 1214.00
22.6824 1319.00
22.9866 1191.00
23.2909 1247.00
23.5951 1280.00
23.8994 1082.00
24.2037 1218.00
24.5079 1145.00
24.8122 1108.00
25.1164 1058.00
25.4207 1048.00
25.725 1107.00
26.0292 1459.00
26.3335 1395.00
26.6378 3208.00
26.942 10467.00
27.2463 1579.00
27.5505 1260.00
27.8548 1263.00
28.1591 1210.00
28.4633 987.00
28.7676 958.00
29.0718 932.00
29.3761 961.00
29.6804 906.00
29.9846 876.00
30.2889 964.00
30.5931 889.00
30.8974 873.00
31.2017 857.00
31.5059 844.00
31.8102 901.00
32.1144 929.00
32.4187 893.00
32.723 989.00
33.0272 2475.00
33.3315 1399.00
33.6357 1317.00
33.94 2660.00
34.2443 8896.00
34.5485 3461.00
34.8528 1248.00
35.157 910.00
35.4613 1274.00
35.7656 827.00
36.0698 767.00
36.3741 796.00
36.6783 703.00
36.9826 796.00
37.2869 777.00
37.5911 782.00
37.8954 1031.00
38.1996 3137.00
38.5039 1054.00
38.8082 752.00
39.1124 1060.00
39.4167 2422.00
39.7209 2298.00
40.0252 820.00
40.3295 772.00
40.6337 682.00
40.938 634.00
41.2422 604.00
41.5465 634.00
41.8508 665.00
42.155 619.00
42.4593 618.00
42.7635 732.00
43.0678 1027.00
43.3721 637.00
43.6763 621.00
43.9806 579.00
44.2849 637.00
44.5891 552.00
44.8934 601.00
45.1976 561.00
45.5019 517.00
45.8062 546.00
46.1104 537.00
46.4147 463.00
46.7189 551.00
47.0232 488.00
47.3275 555.00
47.6317 615.00
47.936 588.00
48.2402 542.00
48.5445 494.00
48.8488 523.00
49.153 560.00
49.4573 519.00
49.7615 530.00
50.0658 564.00
50.3701 634.00
50.6743 633.00
50.9786 700.00
51.2828 981.00
51.5871 1049.00
51.8914 2930.00
52.1956 5486.00
52.4999 983.00
52.8041 679.00
53.1084 601.00
53.4127 566.00
53.7169 569.00
54.0212 550.00
54.3254 536.00
54.6297 614.00
54.934 1551.00
55.2382 1169.00
55.5425 690.00
55.8467 761.00
56.151 1125.00
56.4553 561.00
56.7595 523.00
57.0638 517.00
57.368 502.00
57.6723 706.00
57.9766 1578.00
58.2808 1244.00
58.5851 619.00
58.8893 569.00
59.1936 516.00
59.4979 497.00
59.8021 525.00
60.1064 517.00
60.4106 619.00
60.7149 867.00
61.0192 559.00
61.3234 483.00
61.6277 546.00
61.932 847.00
62.2362 1452.00
62.5405 625.00
62.8447 504.00
63.149 424.00
63.4533 427.00
63.7575 439.00
64.0618 466.00
64.366 448.00
64.6703 690.00
64.9745 2089.00
65.2788 915.00
65.5831 561.00
65.8873 737.00
66.1916 2334.00
66.4959 1179.00
66.8001 572.00
67.1044 448.00
67.4086 419.00
67.7129 408.00
68.0172 542.00
68.3214 725.00
68.6257 521.00
68.9299 592.00
69.2342 558.00
69.5385 431.00
69.8427 362.00
70.147 355.00
70.4512 416.00
70.7555 391.00
71.0598 422.00
71.364 692.00
71.6683 931.00
71.9725 646.00
72.2768 844.00
72.5811 569.00
72.8853 418.00
73.1896 367.00
73.4938 386.00
73.7981 352.00
74.1024 364.00
74.4066 355.00
74.7109 445.00
75.0151 385.00
75.3194 351.00
75.6237 321.00
75.9279 342.00
76.2322 346.00
76.5364 350.00
76.8407 312.00
77.145 331.00
77.4492 318.00
77.7535 305.00
78.0577 344.00
78.362 378.00
78.6663 550.00
78.9705 1505.00
79.2748 672.00
79.579 439.00
79.8833 341.00
80.1876 410.00
80.4918 432.00
80.7961 407.00
81.1003 483.00
81.4046 627.00
81.7089 430.00
82.0131 359.00
82.3174 324.00
82.6217 310.00
82.9259 351.00
83.2302 362.00
83.5344 379.00
83.8387 787.00
84.143 857.00
84.4472 503.00
84.7515 490.00
85.0557 374.00
85.36 338.00
85.6643 301.00
85.9685 307.00
86.2728 349.00
86.577 331.00
86.8813 321.00
87.1856 414.00
87.4898 635.00
87.7941 427.00
88.0983 367.00
88.4026 333.00
88.7069 347.00
89.0111 311.00
89.3154 388.00
89.6196 453.00
89.9239 984.00
90.2282 896.00
90.5324 490.00
90.8367 594.00
91.1409 1157.00
91.4452 847.00
91.7495 434.00
92.0537 362.00
92.358 328.00
92.6622 373.00
92.9665 365.00
93.2708 450.00
93.575 665.00
93.8793 555.00
94.1835 381.00
94.4878 366.00
94.7921 349.00
95.0963 375.00
95.4006 400.00
95.7048 467.00
96.0091 657.00
96.3134 697.00
96.6176 553.00
96.9219 370.00
97.2261 311.00
97.5304 315.00
97.8347 312.00
98.1389 313.00
98.4432 323.00
98.7474 348.00
99.0517 458.00
99.356 477.00
99.6602 475.00
99.9645 351.00
100.095 328.00

File: Na_92.xy
9.903433 2725.00
10.2077 2602.00
10.512 2474.00
10.8162 2373.00
11.1205 2555.00
11.4247 4475.00
11.729 4152.00
12.0333 2116.00
12.3375 2064.00
12.6418 2026.00
12.946 1963.00
13.2503 1850.00
13.5546 1787.00
13.8588 1679.00
14.1631 1674.00
14.4673 1655.00
14.7716 1793.00
15.0759 1583.00
15.3801 1637.00
15.6844 1510.00
15.9886 1795.00
16.2929 2959.00
16.5972 1977.00
16.9014 1474.00
17.2057 1413.00
17.5099 1390.00
17.8142 1626.00
18.1185 1663.00
18.4227 1347.00
18.727 1297.00
19.0312 1254.00
19.3355 1157.00
19.6398 1162.00
19.944 1162.00
20.2483 1175.00
20.5525 1091.00
20.8568 1131.00
21.1611 1103.00
21.4653 1062.00
21.7696 1072.00
22.0738 1013.00
22.3781 1021.00
22.6824 1050.00
22.9866 996.00
23.2909 993.00
23.5951 963.00
23.8994 937.00
24.2037 1202.00
24.5079 1450.00
24.8122 1032.00
25.1164 1041.00
25.4207 1085.00
25.725 2724.00
26.0292 3050.00
26.3335 1199.00
26.6378 2161.00
26.942 1314.00
27.2463 1049.00
27.5505 2057.00
27.8548 3540.00
28.1591 1242.00
28.4633 837.00
28.7676 786.00
29.0718 755.00
29.3761 733.00
29.6804 812.00
29.9846 1322.00
30.2889 1327.00
30.5931 764.00
30.8974 744.00
31.2017 994.00
31.5059 1074.00
31.8102 1070.00
32.1144 676.00
32.4187 786.00
32.723 2051.00
33.0272 2554.00
33.3315 744.00
33.6357 844.00
33.94 2138.00
34.2443 3696.00
34.5485 2624.00
34.8528 1448.00
35.157 756.00
35.4613 586.00
35.7656 563.00
36.0698 746.00
36.3741 826.00
36.6783 836.00
36.9826 754.00
37.2869 650.00
37.5911 626.00
37.8954 688.00
38.1996 773.00
38.5039 512.00
38.8082 521.00
39.1124 641.00
39.4167 517.00
39.7209 491.00
40.0252 455.00
40.3295 532.00
40.6337 495.00
40.938 512.00
41.2422 508.00
41.5465 752.00
41.8508 806.00
42.155 1086.00
42.4593 778.00
42.7635 484.00
43.0678 476.00
43.3721 721.00
43.6763 554.00
43.9806 465.00
44.2849 435.00
44.5891 446.00
44.8934 597.00
45.1976 643.00
45.5019 571.00
45.8062 455.00
46.1104 442.00
46.4147 433.00
46.7189 558.00
47.0232 768.00
47.3275 1324.00
47.6317 754.00
47.936 412.00
48.2402 485.00
48.5445 564.00
48.8488 696.00
49.153 607.00
49.4573 752.00
49.7615 1001.00
50.0658 1034.00
50.3701 717.00
50.6743 440.00
50.9786 414.00
51.2828 419.00
51.5871 1034.00
51.8914 1630.00
52.1956 615.00
52.4999 339.00
52.8041 542.00
53.1084 710.00
53.4127 576.00
53.7169 505.00
54.0212 477.00
54.3254 492.00
54.6297 534.00
54.934 630.00
55.2382 581.00
55.5425 656.00
55.8467 462.00
56.151 495.00
56.4553 470.00
56.7595 578.00
57.0638 632.00
57.368 554.00
57.6723 474.00
57.9766 637.00
58.2808 824.00
58.5851 764.00
58.8893 685.00
59.1936 823.00
59.4979 1340.00
59.8021 844.00
60.1064 880.00
60.4106 502.00
60.7149 444.00
61.0192 369.00
61.3234 356.00
61.6277 468.00
61.932 619.00
62.2362 668.00
62.5405 437.00
62.8447 607.00
63.149 426.00
63.4533 370.00
63.7575 408.00
64.0618 489.00
64.366 462.00
64.6703 560.00
64.9745 638.00
65.2788 498.00
65.5831 518.00
65.8873 575.00
66.1916 633.00
66.4959 460.00
66.8001 393.00
67.1044 384.00
67.4086 385.00
67.7129 368.00
68.0172 424.00
68.3214 395.00
68.6257 423.00
68.9299 350.00
69.2342 346.00
69.5385 313.00
69.8427 301.00
70.147 298.00
70.4512 310.00
70.7555 328.00
71.0598 284.00
71.364 392.00
71.6683 325.00
71.9725 363.00
72.2768 439.00
72.5811 322.00
72.8853 296.00
73.1896 434.00
73.4938 324.00
73.7981 279.00
74.1024 292.00
74.4066 355.00
74.7109 308.00
75.0151 281.00
75.3194 305.00
75.6237 287.00
75.9279 270.00
76.2322 281.00
76.5364 336.00
76.8407 339.00
77.145 411.00
77.4492 326.00
77.7535 272.00
78.0577 298.00
78.362 280.00
78.6663 526.00
78.9705 521.00
79.2748 352.00
79.579 322.00
79.8833 318.00
80.1876 351.00
80.4918 335.00
80.7961 311.00
81.1003 317.00
81.4046 364.00
81.7089 317.00
82.0131 245.00
82.3174 295.00
82.6217 322.00
82.9259 318.00
83.2302 337.00
83.5344 380.00
83.8387 449.00
84.143 338.00
84.4472 332.00
84.7515 340.00
85.0557 344.00
85.36 343.00
85.6643 309.00
85.9685 402.00
86.2728 347.00
86.577 312.00
86.8813 365.00
87.1856 368.00
87.4898 335.00
87.7941 259.00
88.0983 277.00
88.4026 369.00
88.7069 358.00
89.0111 303.00
89.3154 359.00
89.6196 326.00
89.9239 395.00
90.2282 403.00
90.5324 305.00
90.8367 381.00
91.1409 349.00
91.4452 367.00
91.7495 350.00
92.0537 333.00
92.358 293.00
92.6622 286.00
92.9665 286.00
93.2708 318.00
93.575 339.00
93.8793 267.00
94.1835 266.00
94.4878 287.00
94.7921 248.00
95.0963 290.00
95.4006 282.00
95.7048 314.00
96.0091 360.00
96.3134 357.00
96.6176 330.00
96.9219 362.00
97.2261 391.00
97.5304 323.00
97.8347 315.00
98.1389 338.00
98.4432 307.00
98.7474 278.00
99.0517 321.00
99.356 336.00
99.6602 356.00
99.9645 318.00
100.095 330.00

File: Na_101.xy
9.903433 2669.00
10.2077 2610.00
10.512 2489.00
10.8162 2457.00
11.1205 2437.00
11.4247 2189.00
11.729 2230.00
12.0333 2154.00
12.3375 2023.00
12.6418 1946.00
12.946 1948.00
13.2503 1869.00
13.5546 1906.00
13.8588 1913.00
14.1631 1817.00
14.4673 1761.00
14.7716 1742.00
15.0759 1643.00
15.3801 1685.00
15.6844 1680.00
15.9886 1621.00
16.2929 1567.00
16.5972 1642.00
16.9014 1473.00
17.2057 1602.00
17.5099 1513.00
17.8142 1496.00
18.1185 1441.00
18.4227 1515.00
18.727 1429.00
19.0312 1517.00
19.3355 1484.00
19.6398 1503.00
19.944 1370.00
20.2483 1335.00
20.5525 1324.00
20.8568 1232.00
21.1611 1207.00
21.4653 1235.00
21.7696 1256.00
22.0738 1345.00
22.3781 1468.00
22.6824 1553.00
22.9866 1191.00
23.2909 1123.00
23.5951 1067.00
23.8994 1061.00
24.2037 1059.00
24.5079 1069.00
24.8122 1143.00
25.1164 1083.00
25.4207 1168.00
25.725 1073.00
26.0292 1316.00
26.3335 1225.00
26.6378 2400.00
26.942 13321.00
27.2463 2064.00
27.5505 1236.00
27.8548 1439.00
28.1591 1313.00
28.4633 941.00
28.7676 956.00
29.0718 1393.00
29.3761 1380.00
29.6804 1381.00
29.9846 1592.00
30.2889 1190.00
30.5931 1042.00
30.8974 1552.00
31.2017 1391.00
31.5059 919.00
31.8102 948.00
32.1144 1297.00
32.4187 1159.00
32.723 1223.00
33.0272 960.00
33.3315 956.00
33.6357 1239.00
33.94 1973.00
34.2443 9667.00
34.5485 1587.00
34.8528 1003.00
35.157 849.00
35.4613 871.00
35.7656 775.00
36.0698 690.00
36.3741 709.00
36.6783 668.00
36.9826 632.00
37.2869 645.00
37.5911 999.00
37.8954 951.00
38.1996 2663.00
38.5039 1221.00
38.8082 887.00
39.1124 798.00
39.4167 968.00
39.7209 633.00
40.0252 772.00
40.3295 686.00
40.6337 731.00
40.938 719.00
41.2422 657.00
41.5465 570.00
41.8508 583.00
42.155 684.00
42.4593 608.00
42.7635 649.00
43.0678 750.00
43.3721 633.00
43.6763 747.00
43.9806 576.00
44.2849 540.00
44.5891 556.00
44.8934 603.00
45.1976 560.00
45.5019 635.00
45.8062 688.00
46.1104 552.00
46.4147 535.00
46.7189 640.00
47.0232 616.00
47.3275 615.00
47.6317 462.00
47.936 427.00
48.2402 559.00
48.5445 560.00
48.8488 567.00
49.153 563.00
49.4573 627.00
49.7615 569.00
50.0658 650.00
50.3701 555.00
50.6743 629.00
50.9786 556.00
51.2828 651.00
51.5871 907.00
51.8914 2360.00
52.1956 6096.00
52.4999 1004.00
52.8041 640.00
53.1084 688.00
53.4127 548.00
53.7169 522.00
54.0212 513.00
54.3254 484.00
54.6297 609.00
54.934 1132.00
55.2382 1474.00
55.5425 574.00
55.8467 512.00
56.151 444.00
56.4553 480.00
56.7595 548.00
57.0638 606.00
57.368 523.00
57.6723 509.00
57.9766 773.00
58.2808 968.00
58.5851 551.00
58.8893 482.00
59.1936 494.00
59.4979 491.00
59.8021 456.00
60.1064 467.00
60.4106 504.00
60.7149 535.00
61.0192 489.00
61.3234 418.00
61.6277 424.00
61.932 726.00
62.2362 1667.00
62.5405 671.00
62.8447 467.00
63.149 403.00
63.4533 404.00
63.7575 473.00
64.0618 486.00
64.366 472.00
64.6703 526.00
64.9745 1722.00
65.2788 953.00
65.5831 502.00
65.8873 562.00
66.1916 1870.00
66.4959 1233.00
66.8001 544.00
67.1044 406.00
67.4086 400.00
67.7129 430.00
68.0172 314.00
68.3214 331.00
68.6257 352.00
68.9299 379.00
69.2342 360.00
69.5385 372.00
69.8427 351.00
70.147 362.00
70.4512 367.00
70.7555 384.00
71.0598 449.00
71.364 595.00
71.6683 887.00
71.9725 495.00
72.2768 407.00
72.5811 429.00
72.8853 363.00
73.1896 315.00
73.4938 314.00
73.7981 359.00
74.1024 318.00
74.4066 332.00
74.7109 338.00
75.0151 313.00
75.3194 307.00
75.6237 341.00
75.9279 320.00
76.2322 332.00
76.5364 306.00
76.8407 346.00
77.145 291.00
77.4492 296.00
77.7535 318.00
78.0577 356.00
78.362 345.00
78.6663 476.00
78.9705 1348.00
79.2748 866.00
79.579 389.00
79.8833 382.00
80.1876 322.00
80.4918 322.00
80.7961 330.00
81.1003 391.00
81.4046 558.00
81.7089 462.00
82.0131 317.00
82.3174 323.00
82.6217 311.00
82.9259 329.00
83.2302 296.00
83.5344 362.00
83.8387 644.00
84.143 884.00
84.4472 419.00
84.7515 342.00
85.0557 343.00
85.36 334.00
85.6643 308.00
85.9685 325.00
86.2728 312.00
86.577 351.00
86.8813 328.00
87.1856 351.00
87.4898 652.00
87.7941 505.00
88.0983 334.00
88.4026 333.00
88.7069 331.00
89.0111 369.00
89.3154 322.00
89.6196 441.00
89.9239 859.00
90.2282 927.00
90.5324 569.00
90.8367 561.00
91.1409 1137.00
91.4452 811.00
91.7495 430.00
92.0537 368.00
92.358 336.00
92.6622 313.00
92.9665 301.00
93.2708 402.00
93.575 715.00
93.8793 567.00
94.1835 338.00
94.4878 269.00
94.7921 319.00
95.0963 277.00
95.4006 272.00
95.7048 320.00
96.0091 381.00
96.3134 563.00
96.6176 448.00
96.9219 351.00
97.2261 315.00
97.5304 290.00
97.8347 260.00
98.1389 289.00
98.4432 269.00
98.7474 272.00
99.0517 280.00
99.356 287.00
99.6602 273.00
99.9645 271.00
100.095 258.00