Folder: alab-pipeline/data/xrd_creation/results (part 51)

File: NSC_91.xy
9.903433 2671.00
10.2077 2660.00
10.512 2508.00
10.8162 2409.00
11.1205 2276.00
11.4247 2141.00
11.729 2162.00
12.0333 2031.00
12.3375 1926.00
12.6418 1899.00
12.946 1907.00
13.2503 1884.00
13.5546 1796.00
13.8588 1806.00
14.1631 1878.00
14.4673 2404.00
14.7716 2239.00
15.0759 1690.00
15.3801 1614.00
15.6844 1607.00
15.9886 1615.00
16.2929 1577.00
16.5972 1536.00
16.9014 1524.00
17.2057 1545.00
17.5099 1474.00
17.8142 1369.00
18.1185 1366.00
18.4227 1396.00
18.727 1350.00
19.0312 1336.00
19.3355 1368.00
19.6398 1738.00
19.944 3429.00
20.2483 4234.00
20.5525 1546.00
20.8568 2707.00
21.1611 11285.00
21.4653 1633.00
21.7696 1359.00
22.0738 1271.00
22.3781 1210.00
22.6824 1127.00
22.9866 1150.00
23.2909 1118.00
23.5951 1161.00
23.8994 1439.00
24.2037 3234.00
24.5079 1770.00
24.8122 1123.00
25.1164 1028.00
25.4207 1033.00
25.725 1077.00
26.0292 973.00
26.3335 1031.00
26.6378 1149.00
26.942 2363.00
27.2463 996.00
27.5505 916.00
27.8548 855.00
28.1591 899.00
28.4633 888.00
28.7676 1036.00
29.0718 2196.00
29.3761 3136.00
29.6804 951.00
29.9846 855.00
30.2889 803.00
30.5931 829.00
30.8974 778.00
31.2017 863.00
31.5059 940.00
31.8102 1829.00
32.1144 11241.00
32.4187 1158.00
32.723 1623.00
33.0272 764.00
33.3315 774.00
33.6357 753.00
33.94 861.00
34.2443 1921.00
34.5485 845.00
34.8528 767.00
35.157 705.00
35.4613 720.00
35.7656 774.00
36.0698 1240.00
36.3741 2529.00
36.6783 1590.00
36.9826 3207.00
37.2869 795.00
37.5911 670.00
37.8954 658.00
38.1996 850.00
38.5039 670.00
38.8082 899.00
39.1124 612.00
39.4167 680.00
39.7209 598.00
40.0252 561.00
40.3295 636.00
40.6337 1326.00
40.938 558.00
41.2422 531.00
41.5465 603.00
41.8508 617.00
42.155 1485.00
42.4593 811.00
42.7635 1505.00
43.0678 679.00
43.3721 666.00
43.6763 588.00
43.9806 619.00
44.2849 1933.00
44.5891 793.00
44.8934 530.00
45.1976 594.00
45.5019 759.00
45.8062 627.00
46.1104 2629.00
46.4147 639.00
46.7189 540.00
47.0232 573.00
47.3275 801.00
47.6317 3340.00
47.936 597.00
48.2402 551.00
48.5445 533.00
48.8488 681.00
49.153 679.00
49.4573 3316.00
49.7615 889.00
50.0658 530.00
50.3701 723.00
50.6743 541.00
50.9786 512.00
51.2828 470.00
51.5871 486.00
51.8914 648.00
52.1956 1386.00
52.4999 3911.00
52.8041 800.00
53.1084 473.00
53.4127 649.00
53.7169 424.00
54.0212 454.00
54.3254 424.00
54.6297 507.00
54.934 534.00
55.2382 575.00
55.5425 523.00
55.8467 1441.00
56.151 537.00
56.4553 482.00
56.7595 529.00
57.0638 1846.00
57.368 1420.00
57.6723 2108.00
57.9766 576.00
58.2808 539.00
58.5851 571.00
58.8893 891.00
59.1936 805.00
59.4979 462.00
59.8021 442.00
60.1064 548.00
60.4106 666.00
60.7149 416.00
61.0192 469.00
61.3234 754.00
61.6277 1489.00
61.932 532.00
62.2362 716.00
62.5405 664.00
62.8447 738.00
63.149 2648.00
63.4533 1258.00
63.7575 514.00
64.0618 447.00
64.366 494.00
64.6703 606.00
64.9745 633.00
65.2788 484.00
65.5831 973.00
65.8873 1255.00
66.1916 1349.00
66.4959 608.00
66.8001 415.00
67.1044 518.00
67.4086 1317.00
67.7129 702.00
68.0172 473.00
68.3214 395.00
68.6257 357.00
68.9299 365.00
69.2342 410.00
69.5385 580.00
69.8427 1206.00
70.147 459.00
70.4512 370.00
70.7555 368.00
71.0598 466.00
71.364 639.00
71.6683 522.00
71.9725 495.00
72.2768 395.00
72.5811 407.00
72.8853 348.00
73.1896 350.00
73.4938 504.00
73.7981 1066.00
74.1024 467.00
74.4066 404.00
74.7109 400.00
75.0151 457.00
75.3194 873.00
75.6237 689.00
75.9279 575.00
76.2322 626.00
76.5364 540.00
76.8407 376.00
77.145 340.00
77.4492 398.00
77.7535 517.00
78.0577 768.00
78.362 533.00
78.6663 360.00
78.9705 536.00
79.2748 522.00
79.579 421.00
79.8833 421.00
80.1876 398.00
80.4918 405.00
80.7961 393.00
81.1003 432.00
81.4046 916.00
81.7089 855.00
82.0131 550.00
82.3174 392.00
82.6217 416.00
82.9259 850.00
83.2302 738.00
83.5344 438.00
83.8387 379.00
84.143 383.00
84.4472 356.00
84.7515 317.00
85.0557 366.00
85.36 427.00
85.6643 349.00
85.9685 391.00
86.2728 396.00
86.577 733.00
86.8813 633.00
87.1856 371.00
87.4898 507.00
87.7941 925.00
88.0983 709.00
88.4026 419.00
88.7069 403.00
89.0111 533.00
89.3154 415.00
89.6196 345.00
89.9239 405.00
90.2282 405.00
90.5324 567.00
90.8367 478.00
91.1409 620.00
91.4452 576.00
91.7495 442.00
92.0537 357.00
92.358 372.00
92.6622 796.00
92.9665 764.00
93.2708 492.00
93.575 393.00
93.8793 398.00
94.1835 531.00
94.4878 529.00
94.7921 447.00
95.0963 437.00
95.4006 630.00
95.7048 502.00
96.0091 434.00
96.3134 452.00
96.6176 490.00
96.9219 408.00
97.2261 355.00
97.5304 391.00
97.8347 501.00
98.1389 784.00
98.4432 615.00
98.7474 371.00
99.0517 366.00
99.356 325.00
99.6602 353.00
99.9645 386.00
100.095 572.00

File: NSC_92.xy
9.903433 2860.00
10.2077 2643.00
10.512 2690.00
10.8162 2485.00
11.1205 2392.00
11.4247 2303.00
11.729 2273.00
12.0333 2159.00
12.3375 2058.00
12.6418 2078.00
12.946 1950.00
13.2503 1885.00
13.5546 1880.00
13.8588 1827.00
14.1631 2333.00
14.4673 2005.00
14.7716 1711.00
15.0759 1734.00
15.3801 1662.00
15.6844 1498.00
15.9886 1603.00
16.2929 1570.00
16.5972 1578.00
16.9014 1530.00
17.2057 1480.00
17.5099 1495.00
17.8142 1412.00
18.1185 1409.00
18.4227 1334.00
18.727 1316.00
19.0312 1387.00
19.3355 1482.00
19.6398 3018.00
19.944 2683.00
20.2483 1503.00
20.5525 2015.00
20.8568 7311.00
21.1611 1365.00
21.4653 1251.00
21.7696 1260.00
22.0738 1132.00
22.3781 1088.00
22.6824 1201.00
22.9866 1165.00
23.2909 1191.00
23.5951 1249.00
23.8994 3354.00
24.2037 1405.00
24.5079 1051.00
24.8122 950.00
25.1164 956.00
25.4207 905.00
25.725 924.00
26.0292 911.00
26.3335 1151.00
26.6378 1993.00
26.942 933.00
27.2463 770.00
27.5505 849.00
27.8548 836.00
28.1591 883.00
28.4633 932.00
28.7676 2125.00
29.0718 1699.00
29.3761 852.00
29.6804 768.00
29.9846 786.00
30.2889 765.00
30.5931 744.00
30.8974 768.00
31.2017 861.00
31.5059 1318.00
31.8102 5988.00
32.1144 1001.00
32.4187 1022.00
32.723 678.00
33.0272 731.00
33.3315 638.00
33.6357 880.00
33.94 1733.00
34.2443 687.00
34.5485 631.00
34.8528 616.00
35.157 634.00
35.4613 631.00
35.7656 1199.00
36.0698 1330.00
36.3741 1548.00
36.6783 1470.00
36.9826 682.00
37.2869 553.00
37.5911 594.00
37.8954 956.00
38.1996 536.00
38.5039 747.00
38.8082 520.00
39.1124 523.00
39.4167 474.00
39.7209 487.00
40.0252 507.00
40.3295 964.00
40.6337 451.00
40.938 467.00
41.2422 460.00
41.5465 507.00
41.8508 1106.00
42.155 561.00
42.4593 1044.00
42.7635 550.00
43.0678 471.00
43.3721 443.00
43.6763 548.00
43.9806 1618.00
44.2849 600.00
44.5891 406.00
44.8934 497.00
45.1976 497.00
45.5019 491.00
45.8062 1665.00
46.1104 492.00
46.4147 415.00
46.7189 477.00
47.0232 663.00
47.3275 2134.00
47.6317 508.00
47.936 424.00
48.2402 414.00
48.5445 500.00
48.8488 570.00
49.153 2488.00
49.4573 598.00
49.7615 419.00
50.0658 585.00
50.3701 446.00
50.6743 371.00
50.9786 387.00
51.2828 383.00
51.5871 673.00
51.8914 1250.00
52.1956 2466.00
52.4999 601.00
52.8041 360.00
53.1084 550.00
53.4127 348.00
53.7169 350.00
54.0212 365.00
54.3254 417.00
54.6297 503.00
54.934 472.00
55.2382 397.00
55.5425 891.00
55.8467 390.00
56.151 354.00
56.4553 443.00
56.7595 1405.00
57.0638 1112.00
57.368 1345.00
57.6723 500.00
57.9766 436.00
58.2808 408.00
58.5851 641.00
58.8893 608.00
59.1936 355.00
59.4979 336.00
59.8021 378.00
60.1064 500.00
60.4106 342.00
60.7149 359.00
61.0192 620.00
61.3234 1128.00
61.6277 396.00
61.932 588.00
62.2362 489.00
62.5405 540.00
62.8447 1613.00
63.149 901.00
63.4533 426.00
63.7575 309.00
64.0618 391.00
64.366 481.00
64.6703 594.00
64.9745 428.00
65.2788 698.00
65.5831 842.00
65.8873 1081.00
66.1916 512.00
66.4959 344.00
66.8001 340.00
67.1044 926.00
67.4086 585.00
67.7129 374.00
68.0172 313.00
68.3214 268.00
68.6257 278.00
68.9299 292.00
69.2342 426.00
69.5385 910.00
69.8427 334.00
70.147 309.00
70.4512 301.00
70.7555 338.00
71.0598 458.00
71.364 433.00
71.6683 375.00
71.9725 299.00
72.2768 291.00
72.5811 308.00
72.8853 279.00
73.1896 402.00
73.4938 709.00
73.7981 355.00
74.1024 313.00
74.4066 277.00
74.7109 309.00
75.0151 566.00
75.3194 537.00
75.6237 393.00
75.9279 417.00
76.2322 409.00
76.5364 289.00
76.8407 267.00
77.145 288.00
77.4492 411.00
77.7535 518.00
78.0577 361.00
78.362 247.00
78.6663 470.00
78.9705 439.00
79.2748 323.00
79.579 311.00
79.8833 323.00
80.1876 299.00
80.4918 258.00
80.7961 286.00
81.1003 647.00
81.4046 662.00
81.7089 432.00
82.0131 273.00
82.3174 293.00
82.6217 586.00
82.9259 563.00
83.2302 322.00
83.5344 317.00
83.8387 317.00
84.143 272.00
84.4472 256.00
84.7515 274.00
85.0557 298.00
85.36 271.00
85.6643 320.00
85.9685 310.00
86.2728 489.00
86.577 464.00
86.8813 306.00
87.1856 417.00
87.4898 681.00
87.7941 588.00
88.0983 343.00
88.4026 277.00
88.7069 339.00
89.0111 319.00
89.3154 246.00
89.6196 329.00
89.9239 343.00
90.2282 353.00
90.5324 339.00
90.8367 499.00
91.1409 412.00
91.4452 368.00
91.7495 330.00
92.0537 294.00
92.358 553.00
92.6622 511.00
92.9665 323.00
93.2708 373.00
93.575 304.00
93.8793 279.00
94.1835 430.00
94.4878 335.00
94.7921 334.00
95.0963 445.00
95.4006 400.00
95.7048 344.00
96.0091 341.00
96.3134 363.00
96.6176 315.00
96.9219 243.00
97.2261 274.00
97.5304 352.00
97.8347 616.00
98.1389 438.00
98.4432 342.00
98.7474 241.00
99.0517 263.00
99.356 251.00
99.6602 305.00
99.9645 598.00
100.095 550.00

File: NSC_93.xy
9.903433 2898.00
10.2077 2613.00
10.512 2480.00
10.8162 2377.00
11.1205 2371.00
11.4247 2187.00
11.729 2152.00
12.0333 2035.00
12.3375 2053.00
12.6418 1913.00
12.946 1847.00
13.2503 1813.00
13.5546 1829.00
13.8588 1764.00
14.1631 2022.00
14.4673 2327.00
14.7716 1688.00
15.0759 1671.00
15.3801 1457.00
15.6844 1542.00
15.9886 1572.00
16.2929 1526.00
16.5972 1520.00
16.9014 1476.00
17.2057 1481.00
17.5099 1424.00
17.8142 1396.00
18.1185 1343.00
18.4227 1427.00
18.727 1342.00
19.0312 1388.00
19.3355 1416.00
19.6398 2103.00
19.944 3930.00
20.2483 1621.00
20.5525 1616.00
20.8568 4158.00
21.1611 3407.00
21.4653 1297.00
21.7696 1216.00
22.0738 1196.00
22.3781 1220.00
22.6824 1184.00
22.9866 1110.00
23.2909 1077.00
23.5951 1116.00
23.8994 1911.00
24.2037 2893.00
24.5079 1121.00
24.8122 994.00
25.1164 958.00
25.4207 980.00
25.725 967.00
26.0292 916.00
26.3335 913.00
26.6378 1427.00
26.942 1058.00
27.2463 874.00
27.5505 869.00
27.8548 883.00
28.1591 861.00
28.4633 836.00
28.7676 1345.00
29.0718 3081.00
29.3761 1141.00
29.6804 775.00
29.9846 714.00
30.2889 701.00
30.5931 788.00
30.8974 825.00
31.2017 781.00
31.5059 1072.00
31.8102 3837.00
32.1144 2618.00
32.4187 1106.00
32.723 917.00
33.0272 727.00
33.3315 720.00
33.6357 688.00
33.94 1296.00
34.2443 1017.00
34.5485 671.00
34.8528 649.00
35.157 638.00
35.4613 595.00
35.7656 849.00
36.0698 1836.00
36.3741 1127.00
36.6783 2303.00
36.9826 1099.00
37.2869 677.00
37.5911 653.00
37.8954 708.00
38.1996 698.00
38.5039 629.00
38.8082 672.00
39.1124 586.00
39.4167 566.00
39.7209 505.00
40.0252 513.00
40.3295 708.00
40.6337 689.00
40.938 502.00
41.2422 563.00
41.5465 557.00
41.8508 751.00
42.155 1000.00
42.4593 772.00
42.7635 907.00
43.0678 629.00
43.3721 546.00
43.6763 578.00
43.9806 796.00
44.2849 1222.00
44.5891 586.00
44.8934 492.00
45.1976 618.00
45.5019 514.00
45.8062 904.00
46.1104 1121.00
46.4147 493.00
46.7189 463.00
47.0232 548.00
47.3275 1457.00
47.6317 1239.00
47.936 525.00
48.2402 433.00
48.5445 541.00
48.8488 560.00
49.153 1002.00
49.4573 1856.00
49.7615 563.00
50.0658 559.00
50.3701 602.00
50.6743 419.00
50.9786 405.00
51.2828 454.00
51.5871 548.00
51.8914 999.00
52.1956 1359.00
52.4999 1580.00
52.8041 528.00
53.1084 506.00
53.4127 456.00
53.7169 446.00
54.0212 414.00
54.3254 389.00
54.6297 450.00
54.934 563.00
55.2382 451.00
55.5425 558.00
55.8467 778.00
56.151 429.00
56.4553 504.00
56.7595 725.00
57.0638 1298.00
57.368 1571.00
57.6723 1016.00
57.9766 516.00
58.2808 444.00
58.5851 591.00
58.8893 788.00
59.1936 501.00
59.4979 394.00
59.8021 362.00
60.1064 546.00
60.4106 464.00
60.7149 430.00
61.0192 488.00
61.3234 1187.00
61.6277 708.00
61.932 495.00
62.2362 551.00
62.5405 523.00
62.8447 1009.00
63.149 1605.00
63.4533 623.00
63.7575 409.00
64.0618 370.00
64.366 487.00
64.6703 493.00
64.9745 539.00
65.2788 504.00
65.5831 967.00
65.8873 924.00
66.1916 860.00
66.4959 422.00
66.8001 456.00
67.1044 587.00
67.4086 843.00
67.7129 446.00
68.0172 392.00
68.3214 335.00
68.6257 346.00
68.9299 356.00
69.2342 395.00
69.5385 772.00
69.8427 744.00
70.147 411.00
70.4512 338.00
70.7555 367.00
71.0598 457.00
71.364 551.00
71.6683 424.00
71.9725 395.00
72.2768 367.00
72.5811 343.00
72.8853 321.00
73.1896 404.00
73.4938 593.00
73.7981 610.00
74.1024 391.00
74.4066 359.00
74.7109 307.00
75.0151 436.00
75.3194 635.00
75.6237 517.00
75.9279 459.00
76.2322 451.00
76.5364 380.00
76.8407 315.00
77.145 311.00
77.4492 382.00
77.7535 550.00
78.0577 540.00
78.362 423.00
78.6663 376.00
78.9705 478.00
79.2748 401.00
79.579 349.00
79.8833 399.00
80.1876 358.00
80.4918 308.00
80.7961 350.00
81.1003 450.00
81.4046 682.00
81.7089 609.00
82.0131 422.00
82.3174 355.00
82.6217 435.00
82.9259 718.00
83.2302 519.00
83.5344 339.00
83.8387 377.00
84.143 349.00
84.4472 282.00
84.7515 310.00
85.0557 362.00
85.36 348.00
85.6643 307.00
85.9685 352.00
86.2728 394.00
86.577 563.00
86.8813 481.00
87.1856 391.00
87.4898 552.00
87.7941 724.00
88.0983 509.00
88.4026 346.00
88.7069 366.00
89.0111 408.00
89.3154 359.00
89.6196 355.00
89.9239 371.00
90.2282 395.00
90.5324 437.00
90.8367 409.00
91.1409 468.00
91.4452 426.00
91.7495 361.00
92.0537 303.00
92.358 415.00
92.6622 573.00
92.9665 515.00
93.2708 389.00
93.575 370.00
93.8793 332.00
94.1835 495.00
94.4878 427.00
94.7921 318.00
95.0963 426.00
95.4006 468.00
95.7048 377.00
96.0091 377.00
96.3134 428.00
96.6176 374.00
96.9219 359.00
97.2261 326.00
97.5304 383.00
97.8347 585.00
98.1389 515.00
98.4432 438.00
98.7474 349.00
99.0517 321.00
99.356 303.00
99.6602 295.00
99.9645 448.00
100.095 529.00

File: NSC_94.xy
9.903433 2766.00
10.2077 2671.00
10.512 2526.00
10.8162 2375.00
11.1205 2403.00
11.4247 2290.00
11.729 2255.00
12.0333 2013.00
12.3375 2030.00
12.6418 1970.00
12.946 1907.00
13.2503 1848.00
13.5546 1823.00
13.8588 1843.00
14.1631 2248.00
14.4673 2460.00
14.7716 1618.00
15.0759 1646.00
15.3801 1549.00
15.6844 1610.00
15.9886 1581.00
16.2929 1530.00
16.5972 1492.00
16.9014 1415.00
17.2057 1456.00
17.5099 1381.00
17.8142 1399.00
18.1185 1350.00
18.4227 1354.00
18.727 1357.00
19.0312 1393.00
19.3355 1406.00
19.6398 2747.00
19.944 4168.00
20.2483 1471.00
20.5525 1962.00
20.8568 6972.00
21.1611 1538.00
21.4653 1243.00
21.7696 1209.00
22.0738 1132.00
22.3781 1111.00
22.6824 1046.00
22.9866 1058.00
23.2909 1086.00
23.5951 1230.00
23.8994 3053.00
24.2037 1818.00
24.5079 1122.00
24.8122 982.00
25.1164 940.00
25.4207 913.00
25.725 884.00
26.0292 949.00
26.3335 907.00
26.6378 1261.00
26.942 829.00
27.2463 778.00
27.5505 748.00
27.8548 777.00
28.1591 892.00
28.4633 892.00
28.7676 1973.00
29.0718 2810.00
29.3761 897.00
29.6804 751.00
29.9846 714.00
30.2889 769.00
30.5931 769.00
30.8974 780.00
31.2017 794.00
31.5059 1351.00
31.8102 6695.00
32.1144 1097.00
32.4187 1204.00
32.723 643.00
33.0272 614.00
33.3315 621.00
33.6357 678.00
33.94 1042.00
34.2443 759.00
34.5485 655.00
34.8528 627.00
35.157 608.00
35.4613 647.00
35.7656 1110.00
36.0698 1891.00
36.3741 1450.00
36.6783 2258.00
36.9826 668.00
37.2869 588.00
37.5911 573.00
37.8954 616.00
38.1996 556.00
38.5039 716.00
38.8082 482.00
39.1124 502.00
39.4167 494.00
39.7209 482.00
40.0252 538.00
40.3295 879.00
40.6337 532.00
40.938 458.00
41.2422 508.00
41.5465 547.00
41.8508 1064.00
42.155 649.00
42.4593 1048.00
42.7635 558.00
43.0678 596.00
43.3721 437.00
43.6763 470.00
43.9806 1351.00
44.2849 711.00
44.5891 505.00
44.8934 520.00
45.1976 624.00
45.5019 521.00
45.8062 1608.00
46.1104 569.00
46.4147 441.00
46.7189 463.00
47.0232 657.00
47.3275 2340.00
47.6317 571.00
47.936 391.00
48.2402 433.00
48.5445 514.00
48.8488 596.00
49.153 2204.00
49.4573 833.00
49.7615 479.00
50.0658 571.00
50.3701 425.00
50.6743 401.00
50.9786 402.00
51.2828 403.00
51.5871 454.00
51.8914 785.00
52.1956 2353.00
52.4999 752.00
52.8041 402.00
53.1084 569.00
53.4127 348.00
53.7169 369.00
54.0212 351.00
54.3254 396.00
54.6297 404.00
54.934 420.00
55.2382 425.00
55.5425 956.00
55.8467 451.00
56.151 414.00
56.4553 488.00
56.7595 1209.00
57.0638 1113.00
57.368 1693.00
57.6723 458.00
57.9766 419.00
58.2808 426.00
58.5851 613.00
58.8893 661.00
59.1936 365.00
59.4979 336.00
59.8021 402.00
60.1064 523.00
60.4106 332.00
60.7149 369.00
61.0192 539.00
61.3234 1247.00
61.6277 397.00
61.932 478.00
62.2362 559.00
62.5405 503.00
62.8447 1730.00
63.149 1074.00
63.4533 445.00
63.7575 363.00
64.0618 373.00
64.366 470.00
64.6703 411.00
64.9745 402.00
65.2788 624.00
65.5831 955.00
65.8873 889.00
66.1916 515.00
66.4959 349.00
66.8001 331.00
67.1044 804.00
67.4086 702.00
67.7129 401.00
68.0172 332.00
68.3214 308.00
68.6257 282.00
68.9299 291.00
69.2342 434.00
69.5385 963.00
69.8427 421.00
70.147 339.00
70.4512 317.00
70.7555 327.00
71.0598 426.00
71.364 409.00
71.6683 334.00
71.9725 325.00
72.2768 318.00
72.5811 271.00
72.8853 256.00
73.1896 370.00
73.4938 768.00
73.7981 437.00
74.1024 362.00
74.4066 302.00
74.7109 310.00
75.0151 577.00
75.3194 582.00
75.6237 420.00
75.9279 390.00
76.2322 464.00
76.5364 302.00
76.8407 268.00
77.145 275.00
77.4492 406.00
77.7535 583.00
78.0577 460.00
78.362 313.00
78.6663 329.00
78.9705 396.00
79.2748 360.00
79.579 350.00
79.8833 312.00
80.1876 372.00
80.4918 307.00
80.7961 297.00
81.1003 564.00
81.4046 658.00
81.7089 442.00
82.0131 296.00
82.3174 291.00
82.6217 547.00
82.9259 613.00
83.2302 368.00
83.5344 325.00
83.8387 311.00
84.143 244.00
84.4472 274.00
84.7515 284.00
85.0557 371.00
85.36 280.00
85.6643 275.00
85.9685 278.00
86.2728 533.00
86.577 499.00
86.8813 312.00
87.1856 370.00
87.4898 614.00
87.7941 633.00
88.0983 350.00
88.4026 315.00
88.7069 368.00
89.0111 318.00
89.3154 312.00
89.6196 272.00
89.9239 293.00
90.2282 382.00
90.5324 379.00
90.8367 408.00
91.1409 352.00
91.4452 346.00
91.7495 312.00
92.0537 281.00
92.358 517.00
92.6622 522.00
92.9665 455.00
93.2708 307.00
93.575 306.00
93.8793 313.00
94.1835 414.00
94.4878 346.00
94.7921 326.00
95.0963 424.00
95.4006 468.00
95.7048 337.00
96.0091 357.00
96.3134 373.00
96.6176 337.00
96.9219 274.00
97.2261 307.00
97.5304 344.00
97.8347 687.00
98.1389 492.00
98.4432 370.00
98.7474 291.00
99.0517 280.00
99.356 233.00
99.6602 298.00
99.9645 572.00
100.095 576.00

File: NSC_95.xy
9.903433 2817.00
10.2077 2588.00
10.512 2498.00
10.8162 2465.00
11.1205 2420.00
11.4247 2148.00
11.729 2178.00
12.0333 2129.00
12.3375 1995.00
12.6418 1966.00
12.946 1819.00
13.2503 1786.00
13.5546 1845.00
13.8588 1770.00
14.1631 1852.00
14.4673 2233.00
14.7716 1775.00
15.0759 1618.00
15.3801 1585.00
15.6844 1493.00
15.9886 1436.00
16.2929 1508.00
16.5972 1481.00
16.9014 1455.00
17.2057 1467.00
17.5099 1447.00
17.8142 1363.00
18.1185 1368.00
18.4227 1377.00
18.727 1352.00
19.0312 1320.00
19.3355 1315.00
19.6398 1864.00
19.944 3409.00
20.2483 2674.00
20.5525 1794.00
20.8568 3517.00
21.1611 5703.00
21.4653 1381.00
21.7696 1244.00
22.0738 1166.00
22.3781 1187.00
22.6824 1103.00
22.9866 1176.00
23.2909 1152.00
23.5951 1129.00
23.8994 1842.00
24.2037 2620.00
24.5079 1242.00
24.8122 1042.00
25.1164 979.00
25.4207 929.00
25.725 965.00
26.0292 935.00
26.3335 1093.00
26.6378 1920.00
26.942 2367.00
27.2463 839.00
27.5505 912.00
27.8548 833.00
28.1591 847.00
28.4633 891.00
28.7676 1231.00
29.0718 2426.00
29.3761 1422.00
29.6804 846.00
29.9846 808.00
30.2889 790.00
30.5931 735.00
30.8974 749.00
31.2017 791.00
31.5059 974.00
31.8102 2904.00
32.1144 5233.00
32.4187 1113.00
32.723 1020.00
33.0272 749.00
33.3315 670.00
33.6357 825.00
33.94 1623.00
34.2443 1956.00
34.5485 735.00
34.8528 654.00
35.157 679.00
35.4613 656.00
35.7656 846.00
36.0698 1514.00
36.3741 1426.00
36.6783 1966.00
36.9826 1151.00
37.2869 640.00
37.5911 669.00
37.8954 765.00
38.1996 1017.00
38.5039 698.00
38.8082 745.00
39.1124 613.00
39.4167 571.00
39.7209 546.00
40.0252 550.00
40.3295 666.00
40.6337 912.00
40.938 527.00
41.2422 534.00
41.5465 571.00
41.8508 620.00
42.155 961.00
42.4593 845.00
42.7635 935.00
43.0678 519.00
43.3721 553.00
43.6763 472.00
43.9806 769.00
44.2849 1340.00
44.5891 605.00
44.8934 479.00
45.1976 646.00
45.5019 505.00
45.8062 812.00
46.1104 1454.00
46.4147 479.00
46.7189 486.00
47.0232 494.00
47.3275 1166.00
47.6317 1625.00
47.936 548.00
48.2402 476.00
48.5445 468.00
48.8488 608.00
49.153 1074.00
49.4573 2296.00
49.7615 545.00
50.0658 502.00
50.3701 703.00
50.6743 457.00
50.9786 467.00
51.2828 460.00
51.5871 555.00
51.8914 1392.00
52.1956 1803.00
52.4999 2157.00
52.8041 565.00
53.1084 451.00
53.4127 510.00
53.7169 421.00
54.0212 394.00
54.3254 490.00
54.6297 457.00
54.934 616.00
55.2382 537.00
55.5425 609.00
55.8467 788.00
56.151 468.00
56.4553 455.00
56.7595 744.00
57.0638 1462.00
57.368 1539.00
57.6723 848.00
57.9766 533.00
58.2808 510.00
58.5851 499.00
58.8893 648.00
59.1936 604.00
59.4979 405.00
59.8021 399.00
60.1064 536.00
60.4106 437.00
60.7149 402.00
61.0192 436.00
61.3234 912.00
61.6277 905.00
61.932 608.00
62.2362 652.00
62.5405 571.00
62.8447 958.00
63.149 1382.00
63.4533 731.00
63.7575 436.00
64.0618 429.00
64.366 458.00
64.6703 556.00
64.9745 792.00
65.2788 553.00
65.5831 995.00
65.8873 1028.00
66.1916 1067.00
66.4959 513.00
66.8001 349.00
67.1044 446.00
67.4086 861.00
67.7129 602.00
68.0172 380.00
68.3214 373.00
68.6257 362.00
68.9299 345.00
69.2342 377.00
69.5385 775.00
69.8427 680.00
70.147 337.00
70.4512 313.00
70.7555 380.00
71.0598 447.00
71.364 576.00
71.6683 427.00
71.9725 396.00
72.2768 349.00
72.5811 373.00
72.8853 339.00
73.1896 342.00
73.4938 655.00
73.7981 558.00
74.1024 348.00
74.4066 328.00
74.7109 321.00
75.0151 386.00
75.3194 609.00
75.6237 527.00
75.9279 454.00
76.2322 459.00
76.5364 461.00
76.8407 349.00
77.145 345.00
77.4492 394.00
77.7535 565.00
78.0577 543.00
78.362 330.00
78.6663 396.00
78.9705 605.00
79.2748 459.00
79.579 420.00
79.8833 356.00
80.1876 376.00
80.4918 350.00
80.7961 365.00
81.1003 488.00
81.4046 785.00
81.7089 571.00
82.0131 361.00
82.3174 307.00
82.6217 431.00
82.9259 675.00
83.2302 507.00
83.5344 390.00
83.8387 449.00
84.143 399.00
84.4472 327.00
84.7515 266.00
85.0557 384.00
85.36 329.00
85.6643 288.00
85.9685 361.00
86.2728 465.00
86.577 590.00
86.8813 401.00
87.1856 392.00
87.4898 519.00
87.7941 718.00
88.0983 523.00
88.4026 372.00
88.7069 399.00
89.0111 401.00
89.3154 319.00
89.6196 345.00
89.9239 505.00
90.2282 439.00
90.5324 494.00
90.8367 462.00
91.1409 580.00
91.4452 477.00
91.7495 358.00
92.0537 363.00
92.358 460.00
92.6622 673.00
92.9665 542.00
93.2708 373.00
93.575 378.00
93.8793 311.00
94.1835 432.00
94.4878 392.00
94.7921 331.00
95.0963 401.00
95.4006 422.00
95.7048 427.00
96.0091 429.00
96.3134 482.00
96.6176 394.00
96.9219 297.00
97.2261 317.00
97.5304 399.00
97.8347 507.00
98.1389 565.00
98.4432 392.00
98.7474 292.00
99.0517 304.00
99.356 325.00
99.6602 333.00
99.9645 535.00
100.095 643.00