Folder: alab-pipeline/data/xrd_creation/results (part 72)

File: NSC_202.xy
9.903433 2842.00
10.2077 2813.00
10.512 2590.00
10.8162 2608.00
11.1205 2354.00
11.4247 2385.00
11.729 2319.00
12.0333 2221.00
12.3375 2168.00
12.6418 2098.00
12.946 2020.00
13.2503 2116.00
13.5546 2060.00
13.8588 2241.00
14.1631 1928.00
14.4673 1955.00
14.7716 2238.00
15.0759 1866.00
15.3801 1790.00
15.6844 1753.00
15.9886 1738.00
16.2929 1778.00
16.5972 1696.00
16.9014 1798.00
17.2057 1646.00
17.5099 1727.00
17.8142 1573.00
18.1185 1529.00
18.4227 1600.00
18.727 1568.00
19.0312 1653.00
19.3355 2989.00
19.6398 3362.00
19.944 1581.00
20.2483 1699.00
20.5525 1714.00
20.8568 2051.00
21.1611 2256.00
21.4653 2244.00
21.7696 1635.00
22.0738 1535.00
22.3781 2624.00
22.6824 1636.00
22.9866 2016.00
23.2909 1341.00
23.5951 1371.00
23.8994 1536.00
24.2037 1669.00
24.5079 1463.00
24.8122 1394.00
25.1164 1267.00
25.4207 1238.00
25.725 1376.00
26.0292 1270.00
26.3335 1207.00
26.6378 1250.00
26.942 1251.00
27.2463 1310.00
27.5505 1767.00
27.8548 2091.00
28.1591 2443.00
28.4633 2651.00
28.7676 1324.00
29.0718 1318.00
29.3761 1297.00
29.6804 1189.00
29.9846 1262.00
30.2889 1580.00
30.5931 1978.00
30.8974 3968.00
31.2017 2322.00
31.5059 2197.00
31.8102 1920.00
32.1144 1348.00
32.4187 1226.00
32.723 1207.00
33.0272 1697.00
33.3315 1951.00
33.6357 1760.00
33.94 2063.00
34.2443 5019.00
34.5485 1851.00
34.8528 1324.00
35.157 1236.00
35.4613 1408.00
35.7656 1208.00
36.0698 1322.00
36.3741 1080.00
36.6783 1025.00
36.9826 1040.00
37.2869 983.00
37.5911 939.00
37.8954 974.00
38.1996 986.00
38.5039 961.00
38.8082 1096.00
39.1124 1010.00
39.4167 1111.00
39.7209 1215.00
40.0252 1085.00
40.3295 991.00
40.6337 1076.00
40.938 1357.00
41.2422 1542.00
41.5465 1463.00
41.8508 1268.00
42.155 1036.00
42.4593 932.00
42.7635 950.00
43.0678 929.00
43.3721 1116.00
43.6763 1028.00
43.9806 938.00
44.2849 1196.00
44.5891 1593.00
44.8934 1218.00
45.1976 1061.00
45.5019 1149.00
45.8062 1330.00
46.1104 1081.00
46.4147 1227.00
46.7189 1711.00
47.0232 1717.00
47.3275 1252.00
47.6317 1037.00
47.936 947.00
48.2402 1029.00
48.5445 896.00
48.8488 942.00
49.153 1310.00
49.4573 1177.00
49.7615 1050.00
50.0658 1039.00
50.3701 1224.00
50.6743 1538.00
50.9786 1429.00
51.2828 1273.00
51.5871 1048.00
51.8914 972.00
52.1956 983.00
52.4999 1058.00
52.8041 1005.00
53.1084 1105.00
53.4127 1650.00
53.7169 1291.00
54.0212 1189.00
54.3254 1272.00
54.6297 1060.00
54.934 1058.00
55.2382 1125.00
55.5425 1159.00
55.8467 1116.00
56.151 1093.00
56.4553 1055.00
56.7595 908.00
57.0638 894.00
57.368 1144.00
57.6723 1229.00
57.9766 1043.00
58.2808 1130.00
58.5851 1118.00
58.8893 1206.00
59.1936 1532.00
59.4979 1257.00
59.8021 1069.00
60.1064 1205.00
60.4106 1349.00
60.7149 1175.00
61.0192 1236.00
61.3234 1626.00
61.6277 1126.00
61.932 1021.00
62.2362 1029.00
62.5405 1056.00
62.8447 1142.00
63.149 1011.00
63.4533 884.00
63.7575 806.00
64.0618 842.00
64.366 894.00
64.6703 988.00
64.9745 955.00
65.2788 928.00
65.5831 972.00
65.8873 1077.00
66.1916 1177.00
66.4959 1164.00
66.8001 946.00
67.1044 842.00
67.4086 824.00
67.7129 803.00
68.0172 874.00
68.3214 853.00
68.6257 960.00
68.9299 907.00
69.2342 845.00
69.5385 862.00
69.8427 861.00
70.147 724.00
70.4512 871.00
70.7555 844.00
71.0598 805.00
71.364 863.00
71.6683 927.00
71.9725 963.00
72.2768 1045.00
72.5811 899.00
72.8853 847.00
73.1896 826.00
73.4938 873.00
73.7981 836.00
74.1024 765.00
74.4066 820.00
74.7109 824.00
75.0151 869.00
75.3194 879.00
75.6237 919.00
75.9279 873.00
76.2322 856.00
76.5364 860.00
76.8407 922.00
77.145 886.00
77.4492 754.00
77.7535 760.00
78.0577 800.00
78.362 825.00
78.6663 736.00
78.9705 759.00
79.2748 780.00
79.579 857.00
79.8833 871.00
80.1876 868.00
80.4918 938.00
80.7961 867.00
81.1003 755.00
81.4046 797.00
81.7089 777.00
82.0131 891.00
82.3174 915.00
82.6217 892.00
82.9259 778.00
83.2302 831.00
83.5344 803.00
83.8387 849.00
84.143 846.00
84.4472 777.00
84.7515 715.00
85.0557 820.00
85.36 758.00
85.6643 813.00
85.9685 761.00
86.2728 758.00
86.577 827.00
86.8813 875.00
87.1856 890.00
87.4898 819.00
87.7941 820.00
88.0983 823.00
88.4026 805.00
88.7069 874.00
89.0111 838.00
89.3154 821.00
89.6196 783.00
89.9239 898.00
90.2282 908.00
90.5324 924.00
90.8367 850.00
91.1409 771.00
91.4452 860.00
91.7495 804.00
92.0537 746.00
92.358 890.00
92.6622 747.00
92.9665 775.00
93.2708 871.00
93.575 819.00
93.8793 849.00
94.1835 816.00
94.4878 784.00
94.7921 787.00
95.0963 823.00
95.4006 847.00
95.7048 801.00
96.0091 864.00
96.3134 759.00
96.6176 819.00
96.9219 787.00
97.2261 819.00
97.5304 790.00
97.8347 762.00
98.1389 754.00
98.4432 821.00
98.7474 739.00
99.0517 781.00
99.356 835.00
99.6602 839.00
99.9645 878.00
100.095 906.00

File: NSC_203.xy
9.903433 2844.00
10.2077 2719.00
10.512 2650.00
10.8162 2442.00
11.1205 2484.00
11.4247 2391.00
11.729 2229.00
12.0333 2139.00
12.3375 2140.00
12.6418 2076.00
12.946 2018.00
13.2503 1953.00
13.5546 2125.00
13.8588 2699.00
14.1631 2320.00
14.4673 1830.00
14.7716 1844.00
15.0759 1935.00
15.3801 1795.00
15.6844 1877.00
15.9886 1763.00
16.2929 1771.00
16.5972 1735.00
16.9014 1669.00
17.2057 1687.00
17.5099 1836.00
17.8142 1773.00
18.1185 1640.00
18.4227 1616.00
18.727 1621.00
19.0312 1828.00
19.3355 3170.00
19.6398 6712.00
19.944 6301.00
20.2483 1718.00
20.5525 1601.00
20.8568 1805.00
21.1611 1875.00
21.4653 1571.00
21.7696 1559.00
22.0738 1499.00
22.3781 1463.00
22.6824 1569.00
22.9866 2122.00
23.2909 2968.00
23.5951 1448.00
23.8994 1470.00
24.2037 1693.00
24.5079 1833.00
24.8122 1702.00
25.1164 1377.00
25.4207 1336.00
25.725 1307.00
26.0292 1336.00
26.3335 1254.00
26.6378 1353.00
26.942 1345.00
27.2463 1348.00
27.5505 1610.00
27.8548 3557.00
28.1591 2715.00
28.4633 3601.00
28.7676 2318.00
29.0718 1351.00
29.3761 1476.00
29.6804 1343.00
29.9846 1235.00
30.2889 1400.00
30.5931 2038.00
30.8974 4458.00
31.2017 5519.00
31.5059 2436.00
31.8102 3263.00
32.1144 1772.00
32.4187 1259.00
32.723 1265.00
33.0272 1175.00
33.3315 1225.00
33.6357 1231.00
33.94 1382.00
34.2443 2790.00
34.5485 7361.00
34.8528 2995.00
35.157 1344.00
35.4613 1428.00
35.7656 1733.00
36.0698 1241.00
36.3741 1366.00
36.6783 1094.00
36.9826 1044.00
37.2869 1019.00
37.5911 1025.00
37.8954 995.00
38.1996 984.00
38.5039 979.00
38.8082 1002.00
39.1124 1285.00
39.4167 1203.00
39.7209 1063.00
40.0252 1193.00
40.3295 1086.00
40.6337 1047.00
40.938 1206.00
41.2422 1530.00
41.5465 1597.00
41.8508 1633.00
42.155 1503.00
42.4593 1402.00
42.7635 1123.00
43.0678 981.00
43.3721 907.00
43.6763 930.00
43.9806 1037.00
44.2849 1285.00
44.5891 1517.00
44.8934 2125.00
45.1976 1573.00
45.5019 1009.00
45.8062 1091.00
46.1104 1206.00
46.4147 1370.00
46.7189 1572.00
47.0232 2587.00
47.3275 2065.00
47.6317 1198.00
47.936 919.00
48.2402 995.00
48.5445 1013.00
48.8488 880.00
49.153 1080.00
49.4573 1547.00
49.7615 1534.00
50.0658 1107.00
50.3701 1264.00
50.6743 2197.00
50.9786 2454.00
51.2828 1697.00
51.5871 1208.00
51.8914 1050.00
52.1956 910.00
52.4999 879.00
52.8041 996.00
53.1084 986.00
53.4127 1239.00
53.7169 2130.00
54.0212 2214.00
54.3254 1304.00
54.6297 1195.00
54.934 998.00
55.2382 1054.00
55.5425 1142.00
55.8467 1376.00
56.151 1208.00
56.4553 1128.00
56.7595 1037.00
57.0638 966.00
57.368 1061.00
57.6723 1207.00
57.9766 1053.00
58.2808 1084.00
58.5851 1224.00
58.8893 1516.00
59.1936 1726.00
59.4979 1869.00
59.8021 1738.00
60.1064 1284.00
60.4106 1353.00
60.7149 1205.00
61.0192 1086.00
61.3234 1079.00
61.6277 1705.00
61.932 1715.00
62.2362 1359.00
62.5405 1305.00
62.8447 1289.00
63.149 1221.00
63.4533 1217.00
63.7575 948.00
64.0618 855.00
64.366 848.00
64.6703 963.00
64.9745 953.00
65.2788 1124.00
65.5831 1228.00
65.8873 1268.00
66.1916 1250.00
66.4959 1309.00
66.8001 1291.00
67.1044 1106.00
67.4086 919.00
67.7129 805.00
68.0172 845.00
68.3214 702.00
68.6257 876.00
68.9299 1045.00
69.2342 1149.00
69.5385 945.00
69.8427 850.00
70.147 839.00
70.4512 836.00
70.7555 872.00
71.0598 844.00
71.364 888.00
71.6683 927.00
71.9725 949.00
72.2768 1037.00
72.5811 1267.00
72.8853 1241.00
73.1896 1071.00
73.4938 930.00
73.7981 859.00
74.1024 900.00
74.4066 842.00
74.7109 851.00
75.0151 840.00
75.3194 960.00
75.6237 872.00
75.9279 1085.00
76.2322 1065.00
76.5364 925.00
76.8407 867.00
77.145 939.00
77.4492 920.00
77.7535 793.00
78.0577 858.00
78.362 821.00
78.6663 796.00
78.9705 715.00
79.2748 837.00
79.579 881.00
79.8833 926.00
80.1876 868.00
80.4918 902.00
80.7961 1000.00
81.1003 1098.00
81.4046 993.00
81.7089 872.00
82.0131 851.00
82.3174 948.00
82.6217 993.00
82.9259 991.00
83.2302 870.00
83.5344 884.00
83.8387 862.00
84.143 793.00
84.4472 771.00
84.7515 849.00
85.0557 786.00
85.36 738.00
85.6643 818.00
85.9685 912.00
86.2728 811.00
86.577 924.00
86.8813 970.00
87.1856 1049.00
87.4898 1002.00
87.7941 945.00
88.0983 939.00
88.4026 913.00
88.7069 895.00
89.0111 834.00
89.3154 936.00
89.6196 914.00
89.9239 928.00
90.2282 928.00
90.5324 897.00
90.8367 863.00
91.1409 957.00
91.4452 881.00
91.7495 804.00
92.0537 790.00
92.358 791.00
92.6622 873.00
92.9665 929.00
93.2708 951.00
93.575 971.00
93.8793 980.00
94.1835 947.00
94.4878 823.00
94.7921 810.00
95.0963 837.00
95.4006 770.00
95.7048 841.00
96.0091 945.00
96.3134 878.00
96.6176 911.00
96.9219 819.00
97.2261 841.00
97.5304 933.00
97.8347 880.00
98.1389 762.00
98.4432 772.00
98.7474 837.00
99.0517 831.00
99.356 884.00
99.6602 906.00
99.9645 996.00
100.095 928.00

File: NSC_204.xy
9.903433 2807.00
10.2077 2761.00
10.512 2830.00
10.8162 2695.00
11.1205 2508.00
11.4247 2529.00
11.729 2367.00
12.0333 2320.00
12.3375 2380.00
12.6418 2225.00
12.946 2304.00
13.2503 2167.00
13.5546 2261.00
13.8588 2560.00
14.1631 3590.00
14.4673 2064.00
14.7716 2090.00
15.0759 2186.00
15.3801 2020.00
15.6844 1876.00
15.9886 1912.00
16.2929 1942.00
16.5972 1974.00
16.9014 1839.00
17.2057 1966.00
17.5099 1856.00
17.8142 2093.00
18.1185 1941.00
18.4227 1757.00
18.727 1849.00
19.0312 1785.00
19.3355 2327.00
19.6398 7867.00
19.944 8023.00
20.2483 2153.00
20.5525 1863.00
20.8568 1978.00
21.1611 3267.00
21.4653 1899.00
21.7696 1868.00
22.0738 1669.00
22.3781 1750.00
22.6824 2142.00
22.9866 2023.00
23.2909 3664.00
23.5951 2066.00
23.8994 1615.00
24.2037 1842.00
24.5079 2660.00
24.8122 1913.00
25.1164 1724.00
25.4207 1545.00
25.725 1515.00
26.0292 1450.00
26.3335 1490.00
26.6378 1459.00
26.942 1430.00
27.2463 1498.00
27.5505 1548.00
27.8548 2959.00
28.1591 3747.00
28.4633 3811.00
28.7676 6063.00
29.0718 1701.00
29.3761 1501.00
29.6804 1474.00
29.9846 1407.00
30.2889 1534.00
30.5931 2016.00
30.8974 4178.00
31.2017 8296.00
31.5059 3617.00
31.8102 3994.00
32.1144 3901.00
32.4187 1598.00
32.723 1388.00
33.0272 1372.00
33.3315 1523.00
33.6357 1452.00
33.94 1635.00
34.2443 2774.00
34.5485 9372.00
34.8528 4060.00
35.157 2058.00
35.4613 1504.00
35.7656 2587.00
36.0698 1582.00
36.3741 1542.00
36.6783 1250.00
36.9826 1254.00
37.2869 1214.00
37.5911 1195.00
37.8954 1204.00
38.1996 1124.00
38.5039 1122.00
38.8082 1166.00
39.1124 1596.00
39.4167 1349.00
39.7209 1535.00
40.0252 1315.00
40.3295 1247.00
40.6337 1231.00
40.938 1317.00
41.2422 1838.00
41.5465 1723.00
41.8508 1969.00
42.155 2085.00
42.4593 1635.00
42.7635 1291.00
43.0678 1079.00
43.3721 1160.00
43.6763 1121.00
43.9806 1146.00
44.2849 1238.00
44.5891 1989.00
44.8934 2337.00
45.1976 1792.00
45.5019 1363.00
45.8062 1317.00
46.1104 1549.00
46.4147 1469.00
46.7189 1897.00
47.0232 2975.00
47.3275 2457.00
47.6317 1512.00
47.936 1140.00
48.2402 1111.00
48.5445 1099.00
48.8488 1168.00
49.153 1212.00
49.4573 1727.00
49.7615 1920.00
50.0658 1479.00
50.3701 1323.00
50.6743 2072.00
50.9786 2966.00
51.2828 2944.00
51.5871 1608.00
51.8914 1407.00
52.1956 1107.00
52.4999 1028.00
52.8041 1071.00
53.1084 1156.00
53.4127 1704.00
53.7169 2335.00
54.0212 1963.00
54.3254 1464.00
54.6297 1498.00
54.934 1332.00
55.2382 1174.00
55.5425 1314.00
55.8467 1638.00
56.151 1768.00
56.4553 1337.00
56.7595 1373.00
57.0638 1060.00
57.368 1174.00
57.6723 1362.00
57.9766 1368.00
58.2808 1230.00
58.5851 1536.00
58.8893 1696.00
59.1936 2048.00
59.4979 2356.00
59.8021 1791.00
60.1064 1403.00
60.4106 1564.00
60.7149 1675.00
61.0192 1631.00
61.3234 1512.00
61.6277 1990.00
61.932 1798.00
62.2362 1560.00
62.5405 1668.00
62.8447 1541.00
63.149 1467.00
63.4533 1417.00
63.7575 1251.00
64.0618 1038.00
64.366 963.00
64.6703 1084.00
64.9745 1240.00
65.2788 1203.00
65.5831 1235.00
65.8873 1254.00
66.1916 1552.00
66.4959 1838.00
66.8001 1572.00
67.1044 1160.00
67.4086 1020.00
67.7129 998.00
68.0172 946.00
68.3214 1026.00
68.6257 1157.00
68.9299 1139.00
69.2342 1113.00
69.5385 1063.00
69.8427 1105.00
70.147 948.00
70.4512 916.00
70.7555 948.00
71.0598 1001.00
71.364 1031.00
71.6683 1121.00
71.9725 1322.00
72.2768 1234.00
72.5811 1302.00
72.8853 1216.00
73.1896 1198.00
73.4938 1176.00
73.7981 1029.00
74.1024 955.00
74.4066 958.00
74.7109 1019.00
75.0151 1006.00
75.3194 1071.00
75.6237 1135.00
75.9279 1204.00
76.2322 1095.00
76.5364 1021.00
76.8407 1041.00
77.145 1113.00
77.4492 1075.00
77.7535 976.00
78.0577 962.00
78.362 981.00
78.6663 948.00
78.9705 935.00
79.2748 927.00
79.579 926.00
79.8833 1064.00
80.1876 1101.00
80.4918 1154.00
80.7961 1117.00
81.1003 1069.00
81.4046 1055.00
81.7089 1022.00
82.0131 1057.00
82.3174 1109.00
82.6217 1062.00
82.9259 1055.00
83.2302 1004.00
83.5344 1057.00
83.8387 964.00
84.143 980.00
84.4472 981.00
84.7515 984.00
85.0557 958.00
85.36 937.00
85.6643 964.00
85.9685 1033.00
86.2728 1029.00
86.577 959.00
86.8813 1136.00
87.1856 1128.00
87.4898 1094.00
87.7941 995.00
88.0983 1029.00
88.4026 1095.00
88.7069 1111.00
89.0111 1106.00
89.3154 1131.00
89.6196 1026.00
89.9239 978.00
90.2282 1056.00
90.5324 1062.00
90.8367 1032.00
91.1409 976.00
91.4452 892.00
91.7495 915.00
92.0537 956.00
92.358 965.00
92.6622 993.00
92.9665 967.00
93.2708 1037.00
93.575 1033.00
93.8793 1087.00
94.1835 1014.00
94.4878 939.00
94.7921 1012.00
95.0963 975.00
95.4006 939.00
95.7048 1012.00
96.0091 975.00
96.3134 1029.00
96.6176 983.00
96.9219 1000.00
97.2261 1016.00
97.5304 1003.00
97.8347 1012.00
98.1389 981.00
98.4432 920.00
98.7474 883.00
99.0517 983.00
99.356 1026.00
99.6602 1118.00
99.9645 1198.00
100.095 1238.00

File: NSC_205.xy
9.903433 2644.00
10.2077 2687.00
10.512 2525.00
10.8162 2469.00
11.1205 2315.00
11.4247 2271.00
11.729 2115.00
12.0333 2155.00
12.3375 1997.00
12.6418 2007.00
12.946 1967.00
13.2503 1866.00
13.5546 1951.00
13.8588 2348.00
14.1631 1803.00
14.4673 1762.00
14.7716 1910.00
15.0759 1670.00
15.3801 1700.00
15.6844 1638.00
15.9886 1667.00
16.2929 1714.00
16.5972 1633.00
16.9014 1621.00
17.2057 1615.00
17.5099 1630.00
17.8142 1610.00
18.1185 1423.00
18.4227 1441.00
18.727 1452.00
19.0312 1585.00
19.3355 2964.00
19.6398 4915.00
19.944 1691.00
20.2483 1444.00
20.5525 1465.00
20.8568 1649.00
21.1611 1524.00
21.4653 1740.00
21.7696 1424.00
22.0738 1319.00
22.3781 1665.00
22.6824 1569.00
22.9866 1981.00
23.2909 1325.00
23.5951 1307.00
23.8994 1350.00
24.2037 1552.00
24.5079 1352.00
24.8122 1341.00
25.1164 1134.00
25.4207 1116.00
25.725 1174.00
26.0292 1123.00
26.3335 1135.00
26.6378 1109.00
26.942 1121.00
27.2463 1128.00
27.5505 1425.00
27.8548 2864.00
28.1591 1746.00
28.4633 3217.00
28.7676 1408.00
29.0718 1101.00
29.3761 1095.00
29.6804 1092.00
29.9846 1087.00
30.2889 1269.00
30.5931 1734.00
30.8974 3764.00
31.2017 2979.00
31.5059 1861.00
31.8102 2590.00
32.1144 1286.00
32.4187 1124.00
32.723 999.00
33.0272 1154.00
33.3315 1355.00
33.6357 1218.00
33.94 1497.00
34.2443 4700.00
34.5485 2770.00
34.8528 1418.00
35.157 1106.00
35.4613 1231.00
35.7656 1252.00
36.0698 1095.00
36.3741 938.00
36.6783 887.00
36.9826 956.00
37.2869 861.00
37.5911 832.00
37.8954 835.00
38.1996 862.00
38.5039 869.00
38.8082 969.00
39.1124 958.00
39.4167 1040.00
39.7209 962.00
40.0252 968.00
40.3295 868.00
40.6337 884.00
40.938 1069.00
41.2422 1279.00
41.5465 1263.00
41.8508 1314.00
42.155 1165.00
42.4593 924.00
42.7635 826.00
43.0678 869.00
43.3721 906.00
43.6763 912.00
43.9806 860.00
44.2849 1064.00
44.5891 1600.00
44.8934 1310.00
45.1976 976.00
45.5019 910.00
45.8062 1086.00
46.1104 996.00
46.4147 1120.00
46.7189 1592.00
47.0232 2078.00
47.3275 1072.00
47.6317 871.00
47.936 800.00
48.2402 895.00
48.5445 864.00
48.8488 881.00
49.153 1069.00
49.4573 1125.00
49.7615 1181.00
50.0658 922.00
50.3701 1047.00
50.6743 1735.00
50.9786 1783.00
51.2828 1256.00
51.5871 972.00
51.8914 918.00
52.1956 877.00
52.4999 841.00
52.8041 809.00
53.1084 1003.00
53.4127 1685.00
53.7169 1660.00
54.0212 1041.00
54.3254 990.00
54.6297 1035.00
54.934 910.00
55.2382 922.00
55.5425 1008.00
55.8467 1144.00
56.151 923.00
56.4553 1031.00
56.7595 851.00
57.0638 817.00
57.368 961.00
57.6723 1102.00
57.9766 963.00
58.2808 977.00
58.5851 1100.00
58.8893 1270.00
59.1936 1551.00
59.4979 1552.00
59.8021 974.00
60.1064 990.00
60.4106 1182.00
60.7149 1069.00
61.0192 1039.00
61.3234 1393.00
61.6277 1111.00
61.932 991.00
62.2362 1004.00
62.5405 1143.00
62.8447 1063.00
63.149 1078.00
63.4533 970.00
63.7575 804.00
64.0618 713.00
64.366 833.00
64.6703 877.00
64.9745 968.00
65.2788 926.00
65.5831 918.00
65.8873 1019.00
66.1916 1300.00
66.4959 1247.00
66.8001 1017.00
67.1044 803.00
67.4086 775.00
67.7129 677.00
68.0172 775.00
68.3214 802.00
68.6257 940.00
68.9299 951.00
69.2342 798.00
69.5385 849.00
69.8427 829.00
70.147 747.00
70.4512 812.00
70.7555 782.00
71.0598 780.00
71.364 741.00
71.6683 906.00
71.9725 868.00
72.2768 1100.00
72.5811 952.00
72.8853 836.00
73.1896 871.00
73.4938 876.00
73.7981 788.00
74.1024 777.00
74.4066 774.00
74.7109 704.00
75.0151 730.00
75.3194 869.00
75.6237 923.00
75.9279 1000.00
76.2322 850.00
76.5364 829.00
76.8407 796.00
77.145 962.00
77.4492 733.00
77.7535 702.00
78.0577 749.00
78.362 746.00
78.6663 771.00
78.9705 725.00
79.2748 761.00
79.579 783.00
79.8833 856.00
80.1876 824.00
80.4918 961.00
80.7961 898.00
81.1003 761.00
81.4046 705.00
81.7089 797.00
82.0131 810.00
82.3174 890.00
82.6217 799.00
82.9259 765.00
83.2302 795.00
83.5344 788.00
83.8387 759.00
84.143 778.00
84.4472 764.00
84.7515 731.00
85.0557 739.00
85.36 733.00
85.6643 776.00
85.9685 798.00
86.2728 802.00
86.577 848.00
86.8813 932.00
87.1856 944.00
87.4898 884.00
87.7941 797.00
88.0983 788.00
88.4026 807.00
88.7069 780.00
89.0111 878.00
89.3154 820.00
89.6196 799.00
89.9239 771.00
90.2282 822.00
90.5324 930.00
90.8367 842.00
91.1409 803.00
91.4452 751.00
91.7495 786.00
92.0537 842.00
92.358 784.00
92.6622 762.00
92.9665 780.00
93.2708 791.00
93.575 832.00
93.8793 851.00
94.1835 821.00
94.4878 771.00
94.7921 778.00
95.0963 801.00
95.4006 756.00
95.7048 868.00
96.0091 843.00
96.3134 856.00
96.6176 808.00
96.9219 777.00
97.2261 799.00
97.5304 831.00
97.8347 855.00
98.1389 799.00
98.4432 737.00
98.7474 677.00
99.0517 798.00
99.356 875.00
99.6602 873.00
99.9645 897.00
100.095 1049.00

File: NSC_206.xy
9.903433 2709.00
10.2077 2585.00
10.512 2538.00
10.8162 2358.00
11.1205 2327.00
11.4247 2249.00
11.729 2215.00
12.0333 2200.00
12.3375 2055.00
12.6418 1993.00
12.946 1969.00
13.2503 1966.00
13.5546 1981.00
13.8588 2239.00
14.1631 1894.00
14.4673 1927.00
14.7716 2058.00
15.0759 1727.00
15.3801 1686.00
15.6844 1619.00
15.9886 1646.00
16.2929 1642.00
16.5972 1606.00
16.9014 1662.00
17.2057 1576.00
17.5099 1618.00
17.8142 1549.00
18.1185 1527.00
18.4227 1487.00
18.727 1525.00
19.0312 1531.00
19.3355 2747.00
19.6398 4259.00
19.944 1580.00
20.2483 1436.00
20.5525 1530.00
20.8568 1770.00
21.1611 1677.00
21.4653 1839.00
21.7696 1407.00
22.0738 1295.00
22.3781 2096.00
22.6824 1546.00
22.9866 2077.00
23.2909 1332.00
23.5951 1212.00
23.8994 1448.00
24.2037 1524.00
24.5079 1386.00
24.8122 1337.00
25.1164 1202.00
25.4207 1134.00
25.725 1218.00
26.0292 1201.00
26.3335 1190.00
26.6378 1086.00
26.942 1120.00
27.2463 1213.00
27.5505 1601.00
27.8548 2543.00
28.1591 1900.00
28.4633 2687.00
28.7676 1290.00
29.0718 1056.00
29.3761 1076.00
29.6804 1077.00
29.9846 1158.00
30.2889 1277.00
30.5931 1675.00
30.8974 3068.00
31.2017 3329.00
31.5059 2110.00
31.8102 2086.00
32.1144 1091.00
32.4187 1144.00
32.723 1066.00
33.0272 1305.00
33.3315 1438.00
33.6357 1397.00
33.94 1537.00
34.2443 4978.00
34.5485 2097.00
34.8528 1261.00
35.157 990.00
35.4613 1255.00
35.7656 1097.00
36.0698 1213.00
36.3741 924.00
36.6783 867.00
36.9826 910.00
37.2869 858.00
37.5911 875.00
37.8954 856.00
38.1996 843.00
38.5039 910.00
38.8082 998.00
39.1124 922.00
39.4167 940.00
39.7209 1015.00
40.0252 939.00
40.3295 869.00
40.6337 901.00
40.938 1086.00
41.2422 1265.00
41.5465 1138.00
41.8508 1354.00
42.155 963.00
42.4593 880.00
42.7635 775.00
43.0678 897.00
43.3721 997.00
43.6763 923.00
43.9806 794.00
44.2849 990.00
44.5891 1498.00
44.8934 1255.00
45.1976 991.00
45.5019 865.00
45.8062 1015.00
46.1104 862.00
46.4147 983.00
46.7189 1267.00
47.0232 2194.00
47.3275 1043.00
47.6317 891.00
47.936 839.00
48.2402 836.00
48.5445 894.00
48.8488 875.00
49.153 1244.00
49.4573 1088.00
49.7615 976.00
50.0658 834.00
50.3701 1068.00
50.6743 1331.00
50.9786 1459.00
51.2828 1344.00
51.5871 962.00
51.8914 873.00
52.1956 776.00
52.4999 925.00
52.8041 842.00
53.1084 953.00
53.4127 1433.00
53.7169 1511.00
54.0212 1052.00
54.3254 1151.00
54.6297 920.00
54.934 918.00
55.2382 926.00
55.5425 953.00
55.8467 1056.00
56.151 913.00
56.4553 997.00
56.7595 862.00
57.0638 745.00
57.368 950.00
57.6723 1033.00
57.9766 930.00
58.2808 966.00
58.5851 900.00
58.8893 965.00
59.1936 1304.00
59.4979 1647.00
59.8021 954.00
60.1064 933.00
60.4106 1073.00
60.7149 940.00
61.0192 993.00
61.3234 1351.00
61.6277 1128.00
61.932 933.00
62.2362 893.00
62.5405 1005.00
62.8447 1085.00
63.149 1028.00
63.4533 859.00
63.7575 726.00
64.0618 694.00
64.366 749.00
64.6703 800.00
64.9745 813.00
65.2788 885.00
65.5831 807.00
65.8873 947.00
66.1916 1066.00
66.4959 1119.00
66.8001 1023.00
67.1044 771.00
67.4086 695.00
67.7129 681.00
68.0172 717.00
68.3214 718.00
68.6257 827.00
68.9299 857.00
69.2342 740.00
69.5385 753.00
69.8427 724.00
70.147 727.00
70.4512 732.00
70.7555 721.00
71.0598 772.00
71.364 751.00
71.6683 863.00
71.9725 934.00
72.2768 964.00
72.5811 897.00
72.8853 730.00
73.1896 751.00
73.4938 822.00
73.7981 727.00
74.1024 738.00
74.4066 667.00
74.7109 681.00
75.0151 711.00
75.3194 787.00
75.6237 811.00
75.9279 849.00
76.2322 757.00
76.5364 718.00
76.8407 734.00
77.145 722.00
77.4492 743.00
77.7535 724.00
78.0577 659.00
78.362 613.00
78.6663 679.00
78.9705 619.00
79.2748 659.00
79.579 729.00
79.8833 694.00
80.1876 812.00
80.4918 832.00
80.7961 871.00
81.1003 761.00
81.4046 701.00
81.7089 723.00
82.0131 744.00
82.3174 800.00
82.6217 823.00
82.9259 672.00
83.2302 743.00
83.5344 700.00
83.8387 815.00
84.143 720.00
84.4472 753.00
84.7515 688.00
85.0557 708.00
85.36 662.00
85.6643 713.00
85.9685 668.00
86.2728 736.00
86.577 656.00
86.8813 799.00
87.1856 783.00
87.4898 833.00
87.7941 758.00
88.0983 736.00
88.4026 750.00
88.7069 736.00
89.0111 761.00
89.3154 724.00
89.6196 754.00
89.9239 738.00
90.2282 776.00
90.5324 796.00
90.8367 780.00
91.1409 688.00
91.4452 721.00
91.7495 729.00
92.0537 735.00
92.358 766.00
92.6622 686.00
92.9665 611.00
93.2708 641.00
93.575 699.00
93.8793 759.00
94.1835 711.00
94.4878 694.00
94.7921 697.00
95.0963 729.00
95.4006 738.00
95.7048 746.00
96.0091 821.00
96.3134 724.00
96.6176 699.00
96.9219 693.00
97.2261 743.00
97.5304 718.00
97.8347 717.00
98.1389 714.00
98.4432 675.00
98.7474 674.00
99.0517 671.00
99.356 719.00
99.6602 766.00
99.9645 751.00
100.095 761.00