Folder: alab-pipeline/data/xrd_creation/results (part 57)

File: NSC_123.xy
9.903433 2662.00
10.2077 2628.00
10.512 2517.00
10.8162 2395.00
11.1205 2253.00
11.4247 2195.00
11.729 2094.00
12.0333 2028.00
12.3375 1950.00
12.6418 1899.00
12.946 1922.00
13.2503 1785.00
13.5546 1713.00
13.8588 1719.00
14.1631 1890.00
14.4673 2394.00
14.7716 1953.00
15.0759 1630.00
15.3801 1633.00
15.6844 1534.00
15.9886 1619.00
16.2929 1562.00
16.5972 1479.00
16.9014 1506.00
17.2057 1515.00
17.5099 1478.00
17.8142 1406.00
18.1185 1481.00
18.4227 1409.00
18.727 1367.00
19.0312 1389.00
19.3355 1383.00
19.6398 1791.00
19.944 3743.00
20.2483 4050.00
20.5525 1589.00
20.8568 2845.00
21.1611 13426.00
21.4653 1539.00
21.7696 1365.00
22.0738 1394.00
22.3781 1312.00
22.6824 1371.00
22.9866 1134.00
23.2909 1118.00
23.5951 1155.00
23.8994 1465.00
24.2037 3511.00
24.5079 1524.00
24.8122 1064.00
25.1164 1035.00
25.4207 1060.00
25.725 988.00
26.0292 1005.00
26.3335 1000.00
26.6378 933.00
26.942 911.00
27.2463 934.00
27.5505 904.00
27.8548 887.00
28.1591 860.00
28.4633 892.00
28.7676 1020.00
29.0718 2362.00
29.3761 2776.00
29.6804 874.00
29.9846 909.00
30.2889 859.00
30.5931 840.00
30.8974 810.00
31.2017 863.00
31.5059 965.00
31.8102 1754.00
32.1144 13143.00
32.4187 1132.00
32.723 1598.00
33.0272 770.00
33.3315 791.00
33.6357 725.00
33.94 748.00
34.2443 864.00
34.5485 853.00
34.8528 729.00
35.157 655.00
35.4613 737.00
35.7656 720.00
36.0698 1404.00
36.3741 2390.00
36.6783 1752.00
36.9826 2765.00
37.2869 770.00
37.5911 665.00
37.8954 655.00
38.1996 618.00
38.5039 651.00
38.8082 954.00
39.1124 597.00
39.4167 569.00
39.7209 555.00
40.0252 590.00
40.3295 635.00
40.6337 1444.00
40.938 613.00
41.2422 595.00
41.5465 556.00
41.8508 622.00
42.155 1524.00
42.4593 824.00
42.7635 1639.00
43.0678 615.00
43.3721 626.00
43.6763 589.00
43.9806 644.00
44.2849 2304.00
44.5891 751.00
44.8934 571.00
45.1976 586.00
45.5019 714.00
45.8062 661.00
46.1104 3150.00
46.4147 676.00
46.7189 547.00
47.0232 575.00
47.3275 784.00
47.6317 3604.00
47.936 638.00
48.2402 539.00
48.5445 553.00
48.8488 786.00
49.153 758.00
49.4573 4200.00
49.7615 779.00
50.0658 497.00
50.3701 872.00
50.6743 569.00
50.9786 464.00
51.2828 447.00
51.5871 481.00
51.8914 529.00
52.1956 625.00
52.4999 4238.00
52.8041 680.00
53.1084 488.00
53.4127 715.00
53.7169 466.00
54.0212 459.00
54.3254 419.00
54.6297 514.00
54.934 451.00
55.2382 466.00
55.5425 504.00
55.8467 1500.00
56.151 522.00
56.4553 465.00
56.7595 561.00
57.0638 2157.00
57.368 1511.00
57.6723 2092.00
57.9766 521.00
58.2808 484.00
58.5851 600.00
58.8893 907.00
59.1936 872.00
59.4979 439.00
59.8021 456.00
60.1064 513.00
60.4106 675.00
60.7149 491.00
61.0192 451.00
61.3234 747.00
61.6277 1574.00
61.932 478.00
62.2362 589.00
62.5405 714.00
62.8447 691.00
63.149 2434.00
63.4533 1311.00
63.7575 499.00
64.0618 451.00
64.366 503.00
64.6703 624.00
64.9745 441.00
65.2788 441.00
65.5831 1065.00
65.8873 1248.00
66.1916 1190.00
66.4959 551.00
66.8001 446.00
67.1044 452.00
67.4086 1291.00
67.7129 826.00
68.0172 459.00
68.3214 428.00
68.6257 414.00
68.9299 384.00
69.2342 417.00
69.5385 651.00
69.8427 1218.00
70.147 463.00
70.4512 368.00
70.7555 362.00
71.0598 470.00
71.364 633.00
71.6683 457.00
71.9725 475.00
72.2768 410.00
72.5811 391.00
72.8853 406.00
73.1896 364.00
73.4938 513.00
73.7981 1025.00
74.1024 485.00
74.4066 413.00
74.7109 427.00
75.0151 427.00
75.3194 845.00
75.6237 821.00
75.9279 528.00
76.2322 570.00
76.5364 594.00
76.8407 389.00
77.145 357.00
77.4492 430.00
77.7535 549.00
78.0577 817.00
78.362 501.00
78.6663 366.00
78.9705 370.00
79.2748 502.00
79.579 411.00
79.8833 458.00
80.1876 438.00
80.4918 424.00
80.7961 402.00
81.1003 408.00
81.4046 879.00
81.7089 839.00
82.0131 559.00
82.3174 372.00
82.6217 374.00
82.9259 870.00
83.2302 783.00
83.5344 450.00
83.8387 372.00
84.143 356.00
84.4472 335.00
84.7515 339.00
85.0557 411.00
85.36 447.00
85.6643 300.00
85.9685 373.00
86.2728 437.00
86.577 896.00
86.8813 654.00
87.1856 360.00
87.4898 481.00
87.7941 951.00
88.0983 783.00
88.4026 397.00
88.7069 439.00
89.0111 499.00
89.3154 421.00
89.6196 359.00
89.9239 340.00
90.2282 359.00
90.5324 572.00
90.8367 516.00
91.1409 503.00
91.4452 488.00
91.7495 450.00
92.0537 383.00
92.358 356.00
92.6622 880.00
92.9665 773.00
93.2708 473.00
93.575 345.00
93.8793 351.00
94.1835 529.00
94.4878 541.00
94.7921 431.00
95.0963 375.00
95.4006 622.00
95.7048 540.00
96.0091 394.00
96.3134 525.00
96.6176 494.00
96.9219 394.00
97.2261 373.00
97.5304 361.00
97.8347 546.00
98.1389 824.00
98.4432 596.00
98.7474 418.00
99.0517 342.00
99.356 356.00
99.6602 350.00
99.9645 454.00
100.095 619.00

File: NSC_124.xy
9.903433 2820.00
10.2077 2649.00
10.512 2635.00
10.8162 2580.00
11.1205 2362.00
11.4247 2403.00
11.729 2433.00
12.0333 2192.00
12.3375 2259.00
12.6418 2221.00
12.946 2164.00
13.2503 2074.00
13.5546 2161.00
13.8588 2108.00
14.1631 2073.00
14.4673 2129.00
14.7716 2950.00
15.0759 6084.00
15.3801 3392.00
15.6844 2039.00
15.9886 1951.00
16.2929 1898.00
16.5972 1864.00
16.9014 1944.00
17.2057 1887.00
17.5099 1824.00
17.8142 2254.00
18.1185 1836.00
18.4227 1880.00
18.727 1789.00
19.0312 1789.00
19.3355 1737.00
19.6398 1704.00
19.944 1745.00
20.2483 1893.00
20.5525 3869.00
20.8568 16647.00
21.1611 4297.00
21.4653 5718.00
21.7696 7862.00
22.0738 8538.00
22.3781 2242.00
22.6824 1861.00
22.9866 1782.00
23.2909 1944.00
23.5951 2124.00
23.8994 1791.00
24.2037 1684.00
24.5079 2003.00
24.8122 3585.00
25.1164 7037.00
25.4207 7484.00
25.725 1687.00
26.0292 1549.00
26.3335 1658.00
26.6378 1525.00
26.942 1510.00
27.2463 1625.00
27.5505 1495.00
27.8548 1415.00
28.1591 1421.00
28.4633 1504.00
28.7676 1565.00
29.0718 1638.00
29.3761 1501.00
29.6804 2327.00
29.9846 4685.00
30.2889 7813.00
30.5931 4838.00
30.8974 1565.00
31.2017 1406.00
31.5059 1351.00
31.8102 1500.00
32.1144 1441.00
32.4187 1342.00
32.723 1664.00
33.0272 3975.00
33.3315 10073.00
33.6357 5055.00
33.94 2359.00
34.2443 1738.00
34.5485 1294.00
34.8528 1256.00
35.157 1254.00
35.4613 1302.00
35.7656 2130.00
36.0698 1451.00
36.3741 1312.00
36.6783 1466.00
36.9826 2442.00
37.2869 3002.00
37.5911 4130.00
37.8954 3131.00
38.1996 3395.00
38.5039 2383.00
38.8082 1580.00
39.1124 1223.00
39.4167 1270.00
39.7209 1213.00
40.0252 1191.00
40.3295 1514.00
40.6337 1367.00
40.938 1127.00
41.2422 1214.00
41.5465 1112.00
41.8508 1298.00
42.155 1624.00
42.4593 1547.00
42.7635 1093.00
43.0678 1191.00
43.3721 1244.00
43.6763 1461.00
43.9806 2350.00
44.2849 1724.00
44.5891 1381.00
44.8934 1356.00
45.1976 1431.00
45.5019 1291.00
45.8062 1382.00
46.1104 1919.00
46.4147 1653.00
46.7189 1366.00
47.0232 1418.00
47.3275 1652.00
47.6317 1929.00
47.936 2719.00
48.2402 2442.00
48.5445 1852.00
48.8488 1596.00
49.153 1915.00
49.4573 3024.00
49.7615 2497.00
50.0658 1482.00
50.3701 1352.00
50.6743 1476.00
50.9786 1743.00
51.2828 2102.00
51.5871 2556.00
51.8914 2005.00
52.1956 1434.00
52.4999 1191.00
52.8041 1177.00
53.1084 1121.00
53.4127 1122.00
53.7169 1155.00
54.0212 1495.00
54.3254 1841.00
54.6297 2792.00
54.934 2561.00
55.2382 1564.00
55.5425 1414.00
55.8467 1383.00
56.151 1285.00
56.4553 1132.00
56.7595 1150.00
57.0638 1223.00
57.368 1381.00
57.6723 1432.00
57.9766 1870.00
58.2808 2249.00
58.5851 1997.00
58.8893 1788.00
59.1936 1950.00
59.4979 2487.00
59.8021 2469.00
60.1064 2085.00
60.4106 1554.00
60.7149 1406.00
61.0192 1132.00
61.3234 1334.00
61.6277 1593.00
61.932 1521.00
62.2362 1151.00
62.5405 1213.00
62.8447 1395.00
63.149 1389.00
63.4533 1524.00
63.7575 1570.00
64.0618 2129.00
64.366 1900.00
64.6703 1597.00
64.9745 1346.00
65.2788 1385.00
65.5831 1656.00
65.8873 1977.00
66.1916 2298.00
66.4959 2004.00
66.8001 1363.00
67.1044 1249.00
67.4086 1307.00
67.7129 1316.00
68.0172 1294.00
68.3214 1479.00
68.6257 1772.00
68.9299 1603.00
69.2342 1601.00
69.5385 1471.00
69.8427 1338.00
70.147 1290.00
70.4512 1729.00
70.7555 1631.00
71.0598 1293.00
71.364 1155.00
71.6683 1073.00
71.9725 1084.00
72.2768 1093.00
72.5811 1278.00
72.8853 1357.00
73.1896 1269.00
73.4938 1153.00
73.7981 1101.00
74.1024 1074.00
74.4066 1134.00
74.7109 1158.00
75.0151 1098.00
75.3194 1102.00
75.6237 1101.00
75.9279 1068.00
76.2322 1088.00
76.5364 1190.00
76.8407 1231.00
77.145 1248.00
77.4492 1136.00
77.7535 1157.00
78.0577 1179.00
78.362 1146.00
78.6663 1223.00
78.9705 1311.00
79.2748 1231.00
79.579 1258.00
79.8833 1203.00
80.1876 1265.00
80.4918 1136.00
80.7961 1094.00
81.1003 1141.00
81.4046 1075.00
81.7089 1169.00
82.0131 1129.00
82.3174 1060.00
82.6217 1097.00
82.9259 1088.00
83.2302 1127.00
83.5344 1114.00
83.8387 1158.00
84.143 1236.00
84.4472 1164.00
84.7515 1134.00
85.0557 1105.00
85.36 1186.00
85.6643 1151.00
85.9685 1129.00
86.2728 1127.00
86.577 1138.00
86.8813 1265.00
87.1856 1268.00
87.4898 1159.00
87.7941 1057.00
88.0983 1019.00
88.4026 946.00
88.7069 928.00
89.0111 913.00
89.3154 980.00
89.6196 958.00
89.9239 1032.00
90.2282 1056.00
90.5324 1127.00
90.8367 1084.00
91.1409 1156.00
91.4452 1112.00
91.7495 1143.00
92.0537 1351.00
92.358 1436.00
92.6622 1324.00
92.9665 1184.00
93.2708 1075.00
93.575 999.00
93.8793 955.00
94.1835 980.00
94.4878 999.00
94.7921 1018.00
95.0963 1082.00
95.4006 1068.00
95.7048 1148.00
96.0091 1095.00
96.3134 1089.00
96.6176 1085.00
96.9219 1085.00
97.2261 1104.00
97.5304 1083.00
97.8347 1115.00
98.1389 1038.00
98.4432 1026.00
98.7474 1118.00
99.0517 1089.00
99.356 1037.00
99.6602 1072.00
99.9645 1080.00
100.095 1061.00

File: NSC_126.xy
9.903433 2970.00
10.2077 2818.00
10.512 2818.00
10.8162 2718.00
11.1205 2704.00
11.4247 2585.00
11.729 2534.00
12.0333 2471.00
12.3375 2418.00
12.6418 2349.00
12.946 2378.00
13.2503 2271.00
13.5546 2275.00
13.8588 2522.00
14.1631 3716.00
14.4673 2298.00
14.7716 2224.00
15.0759 2205.00
15.3801 2171.00
15.6844 2092.00
15.9886 2113.00
16.2929 2137.00
16.5972 2027.00
16.9014 2025.00
17.2057 2084.00
17.5099 1935.00
17.8142 2028.00
18.1185 1940.00
18.4227 1997.00
18.727 2005.00
19.0312 1986.00
19.3355 2541.00
19.6398 6431.00
19.944 2769.00
20.2483 5048.00
20.5525 6439.00
20.8568 2235.00
21.1611 2063.00
21.4653 2058.00
21.7696 2269.00
22.0738 2517.00
22.3781 1948.00
22.6824 1880.00
22.9866 1990.00
23.2909 2713.00
23.5951 14203.00
23.8994 2197.00
24.2037 1991.00
24.5079 1911.00
24.8122 2224.00
25.1164 1796.00
25.4207 1779.00
25.725 1826.00
26.0292 1773.00
26.3335 1834.00
26.6378 3503.00
26.942 1838.00
27.2463 1722.00
27.5505 1762.00
27.8548 1688.00
28.1591 2202.00
28.4633 14338.00
28.7676 1882.00
29.0718 1745.00
29.3761 1742.00
29.6804 1599.00
29.9846 1676.00
30.2889 1649.00
30.5931 1891.00
30.8974 1879.00
31.2017 3301.00
31.5059 13541.00
31.8102 2127.00
32.1144 1699.00
32.4187 1661.00
32.723 1630.00
33.0272 1624.00
33.3315 1628.00
33.6357 1619.00
33.94 2427.00
34.2443 1660.00
34.5485 1660.00
34.8528 1772.00
35.157 7043.00
35.4613 4379.00
35.7656 2200.00
36.0698 2321.00
36.3741 1882.00
36.6783 1685.00
36.9826 1532.00
37.2869 1564.00
37.5911 1933.00
37.8954 1599.00
38.1996 1445.00
38.5039 1517.00
38.8082 1556.00
39.1124 1513.00
39.4167 1632.00
39.7209 2070.00
40.0252 1661.00
40.3295 1522.00
40.6337 1502.00
40.938 1580.00
41.2422 2395.00
41.5465 2311.00
41.8508 1872.00
42.155 1994.00
42.4593 1653.00
42.7635 1619.00
43.0678 3920.00
43.3721 1593.00
43.6763 2116.00
43.9806 1448.00
44.2849 1415.00
44.5891 1514.00
44.8934 2235.00
45.1976 3125.00
45.5019 1512.00
45.8062 1642.00
46.1104 3060.00
46.4147 1581.00
46.7189 2698.00
47.0232 1618.00
47.3275 1496.00
47.6317 1817.00
47.936 3953.00
48.2402 2396.00
48.5445 1927.00
48.8488 1565.00
49.153 1475.00
49.4573 1387.00
49.7615 1522.00
50.0658 1598.00
50.3701 1664.00
50.6743 1724.00
50.9786 1482.00
51.2828 2621.00
51.5871 3445.00
51.8914 1903.00
52.1956 1379.00
52.4999 1462.00
52.8041 1528.00
53.1084 1413.00
53.4127 1446.00
53.7169 1477.00
54.0212 1570.00
54.3254 3065.00
54.6297 1643.00
54.934 1875.00
55.2382 3524.00
55.5425 4751.00
55.8467 1622.00
56.151 1433.00
56.4553 1453.00
56.7595 1712.00
57.0638 1498.00
57.368 1445.00
57.6723 1556.00
57.9766 1507.00
58.2808 2261.00
58.5851 2043.00
58.8893 1418.00
59.1936 1396.00
59.4979 1456.00
59.8021 2156.00
60.1064 2826.00
60.4106 1568.00
60.7149 1584.00
61.0192 4288.00
61.3234 1668.00
61.6277 1431.00
61.932 1500.00
62.2362 1988.00
62.5405 2561.00
62.8447 1388.00
63.149 1992.00
63.4533 2453.00
63.7575 2097.00
64.0618 1841.00
64.366 1404.00
64.6703 1378.00
64.9745 1478.00
65.2788 1807.00
65.5831 1623.00
65.8873 1516.00
66.1916 2331.00
66.4959 1869.00
66.8001 1396.00
67.1044 1908.00
67.4086 1783.00
67.7129 2285.00
68.0172 1712.00
68.3214 1393.00
68.6257 1519.00
68.9299 1754.00
69.2342 1366.00
69.5385 1364.00
69.8427 1377.00
70.147 1347.00
70.4512 1236.00
70.7555 1617.00
71.0598 2215.00
71.364 1468.00
71.6683 1337.00
71.9725 1343.00
72.2768 1410.00
72.5811 1339.00
72.8853 1327.00
73.1896 1378.00
73.4938 1468.00
73.7981 2131.00
74.1024 1558.00
74.4066 1398.00
74.7109 1781.00
75.0151 2135.00
75.3194 1639.00
75.6237 1703.00
75.9279 1446.00
76.2322 1317.00
76.5364 1439.00
76.8407 1423.00
77.145 1456.00
77.4492 1462.00
77.7535 1340.00
78.0577 1298.00
78.362 1824.00
78.6663 1952.00
78.9705 1812.00
79.2748 1530.00
79.579 1456.00
79.8833 1425.00
80.1876 1333.00
80.4918 1338.00
80.7961 1732.00
81.1003 1817.00
81.4046 1314.00
81.7089 1292.00
82.0131 1271.00
82.3174 1376.00
82.6217 1391.00
82.9259 1367.00
83.2302 2482.00
83.5344 1684.00
83.8387 1319.00
84.143 1267.00
84.4472 1402.00
84.7515 1540.00
85.0557 1475.00
85.36 1576.00
85.6643 1346.00
85.9685 1487.00
86.2728 1402.00
86.577 1398.00
86.8813 1508.00
87.1856 1466.00
87.4898 1297.00
87.7941 1402.00
88.0983 1377.00
88.4026 1309.00
88.7069 1432.00
89.0111 1699.00
89.3154 2567.00
89.6196 1897.00
89.9239 1348.00
90.2282 1479.00
90.5324 1466.00
90.8367 1328.00
91.1409 1408.00
91.4452 1877.00
91.7495 1628.00
92.0537 1399.00
92.358 1527.00
92.6622 1387.00
92.9665 1312.00
93.2708 1351.00
93.575 1509.00
93.8793 1612.00
94.1835 1404.00
94.4878 1404.00
94.7921 1491.00
95.0963 1568.00
95.4006 1428.00
95.7048 1688.00
96.0091 1572.00
96.3134 1782.00
96.6176 1505.00
96.9219 1441.00
97.2261 1343.00
97.5304 1265.00
97.8347 1324.00
98.1389 1353.00
98.4432 1321.00
98.7474 1490.00
99.0517 1364.00
99.356 1427.00
99.6602 1421.00
99.9645 1555.00
100.095 1684.00

File: NSC_127.xy
9.903433 2984.00
10.2077 2898.00
10.512 2834.00
10.8162 2801.00
11.1205 2815.00
11.4247 2743.00
11.729 2605.00
12.0333 2605.00
12.3375 2582.00
12.6418 2493.00
12.946 2398.00
13.2503 2455.00
13.5546 2325.00
13.8588 2550.00
14.1631 3735.00
14.4673 4111.00
14.7716 2370.00
15.0759 2359.00
15.3801 2325.00
15.6844 2320.00
15.9886 2326.00
16.2929 2313.00
16.5972 2239.00
16.9014 2174.00
17.2057 2185.00
17.5099 2164.00
17.8142 2208.00
18.1185 2189.00
18.4227 2135.00
18.727 2530.00
19.0312 3132.00
19.3355 2293.00
19.6398 4533.00
19.944 9933.00
20.2483 2902.00
20.5525 12490.00
20.8568 2522.00
21.1611 2265.00
21.4653 2383.00
21.7696 6231.00
22.0738 2608.00
22.3781 2162.00
22.6824 2105.00
22.9866 2142.00
23.2909 2315.00
23.5951 4177.00
23.8994 8375.00
24.2037 2506.00
24.5079 3905.00
24.8122 2371.00
25.1164 1947.00
25.4207 1928.00
25.725 2021.00
26.0292 1947.00
26.3335 1945.00
26.6378 2810.00
26.942 2176.00
27.2463 1954.00
27.5505 1881.00
27.8548 1941.00
28.1591 2049.00
28.4633 4059.00
28.7676 5168.00
29.0718 2018.00
29.3761 1998.00
29.6804 1940.00
29.9846 1838.00
30.2889 1931.00
30.5931 2094.00
30.8974 3319.00
31.2017 2127.00
31.5059 9559.00
31.8102 4581.00
32.1144 1852.00
32.4187 1845.00
32.723 1858.00
33.0272 1783.00
33.3315 1811.00
33.6357 1614.00
33.94 2415.00
34.2443 1976.00
34.5485 1752.00
34.8528 1721.00
35.157 1985.00
35.4613 4949.00
35.7656 5726.00
36.0698 3094.00
36.3741 4313.00
36.6783 1884.00
36.9826 1605.00
37.2869 1655.00
37.5911 2272.00
37.8954 1774.00
38.1996 1849.00
38.5039 1620.00
38.8082 1602.00
39.1124 1661.00
39.4167 1631.00
39.7209 1978.00
40.0252 2251.00
40.3295 1711.00
40.6337 1610.00
40.938 1540.00
41.2422 1738.00
41.5465 2394.00
41.8508 2215.00
42.155 1790.00
42.4593 1766.00
42.7635 1568.00
43.0678 1664.00
43.3721 2800.00
43.6763 2500.00
43.9806 1881.00
44.2849 1801.00
44.5891 1564.00
44.8934 1653.00
45.1976 3409.00
45.5019 2379.00
45.8062 1733.00
46.1104 1749.00
46.4147 3415.00
46.7189 1854.00
47.0232 2596.00
47.3275 1746.00
47.6317 1539.00
47.936 1750.00
48.2402 4010.00
48.5445 2970.00
48.8488 1777.00
49.153 1892.00
49.4573 1752.00
49.7615 2668.00
50.0658 1588.00
50.3701 1518.00
50.6743 1590.00
50.9786 1721.00
51.2828 1679.00
51.5871 3545.00
51.8914 2639.00
52.1956 2055.00
52.4999 1662.00
52.8041 1588.00
53.1084 1764.00
53.4127 1544.00
53.7169 1551.00
54.0212 1603.00
54.3254 1767.00
54.6297 2743.00
54.934 2286.00
55.2382 1913.00
55.5425 3226.00
55.8467 4421.00
56.151 2161.00
56.4553 1553.00
56.7595 1592.00
57.0638 1682.00
57.368 1822.00
57.6723 1681.00
57.9766 1667.00
58.2808 2302.00
58.5851 2515.00
58.8893 2207.00
59.1936 1632.00
59.4979 1583.00
59.8021 1557.00
60.1064 2286.00
60.4106 2530.00
60.7149 1773.00
61.0192 1635.00
61.3234 2371.00
61.6277 2148.00
61.932 1650.00
62.2362 1560.00
62.5405 2128.00
62.8447 2061.00
63.149 1942.00
63.4533 2087.00
63.7575 2267.00
64.0618 2749.00
64.366 2321.00
64.6703 1592.00
64.9745 1526.00
65.2788 1858.00
65.5831 1812.00
65.8873 1579.00
66.1916 1651.00
66.4959 2072.00
66.8001 1803.00
67.1044 1592.00
67.4086 2036.00
67.7129 2039.00
68.0172 1855.00
68.3214 1859.00
68.6257 1719.00
68.9299 1544.00
69.2342 1762.00
69.5385 1657.00
69.8427 1550.00
70.147 1406.00
70.4512 1552.00
70.7555 1523.00
71.0598 1481.00
71.364 2171.00
71.6683 2038.00
71.9725 1502.00
72.2768 1528.00
72.5811 1551.00
72.8853 1614.00
73.1896 1513.00
73.4938 1381.00
73.7981 1494.00
74.1024 1730.00
74.4066 1812.00
74.7109 1642.00
75.0151 1679.00
75.3194 1932.00
75.6237 1995.00
75.9279 2106.00
76.2322 1595.00
76.5364 1517.00
76.8407 1713.00
77.145 1602.00
77.4492 1586.00
77.7535 1595.00
78.0577 1412.00
78.362 1482.00
78.6663 1510.00
78.9705 1899.00
79.2748 2038.00
79.579 1812.00
79.8833 1557.00
80.1876 1581.00
80.4918 1493.00
80.7961 1493.00
81.1003 1567.00
81.4046 1791.00
81.7089 1636.00
82.0131 1528.00
82.3174 1487.00
82.6217 1496.00
82.9259 1423.00
83.2302 1460.00
83.5344 1479.00
83.8387 1757.00
84.143 1758.00
84.4472 1500.00
84.7515 1444.00
85.0557 1692.00
85.36 1749.00
85.6643 1572.00
85.9685 1640.00
86.2728 1759.00
86.577 1625.00
86.8813 1649.00
87.1856 1573.00
87.4898 1506.00
87.7941 1487.00
88.0983 1433.00
88.4026 1591.00
88.7069 1559.00
89.0111 1697.00
89.3154 1558.00
89.6196 1616.00
89.9239 1942.00
90.2282 1805.00
90.5324 1580.00
90.8367 1452.00
91.1409 1535.00
91.4452 1578.00
91.7495 1628.00
92.0537 1900.00
92.358 1644.00
92.6622 1603.00
92.9665 1490.00
93.2708 1464.00
93.575 1358.00
93.8793 1462.00
94.1835 1490.00
94.4878 1478.00
94.7921 1397.00
95.0963 1523.00
95.4006 1732.00
95.7048 1732.00
96.0091 1555.00
96.3134 1575.00
96.6176 1582.00
96.9219 1664.00
97.2261 1661.00
97.5304 1533.00
97.8347 1501.00
98.1389 1473.00
98.4432 1435.00
98.7474 1433.00
99.0517 1492.00
99.356 1604.00
99.6602 1585.00
99.9645 1575.00
100.095 1616.00

File: NSC_128.xy
9.903433 2901.00
10.2077 2826.00
10.512 2747.00
10.8162 2675.00
11.1205 2677.00
11.4247 2496.00
11.729 2440.00
12.0333 2390.00
12.3375 2279.00
12.6418 2343.00
12.946 2262.00
13.2503 2152.00
13.5546 2166.00
13.8588 2421.00
14.1631 3641.00
14.4673 4063.00
14.7716 2274.00
15.0759 2132.00
15.3801 2151.00
15.6844 2050.00
15.9886 2083.00
16.2929 2142.00
16.5972 2028.00
16.9014 2063.00
17.2057 2069.00
17.5099 2048.00
17.8142 2039.00
18.1185 1881.00
18.4227 1971.00
18.727 2330.00
19.0312 2857.00
19.3355 2161.00
19.6398 4449.00
19.944 13474.00
20.2483 3061.00
20.5525 15522.00
20.8568 2347.00
21.1611 2090.00
21.4653 2279.00
21.7696 6776.00
22.0738 2268.00
22.3781 1894.00
22.6824 1808.00
22.9866 1911.00
23.2909 1954.00
23.5951 3594.00
23.8994 7364.00
24.2037 2234.00
24.5079 3486.00
24.8122 1962.00
25.1164 1801.00
25.4207 1671.00
25.725 1756.00
26.0292 1696.00
26.3335 1691.00
26.6378 2405.00
26.942 1875.00
27.2463 1692.00
27.5505 1610.00
27.8548 1695.00
28.1591 1764.00
28.4633 3860.00
28.7676 6291.00
29.0718 1742.00
29.3761 1649.00
29.6804 1651.00
29.9846 1662.00
30.2889 1563.00
30.5931 1799.00
30.8974 3259.00
31.2017 1868.00
31.5059 8066.00
31.8102 4965.00
32.1144 1603.00
32.4187 1649.00
32.723 1587.00
33.0272 1599.00
33.3315 1639.00
33.6357 1456.00
33.94 2130.00
34.2443 1867.00
34.5485 1610.00
34.8528 1629.00
35.157 1820.00
35.4613 6272.00
35.7656 6406.00
36.0698 2759.00
36.3741 4397.00
36.6783 1539.00
36.9826 1456.00
37.2869 1467.00
37.5911 1861.00
37.8954 1469.00
38.1996 1637.00
38.5039 1375.00
38.8082 1447.00
39.1124 1366.00
39.4167 1506.00
39.7209 1737.00
40.0252 2143.00
40.3295 1463.00
40.6337 1366.00
40.938 1355.00
41.2422 1462.00
41.5465 2481.00
41.8508 2229.00
42.155 1660.00
42.4593 1584.00
42.7635 1289.00
43.0678 1492.00
43.3721 2851.00
43.6763 2072.00
43.9806 1672.00
44.2849 1673.00
44.5891 1383.00
44.8934 1408.00
45.1976 2742.00
45.5019 2659.00
45.8062 1561.00
46.1104 1529.00
46.4147 3792.00
46.7189 1640.00
47.0232 2561.00
47.3275 1683.00
47.6317 1401.00
47.936 1531.00
48.2402 3414.00
48.5445 2973.00
48.8488 1590.00
49.153 1620.00
49.4573 1486.00
49.7615 2730.00
50.0658 1306.00
50.3701 1337.00
50.6743 1340.00
50.9786 1638.00
51.2828 1539.00
51.5871 3016.00
51.8914 3066.00
52.1956 1995.00
52.4999 1436.00
52.8041 1399.00
53.1084 1534.00
53.4127 1396.00
53.7169 1341.00
54.0212 1389.00
54.3254 1429.00
54.6297 2576.00
54.934 2340.00
55.2382 1612.00
55.5425 3514.00
55.8467 4587.00
56.151 1958.00
56.4553 1319.00
56.7595 1361.00
57.0638 1342.00
57.368 1440.00
57.6723 1373.00
57.9766 1420.00
58.2808 2012.00
58.5851 2335.00
58.8893 2025.00
59.1936 1521.00
59.4979 1333.00
59.8021 1300.00
60.1064 1809.00
60.4106 2633.00
60.7149 1725.00
61.0192 1385.00
61.3234 2102.00
61.6277 2048.00
61.932 1460.00
62.2362 1378.00
62.5405 1742.00
62.8447 1841.00
63.149 1839.00
63.4533 1641.00
63.7575 2080.00
64.0618 2607.00
64.366 2172.00
64.6703 1531.00
64.9745 1256.00
65.2788 1446.00
65.5831 1558.00
65.8873 1413.00
66.1916 1288.00
66.4959 1701.00
66.8001 1728.00
67.1044 1526.00
67.4086 1787.00
67.7129 1873.00
68.0172 1714.00
68.3214 1825.00
68.6257 1595.00
68.9299 1299.00
69.2342 1544.00
69.5385 1509.00
69.8427 1229.00
70.147 1186.00
70.4512 1283.00
70.7555 1392.00
71.0598 1294.00
71.364 1901.00
71.6683 1938.00
71.9725 1362.00
72.2768 1256.00
72.5811 1282.00
72.8853 1337.00
73.1896 1162.00
73.4938 1180.00
73.7981 1320.00
74.1024 1561.00
74.4066 1721.00
74.7109 1405.00
75.0151 1322.00
75.3194 1705.00
75.6237 1898.00
75.9279 1798.00
76.2322 1441.00
76.5364 1240.00
76.8407 1421.00
77.145 1347.00
77.4492 1283.00
77.7535 1316.00
78.0577 1309.00
78.362 1278.00
78.6663 1366.00
78.9705 1704.00
79.2748 1825.00
79.579 1657.00
79.8833 1371.00
80.1876 1332.00
80.4918 1342.00
80.7961 1263.00
81.1003 1290.00
81.4046 1543.00
81.7089 1528.00
82.0131 1448.00
82.3174 1212.00
82.6217 1193.00
82.9259 1301.00
83.2302 1182.00
83.5344 1182.00
83.8387 1585.00
84.143 1612.00
84.4472 1347.00
84.7515 1220.00
85.0557 1494.00
85.36 1574.00
85.6643 1437.00
85.9685 1589.00
86.2728 1543.00
86.577 1383.00
86.8813 1416.00
87.1856 1344.00
87.4898 1305.00
87.7941 1266.00
88.0983 1257.00
88.4026 1305.00
88.7069 1418.00
89.0111 1434.00
89.3154 1383.00
89.6196 1327.00
89.9239 1700.00
90.2282 1642.00
90.5324 1474.00
90.8367 1394.00
91.1409 1253.00
91.4452 1291.00
91.7495 1362.00
92.0537 1711.00
92.358 1648.00
92.6622 1453.00
92.9665 1368.00
93.2708 1321.00
93.575 1272.00
93.8793 1221.00
94.1835 1269.00
94.4878 1301.00
94.7921 1343.00
95.0963 1314.00
95.4006 1464.00
95.7048 1497.00
96.0091 1470.00
96.3134 1414.00
96.6176 1442.00
96.9219 1491.00
97.2261 1547.00
97.5304 1344.00
97.8347 1292.00
98.1389 1228.00
98.4432 1236.00
98.7474 1264.00
99.0517 1281.00
99.356 1309.00
99.6602 1426.00
99.9645 1367.00
100.095 1368.00