Folder: alab-pipeline/data/xrd_creation/results (part 12)

File: Na_51.xy
9.903433 2570.00
10.2077 2506.00
10.512 2405.00
10.8162 2322.00
11.1205 2240.00
11.4247 2136.00
11.729 2176.00
12.0333 2099.00
12.3375 2185.00
12.6418 1901.00
12.946 1888.00
13.2503 1767.00
13.5546 1803.00
13.8588 1775.00
14.1631 1791.00
14.4673 1698.00
14.7716 1622.00
15.0759 1706.00
15.3801 1587.00
15.6844 1585.00
15.9886 1551.00
16.2929 1539.00
16.5972 1575.00
16.9014 1488.00
17.2057 1397.00
17.5099 1469.00
17.8142 1431.00
18.1185 1390.00
18.4227 1380.00
18.727 1262.00
19.0312 1306.00
19.3355 1285.00
19.6398 1281.00
19.944 1191.00
20.2483 1216.00
20.5525 1186.00
20.8568 1149.00
21.1611 1157.00
21.4653 1155.00
21.7696 1088.00
22.0738 1124.00
22.3781 1098.00
22.6824 1821.00
22.9866 1065.00
23.2909 1040.00
23.5951 1153.00
23.8994 1115.00
24.2037 1155.00
24.5079 1136.00
24.8122 1165.00
25.1164 1017.00
25.4207 998.00
25.725 1024.00
26.0292 1174.00
26.3335 998.00
26.6378 1062.00
26.942 1224.00
27.2463 2970.00
27.5505 13448.00
27.8548 1362.00
28.1591 1283.00
28.4633 1064.00
28.7676 984.00
29.0718 971.00
29.3761 946.00
29.6804 961.00
29.9846 911.00
30.2889 922.00
30.5931 873.00
30.8974 917.00
31.2017 1017.00
31.5059 1195.00
31.8102 4083.00
32.1144 6767.00
32.4187 1053.00
32.723 1165.00
33.0272 1016.00
33.3315 909.00
33.6357 961.00
33.94 863.00
34.2443 797.00
34.5485 756.00
34.8528 754.00
35.157 715.00
35.4613 805.00
35.7656 700.00
36.0698 697.00
36.3741 791.00
36.6783 754.00
36.9826 729.00
37.2869 704.00
37.5911 796.00
37.8954 883.00
38.1996 7655.00
38.5039 1147.00
38.8082 797.00
39.1124 767.00
39.4167 851.00
39.7209 1548.00
40.0252 4975.00
40.3295 786.00
40.6337 692.00
40.938 723.00
41.2422 735.00
41.5465 676.00
41.8508 657.00
42.155 639.00
42.4593 655.00
42.7635 623.00
43.0678 610.00
43.3721 658.00
43.6763 612.00
43.9806 660.00
44.2849 712.00
44.5891 708.00
44.8934 1691.00
45.1976 883.00
45.5019 1973.00
45.8062 8750.00
46.1104 2267.00
46.4147 1425.00
46.7189 684.00
47.0232 817.00
47.3275 699.00
47.6317 635.00
47.936 651.00
48.2402 613.00
48.5445 701.00
48.8488 1714.00
49.153 1783.00
49.4573 661.00
49.7615 631.00
50.0658 594.00
50.3701 524.00
50.6743 566.00
50.9786 544.00
51.2828 557.00
51.5871 526.00
51.8914 550.00
52.1956 505.00
52.4999 564.00
52.8041 517.00
53.1084 519.00
53.4127 535.00
53.7169 568.00
54.0212 697.00
54.3254 771.00
54.6297 588.00
54.934 572.00
55.2382 562.00
55.5425 593.00
55.8467 626.00
56.151 917.00
56.4553 1972.00
56.7595 3133.00
57.0638 670.00
57.368 540.00
57.6723 555.00
57.9766 574.00
58.2808 550.00
58.5851 586.00
58.8893 674.00
59.1936 572.00
59.4979 984.00
59.8021 809.00
60.1064 491.00
60.4106 526.00
60.7149 513.00
61.0192 576.00
61.3234 835.00
61.6277 623.00
61.932 540.00
62.2362 771.00
62.5405 1832.00
62.8447 661.00
63.149 549.00
63.4533 556.00
63.7575 560.00
64.0618 493.00
64.366 568.00
64.6703 1774.00
64.9745 1698.00
65.2788 588.00
65.5831 543.00
65.8873 542.00
66.1916 619.00
66.4959 1397.00
66.8001 551.00
67.1044 506.00
67.4086 570.00
67.7129 1015.00
68.0172 573.00
68.3214 513.00
68.6257 560.00
68.9299 465.00
69.2342 513.00
69.5385 479.00
69.8427 492.00
70.147 519.00
70.4512 520.00
70.7555 629.00
71.0598 1778.00
71.364 718.00
71.6683 665.00
71.9725 797.00
72.2768 992.00
72.5811 537.00
72.8853 503.00
73.1896 577.00
73.4938 559.00
73.7981 596.00
74.1024 637.00
74.4066 518.00
74.7109 566.00
75.0151 665.00
75.3194 1068.00
75.6237 1856.00
75.9279 702.00
76.2322 485.00
76.5364 549.00
76.8407 580.00
77.145 483.00
77.4492 452.00
77.7535 493.00
78.0577 507.00
78.362 479.00
78.6663 462.00
78.9705 494.00
79.2748 441.00
79.579 491.00
79.8833 438.00
80.1876 484.00
80.4918 466.00
80.7961 464.00
81.1003 522.00
81.4046 648.00
81.7089 567.00
82.0131 481.00
82.3174 483.00
82.6217 497.00
82.9259 489.00
83.2302 481.00
83.5344 526.00
83.8387 623.00
84.143 2117.00
84.4472 1328.00
84.7515 527.00
85.0557 771.00
85.36 885.00
85.6643 877.00
85.9685 596.00
86.2728 504.00
86.577 450.00
86.8813 519.00
87.1856 644.00
87.4898 618.00
87.7941 514.00
88.0983 502.00
88.4026 429.00
88.7069 499.00
89.0111 499.00
89.3154 485.00
89.6196 638.00
89.9239 778.00
90.2282 579.00
90.5324 578.00
90.8367 555.00
91.1409 518.00
91.4452 518.00
91.7495 776.00
92.0537 813.00
92.358 512.00
92.6622 447.00
92.9665 432.00
93.2708 517.00
93.575 471.00
93.8793 493.00
94.1835 538.00
94.4878 725.00
94.7921 587.00
95.0963 492.00
95.4006 499.00
95.7048 703.00
96.0091 572.00
96.3134 498.00
96.6176 519.00
96.9219 481.00
97.2261 473.00
97.5304 673.00
97.8347 644.00
98.1389 524.00
98.4432 496.00
98.7474 539.00
99.0517 483.00
99.356 445.00
99.6602 487.00
99.9645 481.00
100.095 450.00

File: Na_52.xy
9.903433 2559.00
10.2077 2404.00
10.512 2282.00
10.8162 2312.00
11.1205 2129.00
11.4247 2050.00
11.729 1950.00
12.0333 1898.00
12.3375 1784.00
12.6418 1731.00
12.946 1720.00
13.2503 1615.00
13.5546 1565.00
13.8588 1580.00
14.1631 1482.00
14.4673 1505.00
14.7716 1344.00
15.0759 1301.00
15.3801 1291.00
15.6844 1299.00
15.9886 1285.00
16.2929 1248.00
16.5972 1223.00
16.9014 1197.00
17.2057 1206.00
17.5099 1146.00
17.8142 1072.00
18.1185 1034.00
18.4227 1066.00
18.727 1033.00
19.0312 992.00
19.3355 1000.00
19.6398 989.00
19.944 923.00
20.2483 951.00
20.5525 986.00
20.8568 926.00
21.1611 927.00
21.4653 853.00
21.7696 905.00
22.0738 817.00
22.3781 847.00
22.6824 885.00
22.9866 818.00
23.2909 792.00
23.5951 777.00
23.8994 777.00
24.2037 718.00
24.5079 716.00
24.8122 685.00
25.1164 703.00
25.4207 649.00
25.725 709.00
26.0292 739.00
26.3335 739.00
26.6378 668.00
26.942 629.00
27.2463 672.00
27.5505 622.00
27.8548 638.00
28.1591 699.00
28.4633 690.00
28.7676 639.00
29.0718 657.00
29.3761 602.00
29.6804 580.00
29.9846 612.00
30.2889 683.00
30.5931 578.00
30.8974 571.00
31.2017 586.00
31.5059 505.00
31.8102 515.00
32.1144 514.00
32.4187 472.00
32.723 491.00
33.0272 457.00
33.3315 549.00
33.6357 540.00
33.94 506.00
34.2443 483.00
34.5485 478.00
34.8528 420.00
35.157 432.00
35.4613 459.00
35.7656 429.00
36.0698 422.00
36.3741 475.00
36.6783 447.00
36.9826 443.00
37.2869 423.00
37.5911 411.00
37.8954 386.00
38.1996 369.00
38.5039 388.00
38.8082 371.00
39.1124 374.00
39.4167 387.00
39.7209 400.00
40.0252 411.00
40.3295 344.00
40.6337 350.00
40.938 338.00
41.2422 351.00
41.5465 372.00
41.8508 334.00
42.155 361.00
42.4593 361.00
42.7635 307.00
43.0678 337.00
43.3721 383.00
43.6763 393.00
43.9806 329.00
44.2849 349.00
44.5891 317.00
44.8934 329.00
45.1976 327.00
45.5019 320.00
45.8062 310.00
46.1104 282.00
46.4147 317.00
46.7189 309.00
47.0232 310.00
47.3275 272.00
47.6317 312.00
47.936 301.00
48.2402 304.00
48.5445 313.00
48.8488 294.00
49.153 280.00
49.4573 284.00
49.7615 266.00
50.0658 265.00
50.3701 300.00
50.6743 276.00
50.9786 275.00
51.2828 286.00
51.5871 279.00
51.8914 293.00
52.1956 267.00
52.4999 276.00
52.8041 263.00
53.1084 258.00
53.4127 242.00
53.7169 297.00
54.0212 277.00
54.3254 236.00
54.6297 274.00
54.934 283.00
55.2382 249.00
55.5425 301.00
55.8467 237.00
56.151 241.00
56.4553 232.00
56.7595 227.00
57.0638 240.00
57.368 221.00
57.6723 237.00
57.9766 270.00
58.2808 261.00
58.5851 224.00
58.8893 208.00
59.1936 201.00
59.4979 209.00
59.8021 245.00
60.1064 205.00
60.4106 205.00
60.7149 220.00
61.0192 226.00
61.3234 190.00
61.6277 214.00
61.932 203.00
62.2362 216.00
62.5405 221.00
62.8447 220.00
63.149 233.00
63.4533 209.00
63.7575 207.00
64.0618 192.00
64.366 189.00
64.6703 233.00
64.9745 215.00
65.2788 221.00
65.5831 184.00
65.8873 196.00
66.1916 207.00
66.4959 212.00
66.8001 203.00
67.1044 186.00
67.4086 228.00
67.7129 232.00
68.0172 209.00
68.3214 200.00
68.6257 207.00
68.9299 201.00
69.2342 219.00
69.5385 218.00
69.8427 203.00
70.147 215.00
70.4512 231.00
70.7555 222.00
71.0598 177.00
71.364 192.00
71.6683 226.00
71.9725 214.00
72.2768 205.00
72.5811 176.00
72.8853 234.00
73.1896 217.00
73.4938 217.00
73.7981 237.00
74.1024 247.00
74.4066 232.00
74.7109 218.00
75.0151 218.00
75.3194 222.00
75.6237 222.00
75.9279 208.00
76.2322 228.00
76.5364 204.00
76.8407 221.00
77.145 208.00
77.4492 234.00
77.7535 257.00
78.0577 225.00
78.362 211.00
78.6663 275.00
78.9705 200.00
79.2748 228.00
79.579 244.00
79.8833 232.00
80.1876 239.00
80.4918 262.00
80.7961 196.00
81.1003 259.00
81.4046 246.00
81.7089 233.00
82.0131 212.00
82.3174 215.00
82.6217 265.00
82.9259 236.00
83.2302 236.00
83.5344 239.00
83.8387 245.00
84.143 214.00
84.4472 238.00
84.7515 235.00
85.0557 234.00
85.36 204.00
85.6643 240.00
85.9685 201.00
86.2728 220.00
86.577 198.00
86.8813 227.00
87.1856 217.00
87.4898 201.00
87.7941 236.00
88.0983 217.00
88.4026 189.00
88.7069 213.00
89.0111 214.00
89.3154 227.00
89.6196 204.00
89.9239 221.00
90.2282 216.00
90.5324 192.00
90.8367 190.00
91.1409 189.00
91.4452 204.00
91.7495 189.00
92.0537 188.00
92.358 203.00
92.6622 203.00
92.9665 196.00
93.2708 216.00
93.575 216.00
93.8793 205.00
94.1835 210.00
94.4878 190.00
94.7921 180.00
95.0963 222.00
95.4006 213.00
95.7048 210.00
96.0091 197.00
96.3134 184.00
96.6176 192.00
96.9219 178.00
97.2261 188.00
97.5304 200.00
97.8347 204.00
98.1389 188.00
98.4432 189.00
98.7474 199.00
99.0517 188.00
99.356 196.00
99.6602 190.00
99.9645 227.00
100.095 186.00

File: Na_53.xy
9.903433 3158.00
10.2077 3080.00
10.512 2929.00
10.8162 2919.00
11.1205 2870.00
11.4247 2788.00
11.729 2547.00
12.0333 2655.00
12.3375 2586.00
12.6418 2566.00
12.946 2484.00
13.2503 2469.00
13.5546 2535.00
13.8588 3627.00
14.1631 3329.00
14.4673 7529.00
14.7716 2637.00
15.0759 3221.00
15.3801 8241.00
15.6844 2485.00
15.9886 2352.00
16.2929 2412.00
16.5972 3314.00
16.9014 4896.00
17.2057 2359.00
17.5099 2426.00
17.8142 2841.00
18.1185 5517.00
18.4227 2313.00
18.727 4011.00
19.0312 2329.00
19.3355 2030.00
19.6398 2158.00
19.944 4078.00
20.2483 2261.00
20.5525 3427.00
20.8568 2406.00
21.1611 2032.00
21.4653 1894.00
21.7696 1871.00
22.0738 1949.00
22.3781 1923.00
22.6824 2175.00
22.9866 6887.00
23.2909 2305.00
23.5951 1887.00
23.8994 1787.00
24.2037 1848.00
24.5079 1842.00
24.8122 1811.00
25.1164 1971.00
25.4207 4898.00
25.725 2517.00
26.0292 1898.00
26.3335 2340.00
26.6378 7332.00
26.942 2584.00
27.2463 1903.00
27.5505 1934.00
27.8548 1991.00
28.1591 1679.00
28.4633 1755.00
28.7676 2276.00
29.0718 1948.00
29.3761 4016.00
29.6804 1736.00
29.9846 1754.00
30.2889 1670.00
30.5931 1905.00
30.8974 1635.00
31.2017 2298.00
31.5059 3197.00
31.8102 3572.00
32.1144 4898.00
32.4187 1627.00
32.723 1558.00
33.0272 1832.00
33.3315 1503.00
33.6357 1748.00
33.94 1637.00
34.2443 2218.00
34.5485 1533.00
34.8528 1557.00
35.157 2837.00
35.4613 1714.00
35.7656 1705.00
36.0698 3062.00
36.3741 2185.00
36.6783 1727.00
36.9826 2310.00
37.2869 1840.00
37.5911 1710.00
37.8954 4498.00
38.1996 2987.00
38.5039 1587.00
38.8082 1671.00
39.1124 3562.00
39.4167 1740.00
39.7209 2336.00
40.0252 3611.00
40.3295 2936.00
40.6337 1765.00
40.938 3791.00
41.2422 1899.00
41.5465 2171.00
41.8508 1718.00
42.155 1815.00
42.4593 1573.00
42.7635 1905.00
43.0678 3652.00
43.3721 2172.00
43.6763 1687.00
43.9806 1456.00
44.2849 1491.00
44.5891 3043.00
44.8934 2790.00
45.1976 1648.00
45.5019 2190.00
45.8062 3426.00
46.1104 1658.00
46.4147 1801.00
46.7189 1785.00
47.0232 1490.00
47.3275 3223.00
47.6317 1819.00
47.936 2134.00
48.2402 2501.00
48.5445 1969.00
48.8488 1825.00
49.153 1539.00
49.4573 1657.00
49.7615 2010.00
50.0658 1507.00
50.3701 1404.00
50.6743 1678.00
50.9786 1319.00
51.2828 1366.00
51.5871 1572.00
51.8914 1578.00
52.1956 1928.00
52.4999 1471.00
52.8041 1290.00
53.1084 1466.00
53.4127 1255.00
53.7169 1276.00
54.0212 1296.00
54.3254 1352.00
54.6297 1244.00
54.934 1342.00
55.2382 1954.00
55.5425 1676.00
55.8467 2154.00
56.151 1456.00
56.4553 1570.00
56.7595 2227.00
57.0638 1464.00
57.368 1318.00
57.6723 1435.00
57.9766 1987.00
58.2808 1433.00
58.5851 1366.00
58.8893 1637.00
59.1936 1662.00
59.4979 1374.00
59.8021 1425.00
60.1064 1378.00
60.4106 1405.00
60.7149 1289.00
61.0192 1505.00
61.3234 1836.00
61.6277 1718.00
61.932 1815.00
62.2362 1649.00
62.5405 1421.00
62.8447 1486.00
63.149 1464.00
63.4533 1435.00
63.7575 1442.00
64.0618 1426.00
64.366 1698.00
64.6703 1689.00
64.9745 1346.00
65.2788 1296.00
65.5831 1443.00
65.8873 1518.00
66.1916 1293.00
66.4959 1567.00
66.8001 1301.00
67.1044 1548.00
67.4086 1219.00
67.7129 1153.00
68.0172 1183.00
68.3214 1287.00
68.6257 1433.00
68.9299 1257.00
69.2342 1150.00
69.5385 1222.00
69.8427 1125.00
70.147 1302.00
70.4512 1314.00
70.7555 1306.00
71.0598 1241.00
71.364 1161.00
71.6683 1201.00
71.9725 1160.00
72.2768 1187.00
72.5811 1219.00
72.8853 1206.00
73.1896 1158.00
73.4938 1161.00
73.7981 1302.00
74.1024 1531.00
74.4066 1340.00
74.7109 1171.00
75.0151 1331.00
75.3194 1411.00
75.6237 1654.00
75.9279 1377.00
76.2322 1637.00
76.5364 1408.00
76.8407 1348.00
77.145 1397.00
77.4492 1370.00
77.7535 1567.00
78.0577 1273.00
78.362 1314.00
78.6663 1351.00
78.9705 1228.00
79.2748 1206.00
79.579 1180.00
79.8833 1355.00
80.1876 1330.00
80.4918 1226.00
80.7961 1131.00
81.1003 1159.00
81.4046 1209.00
81.7089 1290.00
82.0131 1283.00
82.3174 1240.00
82.6217 1158.00
82.9259 1177.00
83.2302 1262.00
83.5344 1309.00
83.8387 1341.00
84.143 1455.00
84.4472 1403.00
84.7515 1249.00
85.0557 1201.00
85.36 1353.00
85.6643 1334.00
85.9685 1202.00
86.2728 1148.00
86.577 1278.00
86.8813 1316.00
87.1856 1363.00
87.4898 1245.00
87.7941 1255.00
88.0983 1214.00
88.4026 1316.00
88.7069 1275.00
89.0111 1266.00
89.3154 1264.00
89.6196 1141.00
89.9239 1208.00
90.2282 1283.00
90.5324 1285.00
90.8367 1258.00
91.1409 1213.00
91.4452 1142.00
91.7495 1183.00
92.0537 1122.00
92.358 1093.00
92.6622 1147.00
92.9665 1165.00
93.2708 1276.00
93.575 1198.00
93.8793 1182.00
94.1835 1195.00
94.4878 1266.00
94.7921 1243.00
95.0963 1250.00
95.4006 1278.00
95.7048 1142.00
96.0091 1179.00
96.3134 1269.00
96.6176 1271.00
96.9219 1209.00
97.2261 1226.00
97.5304 1171.00
97.8347 1194.00
98.1389 1168.00
98.4432 1150.00
98.7474 1253.00
99.0517 1167.00
99.356 1177.00
99.6602 1245.00
99.9645 1143.00
100.095 1201.00

File: Na_54.xy
9.903433 2880.00
10.2077 2751.00
10.512 2686.00
10.8162 2580.00
11.1205 2422.00
11.4247 2448.00
11.729 2319.00
12.0333 2207.00
12.3375 2195.00
12.6418 2165.00
12.946 2133.00
13.2503 2128.00
13.5546 2206.00
13.8588 2398.00
14.1631 2511.00
14.4673 2322.00
14.7716 2205.00
15.0759 2054.00
15.3801 2054.00
15.6844 2075.00
15.9886 2020.00
16.2929 1994.00
16.5972 2023.00
16.9014 2210.00
17.2057 2103.00
17.5099 1913.00
17.8142 1933.00
18.1185 1888.00
18.4227 1905.00
18.727 1928.00
19.0312 1829.00
19.3355 1736.00
19.6398 1737.00
19.944 1837.00
20.2483 1634.00
20.5525 1697.00
20.8568 1754.00
21.1611 1806.00
21.4653 1914.00
21.7696 2017.00
22.0738 1824.00
22.3781 1687.00
22.6824 1760.00
22.9866 1897.00
23.2909 1583.00
23.5951 1967.00
23.8994 1948.00
24.2037 1728.00
24.5079 1916.00
24.8122 1949.00
25.1164 2191.00
25.4207 2443.00
25.725 2608.00
26.0292 3139.00
26.3335 3091.00
26.6378 1925.00
26.942 1549.00
27.2463 1515.00
27.5505 2072.00
27.8548 2785.00
28.1591 1261.00
28.4633 1191.00
28.7676 1098.00
29.0718 1073.00
29.3761 1125.00
29.6804 1201.00
29.9846 3356.00
30.2889 8744.00
30.5931 1758.00
30.8974 1147.00
31.2017 1101.00
31.5059 1007.00
31.8102 1004.00
32.1144 955.00
32.4187 948.00
32.723 1040.00
33.0272 2373.00
33.3315 2448.00
33.6357 1033.00
33.94 1266.00
34.2443 4270.00
34.5485 5389.00
34.8528 3225.00
35.157 4231.00
35.4613 7577.00
35.7656 1167.00
36.0698 1057.00
36.3741 965.00
36.6783 1063.00
36.9826 1206.00
37.2869 1064.00
37.5911 1664.00
37.8954 4753.00
38.1996 10027.00
38.5039 2040.00
38.8082 1524.00
39.1124 1015.00
39.4167 1053.00
39.7209 1410.00
40.0252 4295.00
40.3295 2366.00
40.6337 1068.00
40.938 1511.00
41.2422 4061.00
41.5465 4898.00
41.8508 2334.00
42.155 1126.00
42.4593 1427.00
42.7635 1495.00
43.0678 1241.00
43.3721 1116.00
43.6763 984.00
43.9806 998.00
44.2849 1029.00
44.5891 1908.00
44.8934 1226.00
45.1976 879.00
45.5019 884.00
45.8062 856.00
46.1104 979.00
46.4147 2328.00
46.7189 3404.00
47.0232 1252.00
47.3275 1178.00
47.6317 788.00
47.936 917.00
48.2402 2696.00
48.5445 2761.00
48.8488 834.00
49.153 837.00
49.4573 881.00
49.7615 687.00
50.0658 631.00
50.3701 713.00
50.6743 810.00
50.9786 971.00
51.2828 744.00
51.5871 679.00
51.8914 670.00
52.1956 675.00
52.4999 714.00
52.8041 769.00
53.1084 813.00
53.4127 1328.00
53.7169 2123.00
54.0212 1005.00
54.3254 949.00
54.6297 1657.00
54.934 1333.00
55.2382 747.00
55.5425 1012.00
55.8467 696.00
56.151 881.00
56.4553 1379.00
56.7595 858.00
57.0638 907.00
57.368 801.00
57.6723 636.00
57.9766 621.00
58.2808 808.00
58.5851 1207.00
58.8893 1163.00
59.1936 1391.00
59.4979 682.00
59.8021 605.00
60.1064 555.00
60.4106 721.00
60.7149 1060.00
61.0192 741.00
61.3234 524.00
61.6277 560.00
61.932 882.00
62.2362 978.00
62.5405 1017.00
62.8447 1389.00
63.149 610.00
63.4533 556.00
63.7575 814.00
64.0618 962.00
64.366 586.00
64.6703 503.00
64.9745 475.00
65.2788 444.00
65.5831 467.00
65.8873 566.00
66.1916 489.00
66.4959 435.00
66.8001 433.00
67.1044 461.00
67.4086 839.00
67.7129 687.00
68.0172 463.00
68.3214 423.00
68.6257 410.00
68.9299 428.00
69.2342 426.00
69.5385 496.00
69.8427 499.00
70.147 560.00
70.4512 490.00
70.7555 403.00
71.0598 376.00
71.364 424.00
71.6683 487.00
71.9725 573.00
72.2768 626.00
72.5811 580.00
72.8853 455.00
73.1896 524.00
73.4938 608.00
73.7981 496.00
74.1024 442.00
74.4066 556.00
74.7109 785.00
75.0151 424.00
75.3194 413.00
75.6237 438.00
75.9279 411.00
76.2322 499.00
76.5364 447.00
76.8407 433.00
77.145 414.00
77.4492 390.00
77.7535 492.00
78.0577 487.00
78.362 455.00
78.6663 463.00
78.9705 432.00
79.2748 609.00
79.579 586.00
79.8833 643.00
80.1876 761.00
80.4918 895.00
80.7961 569.00
81.1003 468.00
81.4046 496.00
81.7089 489.00
82.0131 490.00
82.3174 436.00
82.6217 481.00
82.9259 493.00
83.2302 486.00
83.5344 588.00
83.8387 473.00
84.143 481.00
84.4472 467.00
84.7515 472.00
85.0557 489.00
85.36 428.00
85.6643 414.00
85.9685 438.00
86.2728 430.00
86.577 370.00
86.8813 421.00
87.1856 421.00
87.4898 419.00
87.7941 496.00
88.0983 435.00
88.4026 383.00
88.7069 363.00
89.0111 369.00
89.3154 472.00
89.6196 489.00
89.9239 495.00
90.2282 509.00
90.5324 449.00
90.8367 373.00
91.1409 462.00
91.4452 427.00
91.7495 394.00
92.0537 412.00
92.358 372.00
92.6622 417.00
92.9665 409.00
93.2708 558.00
93.575 607.00
93.8793 542.00
94.1835 464.00
94.4878 370.00
94.7921 361.00
95.0963 375.00
95.4006 381.00
95.7048 402.00
96.0091 393.00
96.3134 403.00
96.6176 371.00
96.9219 367.00
97.2261 332.00
97.5304 342.00
97.8347 354.00
98.1389 412.00
98.4432 404.00
98.7474 459.00
99.0517 467.00
99.356 580.00
99.6602 476.00
99.9645 386.00
100.095 424.00

File: Na_55.xy
9.903433 2954.00
10.2077 2700.00
10.512 2736.00
10.8162 2618.00
11.1205 2616.00
11.4247 2401.00
11.729 2377.00
12.0333 2267.00
12.3375 2270.00
12.6418 2259.00
12.946 2227.00
13.2503 2087.00
13.5546 2073.00
13.8588 2058.00
14.1631 2043.00
14.4673 1993.00
14.7716 1959.00
15.0759 1952.00
15.3801 1965.00
15.6844 1933.00
15.9886 1913.00
16.2929 1896.00
16.5972 1816.00
16.9014 1903.00
17.2057 1848.00
17.5099 1989.00
17.8142 1890.00
18.1185 1814.00
18.4227 1806.00
18.727 1824.00
19.0312 1889.00
19.3355 1941.00
19.6398 1898.00
19.944 1951.00
20.2483 1882.00
20.5525 1900.00
20.8568 1927.00
21.1611 1881.00
21.4653 1949.00
21.7696 3677.00
22.0738 1961.00
22.3781 1889.00
22.6824 1748.00
22.9866 1881.00
23.2909 1842.00
23.5951 1737.00
23.8994 1802.00
24.2037 1801.00
24.5079 1735.00
24.8122 1746.00
25.1164 1701.00
25.4207 1709.00
25.725 1724.00
26.0292 2373.00
26.3335 1770.00
26.6378 1949.00
26.942 2022.00
27.2463 1639.00
27.5505 1732.00
27.8548 1679.00
28.1591 1785.00
28.4633 1740.00
28.7676 1699.00
29.0718 1636.00
29.3761 1734.00
29.6804 1730.00
29.9846 2448.00
30.2889 2768.00
30.5931 1937.00
30.8974 3367.00
31.2017 4973.00
31.5059 1734.00
31.8102 1596.00
32.1144 1589.00
32.4187 1542.00
32.723 1639.00
33.0272 1568.00
33.3315 1462.00
33.6357 1507.00
33.94 1494.00
34.2443 1512.00
34.5485 1389.00
34.8528 1335.00
35.157 1400.00
35.4613 1338.00
35.7656 1394.00
36.0698 1375.00
36.3741 1331.00
36.6783 1378.00
36.9826 1302.00
37.2869 1250.00
37.5911 1371.00
37.8954 1346.00
38.1996 1672.00
38.5039 1437.00
38.8082 1227.00
39.1124 1225.00
39.4167 1247.00
39.7209 1293.00
40.0252 1257.00
40.3295 1246.00
40.6337 1254.00
40.938 1243.00
41.2422 1228.00
41.5465 1253.00
41.8508 1148.00
42.155 1203.00
42.4593 1190.00
42.7635 1287.00
43.0678 1685.00
43.3721 1713.00
43.6763 1340.00
43.9806 1266.00
44.2849 1413.00
44.5891 2207.00
44.8934 1347.00
45.1976 1136.00
45.5019 1079.00
45.8062 1059.00
46.1104 1083.00
46.4147 1013.00
46.7189 1104.00
47.0232 1055.00
47.3275 1012.00
47.6317 1024.00
47.936 1017.00
48.2402 1043.00
48.5445 960.00
48.8488 1077.00
49.153 1019.00
49.4573 1032.00
49.7615 1013.00
50.0658 1699.00
50.3701 1274.00
50.6743 964.00
50.9786 1121.00
51.2828 1210.00
51.5871 1013.00
51.8914 1036.00
52.1956 1003.00
52.4999 969.00
52.8041 1079.00
53.1084 1003.00
53.4127 1062.00
53.7169 1146.00
54.0212 1015.00
54.3254 977.00
54.6297 1057.00
54.934 1040.00
55.2382 1673.00
55.5425 1396.00
55.8467 1020.00
56.151 1000.00
56.4553 978.00
56.7595 952.00
57.0638 950.00
57.368 943.00
57.6723 883.00
57.9766 915.00
58.2808 909.00
58.5851 957.00
58.8893 952.00
59.1936 952.00
59.4979 874.00
59.8021 951.00
60.1064 870.00
60.4106 943.00
60.7149 929.00
61.0192 921.00
61.3234 887.00
61.6277 850.00
61.932 922.00
62.2362 889.00
62.5405 936.00
62.8447 951.00
63.149 967.00
63.4533 910.00
63.7575 815.00
64.0618 892.00
64.366 918.00
64.6703 929.00
64.9745 1147.00
65.2788 933.00
65.5831 813.00
65.8873 858.00
66.1916 840.00
66.4959 859.00
66.8001 848.00
67.1044 828.00
67.4086 870.00
67.7129 851.00
68.0172 805.00
68.3214 803.00
68.6257 787.00
68.9299 881.00
69.2342 1073.00
69.5385 1148.00
69.8427 860.00
70.147 879.00
70.4512 773.00
70.7555 843.00
71.0598 911.00
71.364 1129.00
71.6683 873.00
71.9725 891.00
72.2768 869.00
72.5811 843.00
72.8853 828.00
73.1896 811.00
73.4938 896.00
73.7981 1048.00
74.1024 845.00
74.4066 790.00
74.7109 824.00
75.0151 777.00
75.3194 794.00
75.6237 759.00
75.9279 773.00
76.2322 785.00
76.5364 804.00
76.8407 792.00
77.145 822.00
77.4492 743.00
77.7535 813.00
78.0577 857.00
78.362 836.00
78.6663 787.00
78.9705 778.00
79.2748 899.00
79.579 842.00
79.8833 816.00
80.1876 809.00
80.4918 799.00
80.7961 733.00
81.1003 760.00
81.4046 769.00
81.7089 796.00
82.0131 914.00
82.3174 886.00
82.6217 802.00
82.9259 763.00
83.2302 757.00
83.5344 772.00
83.8387 722.00
84.143 771.00
84.4472 834.00
84.7515 729.00
85.0557 762.00
85.36 797.00
85.6643 808.00
85.9685 769.00
86.2728 880.00
86.577 810.00
86.8813 726.00
87.1856 745.00
87.4898 808.00
87.7941 790.00
88.0983 702.00
88.4026 780.00
88.7069 700.00
89.0111 793.00
89.3154 703.00
89.6196 781.00
89.9239 759.00
90.2282 756.00
90.5324 881.00
90.8367 794.00
91.1409 771.00
91.4452 728.00
91.7495 798.00
92.0537 809.00
92.358 693.00
92.6622 743.00
92.9665 763.00
93.2708 770.00
93.575 736.00
93.8793 716.00
94.1835 754.00
94.4878 771.00
94.7921 707.00
95.0963 741.00
95.4006 761.00
95.7048 724.00
96.0091 730.00
96.3134 733.00
96.6176 725.00
96.9219 722.00
97.2261 724.00
97.5304 738.00
97.8347 741.00
98.1389 738.00
98.4432 741.00
98.7474 769.00
99.0517 715.00
99.356 704.00
99.6602 707.00
99.9645 737.00
100.095 786.00