Folder: alab-pipeline/data/xrd_creation/results (part 69)

File: NSC_187.xy
9.903433 2599.00
10.2077 2452.00
10.512 2380.00
10.8162 2242.00
11.1205 2134.00
11.4247 2081.00
11.729 2019.00
12.0333 1936.00
12.3375 1845.00
12.6418 1846.00
12.946 1789.00
13.2503 1697.00
13.5546 1676.00
13.8588 1672.00
14.1631 1645.00
14.4673 1563.00
14.7716 1496.00
15.0759 1436.00
15.3801 1405.00
15.6844 1421.00
15.9886 1445.00
16.2929 1454.00
16.5972 1414.00
16.9014 1394.00
17.2057 1273.00
17.5099 1349.00
17.8142 1274.00
18.1185 1232.00
18.4227 1226.00
18.727 1177.00
19.0312 1176.00
19.3355 1223.00
19.6398 1119.00
19.944 1193.00
20.2483 1211.00
20.5525 2358.00
20.8568 7837.00
21.1611 4911.00
21.4653 4461.00
21.7696 1209.00
22.0738 1086.00
22.3781 1011.00
22.6824 978.00
22.9866 1092.00
23.2909 983.00
23.5951 1559.00
23.8994 1304.00
24.2037 979.00
24.5079 895.00
24.8122 950.00
25.1164 949.00
25.4207 1343.00
25.725 1020.00
26.0292 862.00
26.3335 929.00
26.6378 994.00
26.942 1626.00
27.2463 909.00
27.5505 798.00
27.8548 836.00
28.1591 810.00
28.4633 798.00
28.7676 851.00
29.0718 784.00
29.3761 883.00
29.6804 905.00
29.9846 1093.00
30.2889 4031.00
30.5931 4362.00
30.8974 1049.00
31.2017 861.00
31.5059 856.00
31.8102 810.00
32.1144 893.00
32.4187 883.00
32.723 1253.00
33.0272 6966.00
33.3315 1867.00
33.6357 1039.00
33.94 1355.00
34.2443 7335.00
34.5485 3971.00
34.8528 6788.00
35.157 10377.00
35.4613 1567.00
35.7656 915.00
36.0698 826.00
36.3741 790.00
36.6783 739.00
36.9826 917.00
37.2869 2459.00
37.5911 1410.00
37.8954 866.00
38.1996 1012.00
38.5039 700.00
38.8082 719.00
39.1124 671.00
39.4167 905.00
39.7209 1210.00
40.0252 833.00
40.3295 1232.00
40.6337 842.00
40.938 591.00
41.2422 695.00
41.5465 681.00
41.8508 810.00
42.155 1733.00
42.4593 1168.00
42.7635 655.00
43.0678 1078.00
43.3721 814.00
43.6763 529.00
43.9806 530.00
44.2849 513.00
44.5891 569.00
44.8934 553.00
45.1976 573.00
45.5019 899.00
45.8062 1260.00
46.1104 923.00
46.4147 2412.00
46.7189 1011.00
47.0232 606.00
47.3275 556.00
47.6317 534.00
47.936 634.00
48.2402 2173.00
48.5445 1223.00
48.8488 520.00
49.153 521.00
49.4573 547.00
49.7615 525.00
50.0658 791.00
50.3701 786.00
50.6743 609.00
50.9786 508.00
51.2828 498.00
51.5871 783.00
51.8914 1071.00
52.1956 3238.00
52.4999 824.00
52.8041 439.00
53.1084 450.00
53.4127 509.00
53.7169 538.00
54.0212 914.00
54.3254 813.00
54.6297 1084.00
54.934 781.00
55.2382 1821.00
55.5425 1290.00
55.8467 503.00
56.151 501.00
56.4553 510.00
56.7595 642.00
57.0638 2010.00
57.368 2836.00
57.6723 744.00
57.9766 878.00
58.2808 502.00
58.5851 483.00
58.8893 484.00
59.1936 468.00
59.4979 473.00
59.8021 494.00
60.1064 1018.00
60.4106 638.00
60.7149 494.00
61.0192 505.00
61.3234 740.00
61.6277 3251.00
61.932 2463.00
62.2362 830.00
62.5405 686.00
62.8447 975.00
63.149 1959.00
63.4533 1274.00
63.7575 1771.00
64.0618 1360.00
64.366 509.00
64.6703 605.00
64.9745 667.00
65.2788 559.00
65.5831 845.00
65.8873 1362.00
66.1916 597.00
66.4959 506.00
66.8001 646.00
67.1044 539.00
67.4086 459.00
67.7129 761.00
68.0172 984.00
68.3214 2186.00
68.6257 1294.00
68.9299 742.00
69.2342 906.00
69.5385 611.00
69.8427 409.00
70.147 403.00
70.4512 448.00
70.7555 447.00
71.0598 357.00
71.364 472.00
71.6683 1113.00
71.9725 1018.00
72.2768 574.00
72.5811 391.00
72.8853 395.00
73.1896 456.00
73.4938 728.00
73.7981 956.00
74.1024 467.00
74.4066 358.00
74.7109 356.00
75.0151 349.00
75.3194 397.00
75.6237 492.00
75.9279 538.00
76.2322 473.00
76.5364 529.00
76.8407 471.00
77.145 473.00
77.4492 375.00
77.7535 448.00
78.0577 384.00
78.362 322.00
78.6663 406.00
78.9705 410.00
79.2748 464.00
79.579 446.00
79.8833 437.00
80.1876 491.00
80.4918 449.00
80.7961 484.00
81.1003 620.00
81.4046 663.00
81.7089 520.00
82.0131 434.00
82.3174 351.00
82.6217 386.00
82.9259 431.00
83.2302 344.00
83.5344 355.00
83.8387 355.00
84.143 367.00
84.4472 366.00
84.7515 436.00
85.0557 400.00
85.36 369.00
85.6643 438.00
85.9685 528.00
86.2728 727.00
86.577 618.00
86.8813 780.00
87.1856 1160.00
87.4898 671.00
87.7941 427.00
88.0983 455.00
88.4026 382.00
88.7069 326.00
89.0111 347.00
89.3154 402.00
89.6196 376.00
89.9239 365.00
90.2282 411.00
90.5324 372.00
90.8367 349.00
91.1409 364.00
91.4452 491.00
91.7495 793.00
92.0537 663.00
92.358 408.00
92.6622 376.00
92.9665 357.00
93.2708 362.00
93.575 445.00
93.8793 1000.00
94.1835 1106.00
94.4878 869.00
94.7921 485.00
95.0963 407.00
95.4006 420.00
95.7048 644.00
96.0091 522.00
96.3134 373.00
96.6176 386.00
96.9219 388.00
97.2261 353.00
97.5304 378.00
97.8347 396.00
98.1389 506.00
98.4432 660.00
98.7474 569.00
99.0517 383.00
99.356 352.00
99.6602 321.00
99.9645 371.00
100.095 335.00

File: NSC_188.xy
9.903433 2815.00
10.2077 2687.00
10.512 2678.00
10.8162 2500.00
11.1205 2472.00
11.4247 2349.00
11.729 2399.00
12.0333 2330.00
12.3375 2354.00
12.6418 2292.00
12.946 2275.00
13.2503 2176.00
13.5546 2206.00
13.8588 2214.00
14.1631 2178.00
14.4673 2183.00
14.7716 2196.00
15.0759 2108.00
15.3801 2277.00
15.6844 2198.00
15.9886 2182.00
16.2929 2339.00
16.5972 2313.00
16.9014 2276.00
17.2057 2279.00
17.5099 2344.00
17.8142 2390.00
18.1185 2275.00
18.4227 2299.00
18.727 2277.00
19.0312 2211.00
19.3355 2297.00
19.6398 2305.00
19.944 2294.00
20.2483 2337.00
20.5525 2369.00
20.8568 2320.00
21.1611 2279.00
21.4653 2419.00
21.7696 2443.00
22.0738 2390.00
22.3781 2294.00
22.6824 2356.00
22.9866 2320.00
23.2909 2287.00
23.5951 2427.00
23.8994 2394.00
24.2037 2411.00
24.5079 2291.00
24.8122 2472.00
25.1164 2328.00
25.4207 2291.00
25.725 2288.00
26.0292 2331.00
26.3335 2261.00
26.6378 2284.00
26.942 2267.00
27.2463 2395.00
27.5505 2301.00
27.8548 2355.00
28.1591 2354.00
28.4633 2396.00
28.7676 2401.00
29.0718 2297.00
29.3761 2461.00
29.6804 2456.00
29.9846 2532.00
30.2889 2546.00
30.5931 2493.00
30.8974 2529.00
31.2017 2625.00
31.5059 2529.00
31.8102 2574.00
32.1144 2517.00
32.4187 2578.00
32.723 2573.00
33.0272 2542.00
33.3315 2497.00
33.6357 2533.00
33.94 2524.00
34.2443 2377.00
34.5485 2370.00
34.8528 2291.00
35.157 2170.00
35.4613 2158.00
35.7656 2103.00
36.0698 2039.00
36.3741 2061.00
36.6783 1878.00
36.9826 1883.00
37.2869 1969.00
37.5911 1750.00
37.8954 1789.00
38.1996 1726.00
38.5039 1674.00
38.8082 1629.00
39.1124 1668.00
39.4167 1562.00
39.7209 1541.00
40.0252 1497.00
40.3295 1550.00
40.6337 1486.00
40.938 1507.00
41.2422 1484.00
41.5465 1451.00
41.8508 1458.00
42.155 1407.00
42.4593 1479.00
42.7635 1386.00
43.0678 1436.00
43.3721 1397.00
43.6763 1381.00
43.9806 1387.00
44.2849 1354.00
44.5891 1408.00
44.8934 1368.00
45.1976 1314.00
45.5019 1366.00
45.8062 1312.00
46.1104 1293.00
46.4147 1234.00
46.7189 1351.00
47.0232 1263.00
47.3275 1384.00
47.6317 1293.00
47.936 1279.00
48.2402 1297.00
48.5445 1300.00
48.8488 1263.00
49.153 1246.00
49.4573 1267.00
49.7615 1307.00
50.0658 1239.00
50.3701 1254.00
50.6743 1236.00
50.9786 1261.00
51.2828 1223.00
51.5871 1269.00
51.8914 1277.00
52.1956 1224.00
52.4999 1228.00
52.8041 1207.00
53.1084 1257.00
53.4127 1275.00
53.7169 1328.00
54.0212 1292.00
54.3254 1252.00
54.6297 1272.00
54.934 1319.00
55.2382 1337.00
55.5425 1314.00
55.8467 1284.00
56.151 1269.00
56.4553 1406.00
56.7595 1293.00
57.0638 1305.00
57.368 1372.00
57.6723 1352.00
57.9766 1366.00
58.2808 1346.00
58.5851 1316.00
58.8893 1377.00
59.1936 1262.00
59.4979 1295.00
59.8021 1332.00
60.1064 1341.00
60.4106 1341.00
60.7149 1392.00
61.0192 1383.00
61.3234 1359.00
61.6277 1337.00
61.932 1317.00
62.2362 1287.00
62.5405 1325.00
62.8447 1304.00
63.149 1291.00
63.4533 1374.00
63.7575 1329.00
64.0618 1292.00
64.366 1260.00
64.6703 1319.00
64.9745 1216.00
65.2788 1255.00
65.5831 1237.00
65.8873 1231.00
66.1916 1214.00
66.4959 1246.00
66.8001 1248.00
67.1044 1255.00
67.4086 1258.00
67.7129 1238.00
68.0172 1182.00
68.3214 1177.00
68.6257 1176.00
68.9299 1187.00
69.2342 1132.00
69.5385 1112.00
69.8427 1196.00
70.147 1176.00
70.4512 1147.00
70.7555 1120.00
71.0598 1061.00
71.364 1124.00
71.6683 1101.00
71.9725 1070.00
72.2768 1009.00
72.5811 1074.00
72.8853 1057.00
73.1896 1082.00
73.4938 1109.00
73.7981 1033.00
74.1024 1026.00
74.4066 936.00
74.7109 991.00
75.0151 996.00
75.3194 937.00
75.6237 977.00
75.9279 957.00
76.2322 916.00
76.5364 914.00
76.8407 934.00
77.145 967.00
77.4492 928.00
77.7535 931.00
78.0577 923.00
78.362 892.00
78.6663 923.00
78.9705 896.00
79.2748 950.00
79.579 917.00
79.8833 856.00
80.1876 847.00
80.4918 880.00
80.7961 900.00
81.1003 819.00
81.4046 851.00
81.7089 809.00
82.0131 872.00
82.3174 868.00
82.6217 790.00
82.9259 843.00
83.2302 843.00
83.5344 865.00
83.8387 795.00
84.143 826.00
84.4472 782.00
84.7515 866.00
85.0557 768.00
85.36 849.00
85.6643 823.00
85.9685 791.00
86.2728 809.00
86.577 828.00
86.8813 815.00
87.1856 741.00
87.4898 813.00
87.7941 805.00
88.0983 827.00
88.4026 762.00
88.7069 789.00
89.0111 825.00
89.3154 766.00
89.6196 758.00
89.9239 775.00
90.2282 806.00
90.5324 843.00
90.8367 823.00
91.1409 800.00
91.4452 821.00
91.7495 833.00
92.0537 815.00
92.358 809.00
92.6622 778.00
92.9665 797.00
93.2708 783.00
93.575 796.00
93.8793 782.00
94.1835 785.00
94.4878 791.00
94.7921 770.00
95.0963 750.00
95.4006 825.00
95.7048 782.00
96.0091 743.00
96.3134 757.00
96.6176 787.00
96.9219 790.00
97.2261 750.00
97.5304 750.00
97.8347 777.00
98.1389 767.00
98.4432 784.00
98.7474 736.00
99.0517 786.00
99.356 746.00
99.6602 759.00
99.9645 727.00
100.095 742.00

File: NSC_189.xy
9.903433 2498.00
10.2077 2477.00
10.512 2366.00
10.8162 2315.00
11.1205 2178.00
11.4247 2124.00
11.729 1999.00
12.0333 1900.00
12.3375 1869.00
12.6418 1827.00
12.946 1687.00
13.2503 1567.00
13.5546 1550.00
13.8588 1558.00
14.1631 1514.00
14.4673 1490.00
14.7716 1442.00
15.0759 1427.00
15.3801 1410.00
15.6844 1332.00
15.9886 1323.00
16.2929 1239.00
16.5972 1247.00
16.9014 1184.00
17.2057 1197.00
17.5099 1167.00
17.8142 1207.00
18.1185 1208.00
18.4227 1093.00
18.727 1062.00
19.0312 1069.00
19.3355 995.00
19.6398 1018.00
19.944 951.00
20.2483 1020.00
20.5525 982.00
20.8568 974.00
21.1611 895.00
21.4653 966.00
21.7696 906.00
22.0738 885.00
22.3781 924.00
22.6824 856.00
22.9866 840.00
23.2909 815.00
23.5951 835.00
23.8994 827.00
24.2037 834.00
24.5079 772.00
24.8122 736.00
25.1164 819.00
25.4207 851.00
25.725 803.00
26.0292 725.00
26.3335 879.00
26.6378 727.00
26.942 675.00
27.2463 686.00
27.5505 775.00
27.8548 765.00
28.1591 805.00
28.4633 718.00
28.7676 702.00
29.0718 692.00
29.3761 600.00
29.6804 658.00
29.9846 635.00
30.2889 624.00
30.5931 614.00
30.8974 596.00
31.2017 633.00
31.5059 626.00
31.8102 562.00
32.1144 539.00
32.4187 544.00
32.723 577.00
33.0272 546.00
33.3315 615.00
33.6357 613.00
33.94 548.00
34.2443 538.00
34.5485 499.00
34.8528 523.00
35.157 488.00
35.4613 458.00
35.7656 483.00
36.0698 450.00
36.3741 474.00
36.6783 494.00
36.9826 425.00
37.2869 410.00
37.5911 457.00
37.8954 424.00
38.1996 423.00
38.5039 442.00
38.8082 446.00
39.1124 382.00
39.4167 430.00
39.7209 408.00
40.0252 389.00
40.3295 366.00
40.6337 388.00
40.938 365.00
41.2422 371.00
41.5465 375.00
41.8508 418.00
42.155 383.00
42.4593 346.00
42.7635 432.00
43.0678 372.00
43.3721 356.00
43.6763 357.00
43.9806 344.00
44.2849 382.00
44.5891 336.00
44.8934 305.00
45.1976 360.00
45.5019 351.00
45.8062 317.00
46.1104 375.00
46.4147 324.00
46.7189 306.00
47.0232 345.00
47.3275 314.00
47.6317 320.00
47.936 320.00
48.2402 303.00
48.5445 331.00
48.8488 349.00
49.153 327.00
49.4573 333.00
49.7615 340.00
50.0658 323.00
50.3701 292.00
50.6743 293.00
50.9786 335.00
51.2828 356.00
51.5871 341.00
51.8914 301.00
52.1956 287.00
52.4999 304.00
52.8041 296.00
53.1084 284.00
53.4127 275.00
53.7169 315.00
54.0212 326.00
54.3254 267.00
54.6297 295.00
54.934 272.00
55.2382 292.00
55.5425 260.00
55.8467 270.00
56.151 260.00
56.4553 278.00
56.7595 243.00
57.0638 238.00
57.368 278.00
57.6723 271.00
57.9766 245.00
58.2808 231.00
58.5851 243.00
58.8893 258.00
59.1936 229.00
59.4979 272.00
59.8021 220.00
60.1064 211.00
60.4106 243.00
60.7149 259.00
61.0192 228.00
61.3234 264.00
61.6277 226.00
61.932 232.00
62.2362 263.00
62.5405 259.00
62.8447 229.00
63.149 217.00
63.4533 234.00
63.7575 228.00
64.0618 249.00
64.366 233.00
64.6703 202.00
64.9745 196.00
65.2788 232.00
65.5831 239.00
65.8873 206.00
66.1916 207.00
66.4959 205.00
66.8001 198.00
67.1044 192.00
67.4086 216.00
67.7129 226.00
68.0172 221.00
68.3214 191.00
68.6257 190.00
68.9299 185.00
69.2342 224.00
69.5385 213.00
69.8427 198.00
70.147 212.00
70.4512 223.00
70.7555 207.00
71.0598 211.00
71.364 247.00
71.6683 199.00
71.9725 219.00
72.2768 206.00
72.5811 194.00
72.8853 177.00
73.1896 210.00
73.4938 237.00
73.7981 237.00
74.1024 227.00
74.4066 256.00
74.7109 233.00
75.0151 218.00
75.3194 223.00
75.6237 236.00
75.9279 215.00
76.2322 289.00
76.5364 222.00
76.8407 202.00
77.145 256.00
77.4492 214.00
77.7535 235.00
78.0577 245.00
78.362 257.00
78.6663 248.00
78.9705 225.00
79.2748 203.00
79.579 246.00
79.8833 294.00
80.1876 248.00
80.4918 243.00
80.7961 243.00
81.1003 237.00
81.4046 235.00
81.7089 247.00
82.0131 234.00
82.3174 224.00
82.6217 223.00
82.9259 209.00
83.2302 249.00
83.5344 262.00
83.8387 226.00
84.143 225.00
84.4472 227.00
84.7515 223.00
85.0557 208.00
85.36 197.00
85.6643 231.00
85.9685 228.00
86.2728 228.00
86.577 233.00
86.8813 192.00
87.1856 199.00
87.4898 194.00
87.7941 200.00
88.0983 196.00
88.4026 211.00
88.7069 182.00
89.0111 184.00
89.3154 182.00
89.6196 221.00
89.9239 205.00
90.2282 196.00
90.5324 199.00
90.8367 215.00
91.1409 195.00
91.4452 223.00
91.7495 233.00
92.0537 185.00
92.358 219.00
92.6622 166.00
92.9665 191.00
93.2708 166.00
93.575 185.00
93.8793 227.00
94.1835 164.00
94.4878 176.00
94.7921 198.00
95.0963 177.00
95.4006 202.00
95.7048 170.00
96.0091 172.00
96.3134 183.00
96.6176 191.00
96.9219 210.00
97.2261 207.00
97.5304 206.00
97.8347 186.00
98.1389 196.00
98.4432 179.00
98.7474 191.00
99.0517 180.00
99.356 176.00
99.6602 202.00
99.9645 192.00
100.095 180.00

File: NSC_190.xy
9.903433 2663.00
10.2077 2604.00
10.512 2513.00
10.8162 2488.00
11.1205 2369.00
11.4247 2347.00
11.729 2207.00
12.0333 2451.00
12.3375 2891.00
12.6418 2064.00
12.946 2069.00
13.2503 2042.00
13.5546 2037.00
13.8588 2193.00
14.1631 2124.00
14.4673 1857.00
14.7716 1890.00
15.0759 1843.00
15.3801 1841.00
15.6844 1876.00
15.9886 1757.00
16.2929 1816.00
16.5972 1959.00
16.9014 2979.00
17.2057 1869.00
17.5099 1868.00
17.8142 1806.00
18.1185 1727.00
18.4227 1677.00
18.727 1719.00
19.0312 1813.00
19.3355 2562.00
19.6398 9141.00
19.944 5073.00
20.2483 1664.00
20.5525 1768.00
20.8568 1796.00
21.1611 2811.00
21.4653 1780.00
21.7696 1629.00
22.0738 1530.00
22.3781 1497.00
22.6824 1761.00
22.9866 2131.00
23.2909 1758.00
23.5951 1514.00
23.8994 1520.00
24.2037 1843.00
24.5079 1691.00
24.8122 1499.00
25.1164 1454.00
25.4207 1375.00
25.725 1305.00
26.0292 1372.00
26.3335 1403.00
26.6378 1754.00
26.942 3282.00
27.2463 2113.00
27.5505 4428.00
27.8548 3813.00
28.1591 1760.00
28.4633 1910.00
28.7676 2042.00
29.0718 1487.00
29.3761 1327.00
29.6804 1436.00
29.9846 2295.00
30.2889 2332.00
30.5931 1487.00
30.8974 1734.00
31.2017 3427.00
31.5059 5971.00
31.8102 1961.00
32.1144 1815.00
32.4187 1500.00
32.723 3530.00
33.0272 1475.00
33.3315 1440.00
33.6357 1640.00
33.94 5371.00
34.2443 10311.00
34.5485 2407.00
34.8528 3140.00
35.157 2314.00
35.4613 1403.00
35.7656 1507.00
36.0698 1437.00
36.3741 1401.00
36.6783 1560.00
36.9826 1159.00
37.2869 1110.00
37.5911 1181.00
37.8954 1123.00
38.1996 1215.00
38.5039 1183.00
38.8082 1126.00
39.1124 1223.00
39.4167 1226.00
39.7209 1681.00
40.0252 1938.00
40.3295 1093.00
40.6337 1207.00
40.938 1090.00
41.2422 1317.00
41.5465 1879.00
41.8508 1250.00
42.155 1379.00
42.4593 1244.00
42.7635 1383.00
43.0678 1269.00
43.3721 1048.00
43.6763 1574.00
43.9806 1126.00
44.2849 1150.00
44.5891 3018.00
44.8934 2411.00
45.1976 1162.00
45.5019 1126.00
45.8062 1214.00
46.1104 1260.00
46.4147 1261.00
46.7189 1925.00
47.0232 3738.00
47.3275 1700.00
47.6317 1101.00
47.936 1005.00
48.2402 1017.00
48.5445 1059.00
48.8488 1061.00
49.153 1450.00
49.4573 3234.00
49.7615 1538.00
50.0658 1146.00
50.3701 1107.00
50.6743 1696.00
50.9786 1323.00
51.2828 1887.00
51.5871 2976.00
51.8914 1460.00
52.1956 1059.00
52.4999 1034.00
52.8041 1157.00
53.1084 3448.00
53.4127 2549.00
53.7169 1154.00
54.0212 1161.00
54.3254 1124.00
54.6297 1303.00
54.934 1570.00
55.2382 1065.00
55.5425 1285.00
55.8467 1283.00
56.151 1278.00
56.4553 1096.00
56.7595 1131.00
57.0638 1181.00
57.368 1330.00
57.6723 1309.00
57.9766 1209.00
58.2808 1079.00
58.5851 1160.00
58.8893 1402.00
59.1936 3257.00
59.4979 2025.00
59.8021 1788.00
60.1064 1342.00
60.4106 1206.00
60.7149 1521.00
61.0192 2086.00
61.3234 1398.00
61.6277 1519.00
61.932 1609.00
62.2362 1316.00
62.5405 1301.00
62.8447 1275.00
63.149 1585.00
63.4533 1580.00
63.7575 1408.00
64.0618 1135.00
64.366 1173.00
64.6703 1370.00
64.9745 1033.00
65.2788 1006.00
65.5831 1073.00
65.8873 1248.00
66.1916 1203.00
66.4959 1370.00
66.8001 1598.00
67.1044 1620.00
67.4086 1241.00
67.7129 1168.00
68.0172 1374.00
68.3214 1418.00
68.6257 979.00
68.9299 1102.00
69.2342 1088.00
69.5385 1028.00
69.8427 958.00
70.147 890.00
70.4512 900.00
70.7555 968.00
71.0598 1149.00
71.364 1275.00
71.6683 1590.00
71.9725 1055.00
72.2768 934.00
72.5811 942.00
72.8853 975.00
73.1896 1112.00
73.4938 1245.00
73.7981 1261.00
74.1024 1128.00
74.4066 1030.00
74.7109 1066.00
75.0151 1284.00
75.3194 960.00
75.6237 955.00
75.9279 1033.00
76.2322 892.00
76.5364 904.00
76.8407 1104.00
77.145 1123.00
77.4492 1001.00
77.7535 947.00
78.0577 889.00
78.362 883.00
78.6663 863.00
78.9705 908.00
79.2748 924.00
79.579 951.00
79.8833 1247.00
80.1876 1311.00
80.4918 1255.00
80.7961 1070.00
81.1003 930.00
81.4046 1100.00
81.7089 1356.00
82.0131 1072.00
82.3174 958.00
82.6217 869.00
82.9259 944.00
83.2302 1050.00
83.5344 963.00
83.8387 890.00
84.143 908.00
84.4472 910.00
84.7515 944.00
85.0557 903.00
85.36 856.00
85.6643 851.00
85.9685 907.00
86.2728 942.00
86.577 1089.00
86.8813 1172.00
87.1856 1110.00
87.4898 1062.00
87.7941 933.00
88.0983 936.00
88.4026 1027.00
88.7069 961.00
89.0111 994.00
89.3154 1009.00
89.6196 1113.00
89.9239 1219.00
90.2282 1134.00
90.5324 989.00
90.8367 932.00
91.1409 973.00
91.4452 1067.00
91.7495 949.00
92.0537 890.00
92.358 819.00
92.6622 895.00
92.9665 948.00
93.2708 1062.00
93.575 1239.00
93.8793 978.00
94.1835 891.00
94.4878 1026.00
94.7921 1045.00
95.0963 1016.00
95.4006 955.00
95.7048 988.00
96.0091 943.00
96.3134 918.00
96.6176 857.00
96.9219 931.00
97.2261 820.00
97.5304 844.00
97.8347 846.00
98.1389 854.00
98.4432 852.00
98.7474 915.00
99.0517 941.00
99.356 1099.00
99.6602 1349.00
99.9645 1222.00
100.095 1177.00

File: NSC_191.xy
9.903433 2754.00
10.2077 2641.00
10.512 2371.00
10.8162 2390.00
11.1205 2318.00
11.4247 2247.00
11.729 2334.00
12.0333 2370.00
12.3375 2738.00
12.6418 2097.00
12.946 2020.00
13.2503 1888.00
13.5546 1958.00
13.8588 2091.00
14.1631 2624.00
14.4673 1885.00
14.7716 1787.00
15.0759 1809.00
15.3801 1732.00
15.6844 1805.00
15.9886 1732.00
16.2929 1798.00
16.5972 1806.00
16.9014 2611.00
17.2057 1845.00
17.5099 1762.00
17.8142 1713.00
18.1185 1683.00
18.4227 1614.00
18.727 1624.00
19.0312 1619.00
19.3355 1787.00
19.6398 3331.00
19.944 8571.00
20.2483 1763.00
20.5525 1613.00
20.8568 1574.00
21.1611 2133.00
21.4653 1613.00
21.7696 1443.00
22.0738 1374.00
22.3781 1422.00
22.6824 1525.00
22.9866 1604.00
23.2909 3397.00
23.5951 1452.00
23.8994 1447.00
24.2037 1653.00
24.5079 1572.00
24.8122 1287.00
25.1164 1335.00
25.4207 1352.00
25.725 1296.00
26.0292 1294.00
26.3335 1247.00
26.6378 1536.00
26.942 3559.00
27.2463 1641.00
27.5505 4408.00
27.8548 1686.00
28.1591 4456.00
28.4633 1685.00
28.7676 1271.00
29.0718 1211.00
29.3761 1270.00
29.6804 1207.00
29.9846 2032.00
30.2889 1350.00
30.5931 2632.00
30.8974 1419.00
31.2017 1525.00
31.5059 7701.00
31.8102 1996.00
32.1144 1262.00
32.4187 1205.00
32.723 2634.00
33.0272 1170.00
33.3315 1201.00
33.6357 1227.00
33.94 4378.00
34.2443 3524.00
34.5485 5858.00
34.8528 1945.00
35.157 3696.00
35.4613 1348.00
35.7656 1214.00
36.0698 1196.00
36.3741 1081.00
36.6783 1265.00
36.9826 974.00
37.2869 1005.00
37.5911 1054.00
37.8954 999.00
38.1996 1161.00
38.5039 1069.00
38.8082 954.00
39.1124 963.00
39.4167 991.00
39.7209 1187.00
40.0252 1459.00
40.3295 1190.00
40.6337 970.00
40.938 1008.00
41.2422 988.00
41.5465 952.00
41.8508 1515.00
42.155 1014.00
42.4593 1107.00
42.7635 1175.00
43.0678 1346.00
43.3721 881.00
43.6763 1219.00
43.9806 940.00
44.2849 865.00
44.5891 935.00
44.8934 2429.00
45.1976 1781.00
45.5019 948.00
45.8062 1010.00
46.1104 1051.00
46.4147 930.00
46.7189 1176.00
47.0232 1527.00
47.3275 3253.00
47.6317 1344.00
47.936 875.00
48.2402 859.00
48.5445 865.00
48.8488 826.00
49.153 959.00
49.4573 2998.00
49.7615 1418.00
50.0658 971.00
50.3701 899.00
50.6743 907.00
50.9786 1211.00
51.2828 1122.00
51.5871 1682.00
51.8914 2240.00
52.1956 1216.00
52.4999 922.00
52.8041 865.00
53.1084 956.00
53.4127 1814.00
53.7169 2346.00
54.0212 1248.00
54.3254 882.00
54.6297 916.00
54.934 1121.00
55.2382 1154.00
55.5425 1032.00
55.8467 957.00
56.151 1023.00
56.4553 879.00
56.7595 841.00
57.0638 1030.00
57.368 866.00
57.6723 1062.00
57.9766 1104.00
58.2808 983.00
58.5851 818.00
58.8893 911.00
59.1936 982.00
59.4979 2063.00
59.8021 2667.00
60.1064 1399.00
60.4106 922.00
60.7149 920.00
61.0192 858.00
61.3234 1493.00
61.6277 1513.00
61.932 1838.00
62.2362 1121.00
62.5405 1002.00
62.8447 1030.00
63.149 989.00
63.4533 1134.00
63.7575 1195.00
64.0618 1205.00
64.366 922.00
64.6703 820.00
64.9745 936.00
65.2788 1046.00
65.5831 931.00
65.8873 886.00
66.1916 937.00
66.4959 1009.00
66.8001 933.00
67.1044 1209.00
67.4086 1237.00
67.7129 1079.00
68.0172 808.00
68.3214 889.00
68.6257 1094.00
68.9299 938.00
69.2342 989.00
69.5385 826.00
69.8427 778.00
70.147 837.00
70.4512 748.00
70.7555 781.00
71.0598 918.00
71.364 871.00
71.6683 761.00
71.9725 991.00
72.2768 1148.00
72.5811 896.00
72.8853 735.00
73.1896 716.00
73.4938 876.00
73.7981 1031.00
74.1024 892.00
74.4066 987.00
74.7109 877.00
75.0151 711.00
75.3194 733.00
75.6237 915.00
75.9279 780.00
76.2322 765.00
76.5364 678.00
76.8407 672.00
77.145 699.00
77.4492 839.00
77.7535 807.00
78.0577 770.00
78.362 705.00
78.6663 693.00
78.9705 743.00
79.2748 778.00
79.579 704.00
79.8833 664.00
80.1876 709.00
80.4918 876.00
80.7961 1062.00
81.1003 1038.00
81.4046 898.00
81.7089 888.00
82.0131 781.00
82.3174 873.00
82.6217 862.00
82.9259 752.00
83.2302 718.00
83.5344 851.00
83.8387 802.00
84.143 777.00
84.4472 675.00
84.7515 675.00
85.0557 666.00
85.36 732.00
85.6643 697.00
85.9685 720.00
86.2728 699.00
86.577 679.00
86.8813 786.00
87.1856 821.00
87.4898 1037.00
87.7941 902.00
88.0983 822.00
88.4026 735.00
88.7069 746.00
89.0111 772.00
89.3154 743.00
89.6196 709.00
89.9239 793.00
90.2282 814.00
90.5324 857.00
90.8367 881.00
91.1409 821.00
91.4452 732.00
91.7495 753.00
92.0537 690.00
92.358 761.00
92.6622 708.00
92.9665 666.00
93.2708 683.00
93.575 772.00
93.8793 821.00
94.1835 910.00
94.4878 839.00
94.7921 716.00
95.0963 689.00
95.4006 810.00
95.7048 841.00
96.0091 752.00
96.3134 720.00
96.6176 719.00
96.9219 690.00
97.2261 713.00
97.5304 624.00
97.8347 666.00
98.1389 614.00
98.4432 616.00
98.7474 681.00
99.0517 694.00
99.356 671.00
99.6602 665.00
99.9645 660.00
100.095 726.00