Folder: alab-pipeline/data/xrd_creation/results (part 85)

File: PG_1740-1.xy
9.903433 2586.00
10.2077 2464.00
10.512 2342.00
10.8162 2263.00
11.1205 2104.00
11.4247 2098.00
11.729 1966.00
12.0333 1966.00
12.3375 1959.00
12.6418 1837.00
12.946 1810.00
13.2503 1599.00
13.5546 1750.00
13.8588 1697.00
14.1631 1770.00
14.4673 2906.00
14.7716 1658.00
15.0759 1493.00
15.3801 1622.00
15.6844 1519.00
15.9886 1513.00
16.2929 1459.00
16.5972 1504.00
16.9014 1395.00
17.2057 1430.00
17.5099 1437.00
17.8142 1856.00
18.1185 1429.00
18.4227 1297.00
18.727 1295.00
19.0312 1293.00
19.3355 1197.00
19.6398 1254.00
19.944 1201.00
20.2483 1210.00
20.5525 1224.00
20.8568 1227.00
21.1611 1182.00
21.4653 1130.00
21.7696 1136.00
22.0738 1170.00
22.3781 1150.00
22.6824 1142.00
22.9866 1120.00
23.2909 1074.00
23.5951 1120.00
23.8994 1131.00
24.2037 1249.00
24.5079 2931.00
24.8122 1869.00
25.1164 1217.00
25.4207 1035.00
25.725 1164.00
26.0292 1187.00
26.3335 1837.00
26.6378 16987.00
26.942 2150.00
27.2463 1294.00
27.5505 1614.00
27.8548 1205.00
28.1591 1411.00
28.4633 3708.00
28.7676 7422.00
29.0718 2415.00
29.3761 2409.00
29.6804 1187.00
29.9846 1083.00
30.2889 1142.00
30.5931 1867.00
30.8974 2054.00
31.2017 2947.00
31.5059 1666.00
31.8102 4063.00
32.1144 5593.00
32.4187 8380.00
32.723 1876.00
33.0272 1213.00
33.3315 1007.00
33.6357 1129.00
33.94 1202.00
34.2443 3663.00
34.5485 3214.00
34.8528 3084.00
35.157 1329.00
35.4613 1107.00
35.7656 3045.00
36.0698 1311.00
36.3741 1619.00
36.6783 962.00
36.9826 1096.00
37.2869 859.00
37.5911 909.00
37.8954 816.00
38.1996 902.00
38.5039 785.00
38.8082 875.00
39.1124 1909.00
39.4167 993.00
39.7209 1261.00
40.0252 1052.00
40.3295 1061.00
40.6337 923.00
40.938 1009.00
41.2422 2273.00
41.5465 1213.00
41.8508 1244.00
42.155 897.00
42.4593 782.00
42.7635 789.00
43.0678 721.00
43.3721 802.00
43.6763 809.00
43.9806 877.00
44.2849 861.00
44.5891 1104.00
44.8934 1940.00
45.1976 1127.00
45.5019 1387.00
45.8062 990.00
46.1104 1925.00
46.4147 2122.00
46.7189 1086.00
47.0232 858.00
47.3275 818.00
47.6317 1388.00
47.936 2262.00
48.2402 852.00
48.5445 901.00
48.8488 968.00
49.153 865.00
49.4573 1235.00
49.7615 2519.00
50.0658 4205.00
50.3701 1633.00
50.6743 3144.00
50.9786 1749.00
51.2828 1904.00
51.5871 1018.00
51.8914 1402.00
52.1956 1679.00
52.4999 3855.00
52.8041 914.00
53.1084 950.00
53.4127 1187.00
53.7169 836.00
54.0212 988.00
54.3254 1007.00
54.6297 1605.00
54.934 1535.00
55.2382 1048.00
55.5425 978.00
55.8467 1592.00
56.151 2626.00
56.4553 2116.00
56.7595 1412.00
57.0638 872.00
57.368 857.00
57.6723 1189.00
57.9766 1606.00
58.2808 2418.00
58.5851 1958.00
58.8893 1419.00
59.1936 1035.00
59.4979 1871.00
59.8021 1054.00
60.1064 1013.00
60.4106 2039.00
60.7149 2731.00
61.0192 1354.00
61.3234 959.00
61.6277 1104.00
61.932 1319.00
62.2362 1191.00
62.5405 1449.00
62.8447 1206.00
63.149 1098.00
63.4533 2066.00
63.7575 1663.00
64.0618 915.00
64.366 1197.00
64.6703 882.00
64.9745 1093.00
65.2788 771.00
65.5831 795.00
65.8873 1009.00
66.1916 2458.00
66.4959 2300.00
66.8001 1012.00
67.1044 811.00
67.4086 796.00
67.7129 751.00
68.0172 641.00
68.3214 780.00
68.6257 847.00
68.9299 713.00
69.2342 805.00
69.5385 904.00
69.8427 1049.00
70.147 1087.00
70.4512 823.00
70.7555 736.00
71.0598 730.00
71.364 744.00
71.6683 957.00
71.9725 1535.00
72.2768 1420.00
72.5811 1016.00
72.8853 951.00
73.1896 867.00
73.4938 921.00
73.7981 869.00
74.1024 1047.00
74.4066 859.00
74.7109 707.00
75.0151 754.00
75.3194 944.00
75.6237 1265.00
75.9279 1247.00
76.2322 896.00
76.5364 1047.00
76.8407 1270.00
77.145 977.00
77.4492 841.00
77.7535 772.00
78.0577 892.00
78.362 903.00
78.6663 830.00
78.9705 890.00
79.2748 807.00
79.579 988.00
79.8833 990.00
80.1876 798.00
80.4918 721.00
80.7961 813.00
81.1003 894.00
81.4046 756.00
81.7089 739.00
82.0131 793.00
82.3174 1116.00
82.6217 1049.00
82.9259 1352.00
83.2302 1457.00
83.5344 1260.00
83.8387 1323.00
84.143 1258.00
84.4472 1067.00
84.7515 1870.00
85.0557 1352.00
85.36 922.00
85.6643 1016.00
85.9685 935.00
86.2728 954.00
86.577 857.00
86.8813 862.00
87.1856 1034.00
87.4898 877.00
87.7941 926.00
88.0983 1010.00
88.4026 1043.00
88.7069 929.00
89.0111 1040.00
89.3154 1126.00
89.6196 1263.00
89.9239 1087.00
90.2282 950.00
90.5324 1019.00
90.8367 985.00
91.1409 890.00
91.4452 1166.00
91.7495 1004.00
92.0537 819.00
92.358 816.00
92.6622 817.00
92.9665 783.00
93.2708 889.00
93.575 790.00
93.8793 753.00
94.1835 757.00
94.4878 792.00
94.7921 821.00
95.0963 799.00
95.4006 715.00
95.7048 841.00
96.0091 1096.00
96.3134 911.00
96.6176 799.00
96.9219 850.00
97.2261 935.00
97.5304 1183.00
97.8347 1340.00
98.1389 1028.00
98.4432 805.00
98.7474 912.00
99.0517 974.00
99.356 958.00
99.6602 895.00
99.9645 910.00
100.095 927.00

File: PG_1741-1.xy
9.903433 2535.00
10.2077 2372.00
10.512 2237.00
10.8162 2267.00
11.1205 2140.00
11.4247 2197.00
11.729 2107.00
12.0333 1931.00
12.3375 2018.00
12.6418 1862.00
12.946 1740.00
13.2503 1790.00
13.5546 1796.00
13.8588 1937.00
14.1631 2536.00
14.4673 1601.00
14.7716 1585.00
15.0759 1591.00
15.3801 1500.00
15.6844 1525.00
15.9886 1500.00
16.2929 1479.00
16.5972 1512.00
16.9014 1444.00
17.2057 1461.00
17.5099 1440.00
17.8142 1749.00
18.1185 1423.00
18.4227 1408.00
18.727 1325.00
19.0312 1340.00
19.3355 1253.00
19.6398 1403.00
19.944 1242.00
20.2483 1258.00
20.5525 1179.00
20.8568 1217.00
21.1611 1167.00
21.4653 1190.00
21.7696 1091.00
22.0738 1092.00
22.3781 1072.00
22.6824 1109.00
22.9866 1095.00
23.2909 1096.00
23.5951 1030.00
23.8994 1147.00
24.2037 1214.00
24.5079 2678.00
24.8122 1720.00
25.1164 1278.00
25.4207 1076.00
25.725 1035.00
26.0292 1106.00
26.3335 1014.00
26.6378 1053.00
26.942 1080.00
27.2463 1159.00
27.5505 1364.00
27.8548 4269.00
28.1591 5961.00
28.4633 3445.00
28.7676 9691.00
29.0718 1754.00
29.3761 1241.00
29.6804 1158.00
29.9846 1057.00
30.2889 1037.00
30.5931 1079.00
30.8974 1046.00
31.2017 1048.00
31.5059 1430.00
31.8102 3261.00
32.1144 5998.00
32.4187 9026.00
32.723 1252.00
33.0272 1026.00
33.3315 1005.00
33.6357 957.00
33.94 1010.00
34.2443 1042.00
34.5485 2309.00
34.8528 2888.00
35.157 1561.00
35.4613 2226.00
35.7656 2598.00
36.0698 1276.00
36.3741 1503.00
36.6783 889.00
36.9826 902.00
37.2869 807.00
37.5911 726.00
37.8954 754.00
38.1996 797.00
38.5039 798.00
38.8082 788.00
39.1124 1887.00
39.4167 884.00
39.7209 775.00
40.0252 857.00
40.3295 780.00
40.6337 799.00
40.938 829.00
41.2422 1919.00
41.5465 1240.00
41.8508 1231.00
42.155 879.00
42.4593 1007.00
42.7635 719.00
43.0678 673.00
43.3721 680.00
43.6763 657.00
43.9806 640.00
44.2849 675.00
44.5891 753.00
44.8934 729.00
45.1976 785.00
45.5019 1211.00
45.8062 932.00
46.1104 2103.00
46.4147 5225.00
46.7189 923.00
47.0232 733.00
47.3275 779.00
47.6317 649.00
47.936 641.00
48.2402 718.00
48.5445 985.00
48.8488 771.00
49.153 721.00
49.4573 894.00
49.7615 1648.00
50.0658 1738.00
50.3701 930.00
50.6743 2449.00
50.9786 1827.00
51.2828 1835.00
51.5871 857.00
51.8914 1209.00
52.1956 727.00
52.4999 672.00
52.8041 648.00
53.1084 666.00
53.4127 705.00
53.7169 697.00
54.0212 762.00
54.3254 833.00
54.6297 1941.00
54.934 4949.00
55.2382 1143.00
55.5425 964.00
55.8467 1432.00
56.151 2392.00
56.4553 1419.00
56.7595 1350.00
57.0638 790.00
57.368 1229.00
57.6723 1894.00
57.9766 1468.00
58.2808 854.00
58.5851 1429.00
58.8893 1207.00
59.1936 1019.00
59.4979 1299.00
59.8021 746.00
60.1064 729.00
60.4106 1401.00
60.7149 1768.00
61.0192 860.00
61.3234 712.00
61.6277 700.00
61.932 1138.00
62.2362 1207.00
62.5405 1349.00
62.8447 1132.00
63.149 819.00
63.4533 1292.00
63.7575 1293.00
64.0618 757.00
64.366 1355.00
64.6703 845.00
64.9745 1109.00
65.2788 725.00
65.5831 651.00
65.8873 799.00
66.1916 1046.00
66.4959 1539.00
66.8001 895.00
67.1044 743.00
67.4086 1322.00
67.7129 647.00
68.0172 532.00
68.3214 575.00
68.6257 609.00
68.9299 683.00
69.2342 897.00
69.5385 702.00
69.8427 831.00
70.147 600.00
70.4512 685.00
70.7555 667.00
71.0598 629.00
71.364 644.00
71.6683 759.00
71.9725 1383.00
72.2768 865.00
72.5811 729.00
72.8853 910.00
73.1896 803.00
73.4938 808.00
73.7981 719.00
74.1024 809.00
74.4066 1536.00
74.7109 746.00
75.0151 595.00
75.3194 735.00
75.6237 781.00
75.9279 1095.00
76.2322 940.00
76.5364 1774.00
76.8407 1338.00
77.145 899.00
77.4492 815.00
77.7535 707.00
78.0577 797.00
78.362 923.00
78.6663 741.00
78.9705 738.00
79.2748 652.00
79.579 699.00
79.8833 848.00
80.1876 625.00
80.4918 640.00
80.7961 618.00
81.1003 596.00
81.4046 703.00
81.7089 672.00
82.0131 719.00
82.3174 888.00
82.6217 865.00
82.9259 785.00
83.2302 747.00
83.5344 848.00
83.8387 852.00
84.143 946.00
84.4472 810.00
84.7515 942.00
85.0557 944.00
85.36 1164.00
85.6643 1204.00
85.9685 805.00
86.2728 614.00
86.577 670.00
86.8813 766.00
87.1856 802.00
87.4898 640.00
87.7941 600.00
88.0983 648.00
88.4026 845.00
88.7069 762.00
89.0111 928.00
89.3154 969.00
89.6196 799.00
89.9239 715.00
90.2282 787.00
90.5324 880.00
90.8367 908.00
91.1409 756.00
91.4452 1356.00
91.7495 1168.00
92.0537 1421.00
92.358 1017.00
92.6622 709.00
92.9665 589.00
93.2708 584.00
93.575 616.00
93.8793 619.00
94.1835 665.00
94.4878 668.00
94.7921 766.00
95.0963 691.00
95.4006 641.00
95.7048 800.00
96.0091 874.00
96.3134 827.00
96.6176 632.00
96.9219 764.00
97.2261 819.00
97.5304 973.00
97.8347 1015.00
98.1389 812.00
98.4432 745.00
98.7474 704.00
99.0517 838.00
99.356 779.00
99.6602 867.00
99.9645 780.00
100.095 915.00

File: PG_1743-1.xy
9.903433 2903.00
10.2077 2823.00
10.512 2751.00
10.8162 2547.00
11.1205 2591.00
11.4247 2502.00
11.729 2432.00
12.0333 2336.00
12.3375 2293.00
12.6418 2145.00
12.946 2211.00
13.2503 2106.00
13.5546 2181.00
13.8588 2096.00
14.1631 2062.00
14.4673 2021.00
14.7716 1968.00
15.0759 1953.00
15.3801 1946.00
15.6844 1861.00
15.9886 1904.00
16.2929 1844.00
16.5972 1893.00
16.9014 1870.00
17.2057 1785.00
17.5099 1975.00
17.8142 3260.00
18.1185 1891.00
18.4227 1843.00
18.727 1774.00
19.0312 1809.00
19.3355 1709.00
19.6398 1677.00
19.944 1698.00
20.2483 1738.00
20.5525 1748.00
20.8568 1738.00
21.1611 1634.00
21.4653 1751.00
21.7696 1695.00
22.0738 1648.00
22.3781 1649.00
22.6824 1651.00
22.9866 1595.00
23.2909 1618.00
23.5951 1629.00
23.8994 1659.00
24.2037 1952.00
24.5079 6877.00
24.8122 4058.00
25.1164 2026.00
25.4207 1532.00
25.725 1567.00
26.0292 1540.00
26.3335 1428.00
26.6378 1469.00
26.942 1485.00
27.2463 1439.00
27.5505 1535.00
27.8548 1916.00
28.1591 2591.00
28.4633 9250.00
28.7676 17856.00
29.0718 2839.00
29.3761 1854.00
29.6804 1723.00
29.9846 1617.00
30.2889 1472.00
30.5931 1513.00
30.8974 1661.00
31.2017 1862.00
31.5059 2537.00
31.8102 9965.00
32.1144 10467.00
32.4187 2228.00
32.723 1565.00
33.0272 1376.00
33.3315 1321.00
33.6357 1434.00
33.94 1376.00
34.2443 1751.00
34.5485 6635.00
34.8528 7400.00
35.157 2415.00
35.4613 1912.00
35.7656 7561.00
36.0698 2215.00
36.3741 3490.00
36.6783 1419.00
36.9826 1133.00
37.2869 1138.00
37.5911 1154.00
37.8954 1124.00
38.1996 1189.00
38.5039 1160.00
38.8082 1302.00
39.1124 4058.00
39.4167 1387.00
39.7209 1122.00
40.0252 1138.00
40.3295 1225.00
40.6337 1327.00
40.938 1455.00
41.2422 4928.00
41.5465 2218.00
41.8508 2473.00
42.155 1417.00
42.4593 1088.00
42.7635 1010.00
43.0678 1046.00
43.3721 966.00
43.6763 995.00
43.9806 1025.00
44.2849 1001.00
44.5891 1007.00
44.8934 1085.00
45.1976 1447.00
45.5019 1970.00
45.8062 1494.00
46.1104 2989.00
46.4147 1175.00
46.7189 1002.00
47.0232 954.00
47.3275 959.00
47.6317 961.00
47.936 955.00
48.2402 963.00
48.5445 1006.00
48.8488 1007.00
49.153 1101.00
49.4573 1663.00
49.7615 4753.00
50.0658 2577.00
50.3701 1504.00
50.6743 7190.00
50.9786 3132.00
51.2828 3389.00
51.5871 1421.00
51.8914 2190.00
52.1956 1129.00
52.4999 1065.00
52.8041 1014.00
53.1084 959.00
53.4127 939.00
53.7169 1018.00
54.0212 1066.00
54.3254 1294.00
54.6297 3422.00
54.934 2409.00
55.2382 1486.00
55.5425 1400.00
55.8467 3421.00
56.151 4765.00
56.4553 2945.00
56.7595 2295.00
57.0638 1166.00
57.368 1234.00
57.6723 2118.00
57.9766 2657.00
58.2808 1445.00
58.5851 2637.00
58.8893 2452.00
59.1936 1230.00
59.4979 1077.00
59.8021 1101.00
60.1064 1222.00
60.4106 3527.00
60.7149 3384.00
61.0192 1358.00
61.3234 1107.00
61.6277 1125.00
61.932 2369.00
62.2362 2171.00
62.5405 3009.00
62.8447 1827.00
63.149 1353.00
63.4533 2975.00
63.7575 2212.00
64.0618 1104.00
64.366 1047.00
64.6703 1339.00
64.9745 2032.00
65.2788 1109.00
65.5831 1057.00
65.8873 1320.00
66.1916 2116.00
66.4959 2820.00
66.8001 1416.00
67.1044 990.00
67.4086 881.00
67.7129 885.00
68.0172 927.00
68.3214 876.00
68.6257 887.00
68.9299 936.00
69.2342 991.00
69.5385 1317.00
69.8427 1443.00
70.147 1068.00
70.4512 1018.00
70.7555 961.00
71.0598 1011.00
71.364 1038.00
71.6683 1588.00
71.9725 2475.00
72.2768 1224.00
72.5811 1214.00
72.8853 1488.00
73.1896 1350.00
73.4938 1392.00
73.7981 933.00
74.1024 963.00
74.4066 972.00
74.7109 881.00
75.0151 898.00
75.3194 1236.00
75.6237 1481.00
75.9279 1969.00
76.2322 1243.00
76.5364 992.00
76.8407 982.00
77.145 1463.00
77.4492 1308.00
77.7535 1138.00
78.0577 1257.00
78.362 1295.00
78.6663 1188.00
78.9705 1178.00
79.2748 1017.00
79.579 1418.00
79.8833 1382.00
80.1876 983.00
80.4918 909.00
80.7961 894.00
81.1003 992.00
81.4046 1014.00
81.7089 987.00
82.0131 1161.00
82.3174 1639.00
82.6217 1258.00
82.9259 1095.00
83.2302 1272.00
83.5344 1453.00
83.8387 1683.00
84.143 1679.00
84.4472 1358.00
84.7515 1636.00
85.0557 1653.00
85.36 1126.00
85.6643 1409.00
85.9685 1295.00
86.2728 920.00
86.577 954.00
86.8813 1273.00
87.1856 1151.00
87.4898 914.00
87.7941 946.00
88.0983 1070.00
88.4026 1479.00
88.7069 1263.00
89.0111 1539.00
89.3154 1750.00
89.6196 1412.00
89.9239 1204.00
90.2282 1308.00
90.5324 1494.00
90.8367 1511.00
91.1409 1079.00
91.4452 1004.00
91.7495 1102.00
92.0537 1041.00
92.358 1040.00
92.6622 906.00
92.9665 941.00
93.2708 884.00
93.575 872.00
93.8793 911.00
94.1835 860.00
94.4878 996.00
94.7921 1195.00
95.0963 1047.00
95.4006 1018.00
95.7048 1274.00
96.0091 1566.00
96.3134 1290.00
96.6176 1108.00
96.9219 1356.00
97.2261 1449.00
97.5304 1905.00
97.8347 1941.00
98.1389 1395.00
98.4432 1125.00
98.7474 1101.00
99.0517 1354.00
99.356 1308.00
99.6602 1474.00
99.9645 1486.00
100.095 1547.00

File: PG_1744-1.xy
9.903433 2361.00
10.2077 2193.00
10.512 2184.00
10.8162 2120.00
11.1205 2001.00
11.4247 1862.00
11.729 1841.00
12.0333 1757.00
12.3375 1800.00
12.6418 1623.00
12.946 1665.00
13.2503 1563.00
13.5546 1538.00
13.8588 1548.00
14.1631 1504.00
14.4673 1463.00
14.7716 1365.00
15.0759 1333.00
15.3801 1393.00
15.6844 1357.00
15.9886 1381.00
16.2929 1314.00
16.5972 1254.00
16.9014 1283.00
17.2057 1199.00
17.5099 1268.00
17.8142 1357.00
18.1185 1214.00
18.4227 1117.00
18.727 1119.00
19.0312 1133.00
19.3355 1093.00
19.6398 1023.00
19.944 1027.00
20.2483 1036.00
20.5525 1017.00
20.8568 1032.00
21.1611 985.00
21.4653 920.00
21.7696 897.00
22.0738 918.00
22.3781 943.00
22.6824 910.00
22.9866 900.00
23.2909 892.00
23.5951 866.00
23.8994 866.00
24.2037 945.00
24.5079 1522.00
24.8122 1238.00
25.1164 833.00
25.4207 835.00
25.725 826.00
26.0292 822.00
26.3335 911.00
26.6378 1667.00
26.942 3700.00
27.2463 937.00
27.5505 764.00
27.8548 778.00
28.1591 939.00
28.4633 2575.00
28.7676 2570.00
29.0718 906.00
29.3761 745.00
29.6804 698.00
29.9846 680.00
30.2889 707.00
30.5931 704.00
30.8974 684.00
31.2017 734.00
31.5059 874.00
31.8102 2667.00
32.1144 1644.00
32.4187 769.00
32.723 647.00
33.0272 608.00
33.3315 654.00
33.6357 711.00
33.94 1500.00
34.2443 3221.00
34.5485 1931.00
34.8528 1745.00
35.157 716.00
35.4613 713.00
35.7656 1880.00
36.0698 745.00
36.3741 915.00
36.6783 544.00
36.9826 573.00
37.2869 559.00
37.5911 590.00
37.8954 573.00
38.1996 1674.00
38.5039 633.00
38.8082 630.00
39.1124 1118.00
39.4167 656.00
39.7209 548.00
40.0252 535.00
40.3295 511.00
40.6337 530.00
40.938 614.00
41.2422 1214.00
41.5465 762.00
41.8508 685.00
42.155 532.00
42.4593 452.00
42.7635 510.00
43.0678 467.00
43.3721 458.00
43.6763 435.00
43.9806 461.00
44.2849 462.00
44.5891 443.00
44.8934 479.00
45.1976 581.00
45.5019 585.00
45.8062 576.00
46.1104 771.00
46.4147 527.00
46.7189 451.00
47.0232 443.00
47.3275 434.00
47.6317 422.00
47.936 427.00
48.2402 428.00
48.5445 449.00
48.8488 435.00
49.153 432.00
49.4573 610.00
49.7615 1514.00
50.0658 688.00
50.3701 631.00
50.6743 2047.00
50.9786 964.00
51.2828 973.00
51.5871 734.00
51.8914 2351.00
52.1956 2329.00
52.4999 574.00
52.8041 525.00
53.1084 444.00
53.4127 448.00
53.7169 435.00
54.0212 462.00
54.3254 573.00
54.6297 1206.00
54.934 1340.00
55.2382 809.00
55.5425 572.00
55.8467 1273.00
56.151 1251.00
56.4553 955.00
56.7595 712.00
57.0638 467.00
57.368 530.00
57.6723 811.00
57.9766 1102.00
58.2808 752.00
58.5851 936.00
58.8893 754.00
59.1936 491.00
59.4979 448.00
59.8021 468.00
60.1064 553.00
60.4106 1134.00
60.7149 972.00
61.0192 523.00
61.3234 470.00
61.6277 568.00
61.932 1108.00
62.2362 1248.00
62.5405 968.00
62.8447 643.00
63.149 572.00
63.4533 1020.00
63.7575 688.00
64.0618 476.00
64.366 461.00
64.6703 640.00
64.9745 1543.00
65.2788 641.00
65.5831 546.00
65.8873 708.00
66.1916 1799.00
66.4959 1201.00
66.8001 578.00
67.1044 479.00
67.4086 410.00
67.7129 441.00
68.0172 400.00
68.3214 407.00
68.6257 391.00
68.9299 384.00
69.2342 443.00
69.5385 582.00
69.8427 557.00
70.147 464.00
70.4512 453.00
70.7555 452.00
71.0598 463.00
71.364 655.00
71.6683 992.00
71.9725 817.00
72.2768 507.00
72.5811 509.00
72.8853 549.00
73.1896 549.00
73.4938 553.00
73.7981 422.00
74.1024 419.00
74.4066 460.00
74.7109 420.00
75.0151 461.00
75.3194 562.00
75.6237 600.00
75.9279 695.00
76.2322 492.00
76.5364 442.00
76.8407 464.00
77.145 656.00
77.4492 534.00
77.7535 498.00
78.0577 581.00
78.362 571.00
78.6663 671.00
78.9705 1130.00
79.2748 637.00
79.579 626.00
79.8833 587.00
80.1876 424.00
80.4918 396.00
80.7961 427.00
81.1003 519.00
81.4046 653.00
81.7089 524.00
82.0131 509.00
82.3174 645.00
82.6217 585.00
82.9259 523.00
83.2302 589.00
83.5344 637.00
83.8387 1076.00
84.143 932.00
84.4472 594.00
84.7515 703.00
85.0557 631.00
85.36 569.00
85.6643 566.00
85.9685 540.00
86.2728 434.00
86.577 483.00
86.8813 566.00
87.1856 514.00
87.4898 618.00
87.7941 540.00
88.0983 545.00
88.4026 598.00
88.7069 550.00
89.0111 706.00
89.3154 738.00
89.6196 688.00
89.9239 1125.00
90.2282 947.00
90.5324 771.00
90.8367 804.00
91.1409 1056.00
91.4452 743.00
91.7495 536.00
92.0537 530.00
92.358 501.00
92.6622 466.00
92.9665 488.00
93.2708 562.00
93.575 682.00
93.8793 532.00
94.1835 501.00
94.4878 552.00
94.7921 564.00
95.0963 537.00
95.4006 511.00
95.7048 618.00
96.0091 801.00
96.3134 751.00
96.6176 576.00
96.9219 650.00
97.2261 688.00
97.5304 827.00
97.8347 866.00
98.1389 612.00
98.4432 568.00
98.7474 568.00
99.0517 639.00
99.356 611.00
99.6602 683.00
99.9645 654.00
100.095 727.00

File: PG_1745-1.xy
9.903433 2592.00
10.2077 2387.00
10.512 2337.00
10.8162 2252.00
11.1205 2117.00
11.4247 2111.00
11.729 2029.00
12.0333 1966.00
12.3375 1963.00
12.6418 1854.00
12.946 1776.00
13.2503 1703.00
13.5546 1739.00
13.8588 1730.00
14.1631 1654.00
14.4673 1565.00
14.7716 1540.00
15.0759 1534.00
15.3801 1516.00
15.6844 1538.00
15.9886 1487.00
16.2929 1460.00
16.5972 1415.00
16.9014 1392.00
17.2057 1420.00
17.5099 1380.00
17.8142 1549.00
18.1185 1368.00
18.4227 1268.00
18.727 1315.00
19.0312 1286.00
19.3355 1219.00
19.6398 1217.00
19.944 1283.00
20.2483 1264.00
20.5525 1236.00
20.8568 1146.00
21.1611 1090.00
21.4653 1235.00
21.7696 1248.00
22.0738 1410.00
22.3781 1199.00
22.6824 1101.00
22.9866 1075.00
23.2909 1067.00
23.5951 972.00
23.8994 1037.00
24.2037 1164.00
24.5079 2181.00
24.8122 1796.00
25.1164 1274.00
25.4207 3839.00
25.725 1314.00
26.0292 2385.00
26.3335 1114.00
26.6378 1009.00
26.942 968.00
27.2463 937.00
27.5505 972.00
27.8548 1050.00
28.1591 1247.00
28.4633 3725.00
28.7676 5170.00
29.0718 1435.00
29.3761 1063.00
29.6804 1134.00
29.9846 1346.00
30.2889 1094.00
30.5931 1447.00
30.8974 2176.00
31.2017 2884.00
31.5059 2376.00
31.8102 4998.00
32.1144 3239.00
32.4187 1263.00
32.723 952.00
33.0272 916.00
33.3315 880.00
33.6357 877.00
33.94 907.00
34.2443 1063.00
34.5485 2682.00
34.8528 2826.00
35.157 1296.00
35.4613 1492.00
35.7656 2753.00
36.0698 1126.00
36.3741 1907.00
36.6783 1452.00
36.9826 1446.00
37.2869 776.00
37.5911 716.00
37.8954 768.00
38.1996 796.00
38.5039 768.00
38.8082 835.00
39.1124 1466.00
39.4167 836.00
39.7209 778.00
40.0252 775.00
40.3295 794.00
40.6337 745.00
40.938 881.00
41.2422 1761.00
41.5465 1424.00
41.8508 1149.00
42.155 832.00
42.4593 708.00
42.7635 723.00
43.0678 727.00
43.3721 818.00
43.6763 784.00
43.9806 892.00
44.2849 2042.00
44.5891 1514.00
44.8934 1022.00
45.1976 1047.00
45.5019 1083.00
45.8062 1204.00
46.1104 1430.00
46.4147 821.00
46.7189 979.00
47.0232 965.00
47.3275 765.00
47.6317 763.00
47.936 1459.00
48.2402 827.00
48.5445 737.00
48.8488 743.00
49.153 758.00
49.4573 1026.00
49.7615 2205.00
50.0658 1755.00
50.3701 1429.00
50.6743 2781.00
50.9786 1595.00
51.2828 1358.00
51.5871 873.00
51.8914 1151.00
52.1956 762.00
52.4999 706.00
52.8041 686.00
53.1084 727.00
53.4127 761.00
53.7169 695.00
54.0212 851.00
54.3254 956.00
54.6297 1801.00
54.934 1577.00
55.2382 1597.00
55.5425 1442.00
55.8467 2026.00
56.151 1882.00
56.4553 1487.00
56.7595 1127.00
57.0638 831.00
57.368 934.00
57.6723 1337.00
57.9766 1175.00
58.2808 862.00
58.5851 1300.00
58.8893 1143.00
59.1936 1055.00
59.4979 749.00
59.8021 779.00
60.1064 1068.00
60.4106 1556.00
60.7149 1381.00
61.0192 868.00
61.3234 785.00
61.6277 801.00
61.932 1277.00
62.2362 1028.00
62.5405 1384.00
62.8447 992.00
63.149 986.00
63.4533 1513.00
63.7575 1144.00
64.0618 1002.00
64.366 1017.00
64.6703 1108.00
64.9745 1144.00
65.2788 869.00
65.5831 895.00
65.8873 1074.00
66.1916 1282.00
66.4959 1347.00
66.8001 939.00
67.1044 788.00
67.4086 717.00
67.7129 705.00
68.0172 657.00
68.3214 674.00
68.6257 732.00
68.9299 755.00
69.2342 731.00
69.5385 908.00
69.8427 848.00
70.147 770.00
70.4512 731.00
70.7555 724.00
71.0598 750.00
71.364 788.00
71.6683 1035.00
71.9725 1294.00
72.2768 1040.00
72.5811 919.00
72.8853 1022.00
73.1896 1152.00
73.4938 1031.00
73.7981 1129.00
74.1024 1044.00
74.4066 886.00
74.7109 874.00
75.0151 822.00
75.3194 1007.00
75.6237 1030.00
75.9279 1094.00
76.2322 941.00
76.5364 770.00
76.8407 795.00
77.145 998.00
77.4492 861.00
77.7535 974.00
78.0577 908.00
78.362 956.00
78.6663 853.00
78.9705 839.00
79.2748 743.00
79.579 917.00
79.8833 929.00
80.1876 800.00
80.4918 814.00
80.7961 726.00
81.1003 773.00
81.4046 761.00
81.7089 847.00
82.0131 932.00
82.3174 1141.00
82.6217 883.00
82.9259 893.00
83.2302 1034.00
83.5344 957.00
83.8387 1049.00
84.143 954.00
84.4472 955.00
84.7515 1035.00
85.0557 973.00
85.36 896.00
85.6643 973.00
85.9685 853.00
86.2728 794.00
86.577 784.00
86.8813 891.00
87.1856 851.00
87.4898 773.00
87.7941 791.00
88.0983 878.00
88.4026 959.00
88.7069 963.00
89.0111 1041.00
89.3154 1251.00
89.6196 1087.00
89.9239 1152.00
90.2282 1115.00
90.5324 1089.00
90.8367 1036.00
91.1409 886.00
91.4452 781.00
91.7495 868.00
92.0537 910.00
92.358 853.00
92.6622 754.00
92.9665 764.00
93.2708 758.00
93.575 723.00
93.8793 816.00
94.1835 815.00
94.4878 837.00
94.7921 988.00
95.0963 890.00
95.4006 874.00
95.7048 936.00
96.0091 1008.00
96.3134 1012.00
96.6176 861.00
96.9219 1001.00
97.2261 1120.00
97.5304 1290.00
97.8347 1227.00
98.1389 947.00
98.4432 870.00
98.7474 869.00
99.0517 1022.00
99.356 1083.00
99.6602 1031.00
99.9645 1061.00
100.095 1079.00