Folder: alab-pipeline/data/xrd_creation/results (part 105)

File: PG_2451-1.xy
9.903433 2522.00
10.2077 2428.00
10.512 2390.00
10.8162 2218.00
11.1205 2198.00
11.4247 2039.00
11.729 1954.00
12.0333 1953.00
12.3375 1892.00
12.6418 1850.00
12.946 1839.00
13.2503 1746.00
13.5546 1684.00
13.8588 1743.00
14.1631 1568.00
14.4673 1665.00
14.7716 1577.00
15.0759 1587.00
15.3801 1585.00
15.6844 1511.00
15.9886 1569.00
16.2929 1458.00
16.5972 1461.00
16.9014 1414.00
17.2057 1364.00
17.5099 1323.00
17.8142 1352.00
18.1185 1278.00
18.4227 1217.00
18.727 1263.00
19.0312 1254.00
19.3355 1205.00
19.6398 1233.00
19.944 1186.00
20.2483 1131.00
20.5525 1114.00
20.8568 1146.00
21.1611 1232.00
21.4653 1892.00
21.7696 2570.00
22.0738 1178.00
22.3781 1067.00
22.6824 992.00
22.9866 1040.00
23.2909 1029.00
23.5951 1307.00
23.8994 1168.00
24.2037 975.00
24.5079 955.00
24.8122 861.00
25.1164 910.00
25.4207 898.00
25.725 910.00
26.0292 866.00
26.3335 881.00
26.6378 874.00
26.942 830.00
27.2463 869.00
27.5505 805.00
27.8548 857.00
28.1591 806.00
28.4633 797.00
28.7676 849.00
29.0718 886.00
29.3761 921.00
29.6804 1215.00
29.9846 1097.00
30.2889 1154.00
30.5931 1557.00
30.8974 2524.00
31.2017 1756.00
31.5059 1911.00
31.8102 4664.00
32.1144 47403.00
32.4187 2807.00
32.723 1376.00
33.0272 1271.00
33.3315 1067.00
33.6357 1177.00
33.94 1510.00
34.2443 1877.00
34.5485 5484.00
34.8528 20005.00
35.157 1673.00
35.4613 1504.00
35.7656 1450.00
36.0698 2347.00
36.3741 11297.00
36.6783 47532.00
36.9826 2935.00
37.2869 2197.00
37.5911 1281.00
37.8954 1108.00
38.1996 998.00
38.5039 917.00
38.8082 921.00
39.1124 849.00
39.4167 874.00
39.7209 1003.00
40.0252 1251.00
40.3295 1114.00
40.6337 828.00
40.938 733.00
41.2422 724.00
41.5465 673.00
41.8508 672.00
42.155 617.00
42.4593 644.00
42.7635 579.00
43.0678 750.00
43.3721 613.00
43.6763 724.00
43.9806 715.00
44.2849 607.00
44.5891 567.00
44.8934 579.00
45.1976 595.00
45.5019 621.00
45.8062 607.00
46.1104 622.00
46.4147 588.00
46.7189 594.00
47.0232 665.00
47.3275 862.00
47.6317 2607.00
47.936 11616.00
48.2402 1116.00
48.5445 731.00
48.8488 800.00
49.153 858.00
49.4573 629.00
49.7615 605.00
50.0658 609.00
50.3701 599.00
50.6743 647.00
50.9786 588.00
51.2828 529.00
51.5871 539.00
51.8914 524.00
52.1956 541.00
52.4999 526.00
52.8041 560.00
53.1084 534.00
53.4127 510.00
53.7169 527.00
54.0212 518.00
54.3254 559.00
54.6297 488.00
54.934 591.00
55.2382 597.00
55.5425 634.00
55.8467 615.00
56.151 770.00
56.4553 1305.00
56.7595 7669.00
57.0638 12736.00
57.368 1056.00
57.6723 731.00
57.9766 828.00
58.2808 747.00
58.5851 793.00
58.8893 754.00
59.1936 771.00
59.4979 803.00
59.8021 714.00
60.1064 739.00
60.4106 640.00
60.7149 631.00
61.0192 725.00
61.3234 707.00
61.6277 753.00
61.932 765.00
62.2362 710.00
62.5405 850.00
62.8447 2167.00
63.149 20107.00
63.4533 2773.00
63.7575 896.00
64.0618 743.00
64.366 671.00
64.6703 650.00
64.9745 634.00
65.2788 593.00
65.5831 704.00
65.8873 730.00
66.1916 763.00
66.4959 1374.00
66.8001 2041.00
67.1044 724.00
67.4086 745.00
67.7129 989.00
68.0172 3345.00
68.3214 9565.00
68.6257 1437.00
68.9299 1012.00
69.2342 3480.00
69.5385 4397.00
69.8427 865.00
70.147 649.00
70.4512 566.00
70.7555 508.00
71.0598 499.00
71.364 537.00
71.6683 516.00
71.9725 527.00
72.2768 565.00
72.5811 632.00
72.8853 1721.00
73.1896 629.00
73.4938 506.00
73.7981 514.00
74.1024 539.00
74.4066 536.00
74.7109 528.00
75.0151 545.00
75.3194 533.00
75.6237 486.00
75.9279 470.00
76.2322 435.00
76.5364 491.00
76.8407 643.00
77.145 1878.00
77.4492 1660.00
77.7535 495.00
78.0577 430.00
78.362 417.00
78.6663 414.00
78.9705 418.00
79.2748 406.00
79.579 416.00
79.8833 459.00
80.1876 381.00
80.4918 387.00
80.7961 432.00
81.1003 480.00
81.4046 639.00
81.7089 1309.00
82.0131 581.00
82.3174 452.00
82.6217 446.00
82.9259 440.00
83.2302 448.00
83.5344 405.00
83.8387 415.00
84.143 480.00
84.4472 404.00
84.7515 430.00
85.0557 446.00
85.36 415.00
85.6643 394.00
85.9685 458.00
86.2728 473.00
86.577 442.00
86.8813 482.00
87.1856 425.00
87.4898 443.00
87.7941 424.00
88.0983 467.00
88.4026 428.00
88.7069 432.00
89.0111 470.00
89.3154 594.00
89.6196 1268.00
89.9239 3655.00
90.2282 1593.00
90.5324 546.00
90.8367 488.00
91.1409 482.00
91.4452 470.00
91.7495 453.00
92.0537 477.00
92.358 522.00
92.6622 592.00
92.9665 1747.00
93.2708 1172.00
93.575 604.00
93.8793 497.00
94.1835 491.00
94.4878 508.00
94.7921 545.00
95.0963 716.00
95.4006 2616.00
95.7048 2096.00
96.0091 994.00
96.3134 533.00
96.6176 496.00
96.9219 494.00
97.2261 519.00
97.5304 468.00
97.8347 500.00
98.1389 488.00
98.4432 619.00
98.7474 1983.00
99.0517 1458.00
99.356 767.00
99.6602 525.00
99.9645 487.00
100.095 480.00

File: PG_2452-1.xy
9.903433 2429.00
10.2077 2498.00
10.512 2345.00
10.8162 2259.00
11.1205 2186.00
11.4247 2050.00
11.729 2002.00
12.0333 1913.00
12.3375 1769.00
12.6418 1639.00
12.946 1647.00
13.2503 1667.00
13.5546 1536.00
13.8588 1468.00
14.1631 1333.00
14.4673 1391.00
14.7716 1336.00
15.0759 1352.00
15.3801 1337.00
15.6844 1317.00
15.9886 1220.00
16.2929 1205.00
16.5972 1229.00
16.9014 1158.00
17.2057 1098.00
17.5099 1105.00
17.8142 1084.00
18.1185 1031.00
18.4227 1024.00
18.727 1035.00
19.0312 1023.00
19.3355 963.00
19.6398 1020.00
19.944 967.00
20.2483 936.00
20.5525 921.00
20.8568 912.00
21.1611 882.00
21.4653 847.00
21.7696 871.00
22.0738 832.00
22.3781 849.00
22.6824 798.00
22.9866 800.00
23.2909 748.00
23.5951 753.00
23.8994 745.00
24.2037 729.00
24.5079 705.00
24.8122 683.00
25.1164 742.00
25.4207 666.00
25.725 685.00
26.0292 710.00
26.3335 758.00
26.6378 711.00
26.942 654.00
27.2463 712.00
27.5505 699.00
27.8548 682.00
28.1591 648.00
28.4633 647.00
28.7676 595.00
29.0718 664.00
29.3761 580.00
29.6804 605.00
29.9846 604.00
30.2889 576.00
30.5931 546.00
30.8974 522.00
31.2017 533.00
31.5059 600.00
31.8102 547.00
32.1144 499.00
32.4187 505.00
32.723 482.00
33.0272 526.00
33.3315 523.00
33.6357 547.00
33.94 476.00
34.2443 453.00
34.5485 508.00
34.8528 447.00
35.157 470.00
35.4613 411.00
35.7656 456.00
36.0698 421.00
36.3741 423.00
36.6783 415.00
36.9826 415.00
37.2869 419.00
37.5911 447.00
37.8954 401.00
38.1996 406.00
38.5039 374.00
38.8082 401.00
39.1124 331.00
39.4167 358.00
39.7209 350.00
40.0252 373.00
40.3295 419.00
40.6337 368.00
40.938 344.00
41.2422 340.00
41.5465 360.00
41.8508 354.00
42.155 339.00
42.4593 329.00
42.7635 339.00
43.0678 362.00
43.3721 313.00
43.6763 303.00
43.9806 320.00
44.2849 324.00
44.5891 315.00
44.8934 341.00
45.1976 327.00
45.5019 303.00
45.8062 340.00
46.1104 301.00
46.4147 301.00
46.7189 282.00
47.0232 312.00
47.3275 290.00
47.6317 287.00
47.936 307.00
48.2402 294.00
48.5445 321.00
48.8488 292.00
49.153 295.00
49.4573 289.00
49.7615 312.00
50.0658 302.00
50.3701 270.00
50.6743 291.00
50.9786 274.00
51.2828 279.00
51.5871 323.00
51.8914 282.00
52.1956 293.00
52.4999 260.00
52.8041 273.00
53.1084 256.00
53.4127 249.00
53.7169 281.00
54.0212 256.00
54.3254 249.00
54.6297 258.00
54.934 276.00
55.2382 243.00
55.5425 271.00
55.8467 264.00
56.151 249.00
56.4553 241.00
56.7595 217.00
57.0638 207.00
57.368 239.00
57.6723 244.00
57.9766 196.00
58.2808 235.00
58.5851 225.00
58.8893 234.00
59.1936 236.00
59.4979 210.00
59.8021 223.00
60.1064 230.00
60.4106 210.00
60.7149 204.00
61.0192 217.00
61.3234 200.00
61.6277 221.00
61.932 230.00
62.2362 182.00
62.5405 216.00
62.8447 208.00
63.149 205.00
63.4533 167.00
63.7575 246.00
64.0618 223.00
64.366 164.00
64.6703 230.00
64.9745 218.00
65.2788 237.00
65.5831 198.00
65.8873 218.00
66.1916 169.00
66.4959 212.00
66.8001 200.00
67.1044 165.00
67.4086 216.00
67.7129 221.00
68.0172 195.00
68.3214 212.00
68.6257 211.00
68.9299 192.00
69.2342 211.00
69.5385 197.00
69.8427 195.00
70.147 193.00
70.4512 188.00
70.7555 185.00
71.0598 173.00
71.364 227.00
71.6683 221.00
71.9725 230.00
72.2768 217.00
72.5811 199.00
72.8853 215.00
73.1896 185.00
73.4938 234.00
73.7981 207.00
74.1024 199.00
74.4066 207.00
74.7109 219.00
75.0151 196.00
75.3194 204.00
75.6237 231.00
75.9279 220.00
76.2322 216.00
76.5364 210.00
76.8407 200.00
77.145 203.00
77.4492 189.00
77.7535 209.00
78.0577 231.00
78.362 194.00
78.6663 235.00
78.9705 238.00
79.2748 201.00
79.579 213.00
79.8833 222.00
80.1876 279.00
80.4918 234.00
80.7961 236.00
81.1003 242.00
81.4046 223.00
81.7089 200.00
82.0131 216.00
82.3174 222.00
82.6217 236.00
82.9259 247.00
83.2302 236.00
83.5344 210.00
83.8387 215.00
84.143 228.00
84.4472 234.00
84.7515 243.00
85.0557 215.00
85.36 203.00
85.6643 221.00
85.9685 217.00
86.2728 197.00
86.577 212.00
86.8813 201.00
87.1856 188.00
87.4898 221.00
87.7941 186.00
88.0983 190.00
88.4026 220.00
88.7069 201.00
89.0111 234.00
89.3154 208.00
89.6196 174.00
89.9239 199.00
90.2282 179.00
90.5324 206.00
90.8367 198.00
91.1409 220.00
91.4452 202.00
91.7495 197.00
92.0537 187.00
92.358 195.00
92.6622 174.00
92.9665 195.00
93.2708 208.00
93.575 225.00
93.8793 205.00
94.1835 187.00
94.4878 180.00
94.7921 185.00
95.0963 187.00
95.4006 200.00
95.7048 205.00
96.0091 220.00
96.3134 186.00
96.6176 197.00
96.9219 199.00
97.2261 185.00
97.5304 153.00
97.8347 181.00
98.1389 187.00
98.4432 187.00
98.7474 195.00
99.0517 208.00
99.356 188.00
99.6602 187.00
99.9645 179.00
100.095 188.00

File: PG_2534-1.xy
9.903433 3149.00
10.2077 3025.00
10.512 2877.00
10.8162 2743.00
11.1205 2688.00
11.4247 2634.00
11.729 2542.00
12.0333 2559.00
12.3375 2450.00
12.6418 2405.00
12.946 2348.00
13.2503 2290.00
13.5546 2226.00
13.8588 2362.00
14.1631 2438.00
14.4673 2375.00
14.7716 2114.00
15.0759 2121.00
15.3801 2205.00
15.6844 1996.00
15.9886 2050.00
16.2929 2276.00
16.5972 3955.00
16.9014 24481.00
17.2057 3413.00
17.5099 2136.00
17.8142 1941.00
18.1185 1963.00
18.4227 1713.00
18.727 1899.00
19.0312 1905.00
19.3355 1761.00
19.6398 1662.00
19.944 1645.00
20.2483 1616.00
20.5525 1621.00
20.8568 1552.00
21.1611 1547.00
21.4653 1573.00
21.7696 1563.00
22.0738 1489.00
22.3781 1509.00
22.6824 1380.00
22.9866 1401.00
23.2909 1495.00
23.5951 1872.00
23.8994 9536.00
24.2037 3569.00
24.5079 1433.00
24.8122 1379.00
25.1164 1338.00
25.4207 1358.00
25.725 1297.00
26.0292 1239.00
26.3335 1258.00
26.6378 1305.00
26.942 1241.00
27.2463 1204.00
27.5505 1255.00
27.8548 1168.00
28.1591 1279.00
28.4633 1384.00
28.7676 1679.00
29.0718 5260.00
29.3761 30615.00
29.6804 1908.00
29.9846 1270.00
30.2889 1174.00
30.5931 1140.00
30.8974 1130.00
31.2017 1055.00
31.5059 1092.00
31.8102 1042.00
32.1144 1021.00
32.4187 970.00
32.723 986.00
33.0272 953.00
33.3315 1019.00
33.6357 1234.00
33.94 4391.00
34.2443 1796.00
34.5485 893.00
34.8528 848.00
35.157 856.00
35.4613 838.00
35.7656 797.00
36.0698 789.00
36.3741 825.00
36.6783 815.00
36.9826 1066.00
37.2869 2184.00
37.5911 789.00
37.8954 1087.00
38.1996 2877.00
38.5039 841.00
38.8082 761.00
39.1124 769.00
39.4167 716.00
39.7209 683.00
40.0252 698.00
40.3295 754.00
40.6337 647.00
40.938 693.00
41.2422 703.00
41.5465 681.00
41.8508 747.00
42.155 743.00
42.4593 785.00
42.7635 1514.00
43.0678 7648.00
43.3721 7439.00
43.6763 940.00
43.9806 796.00
44.2849 709.00
44.5891 681.00
44.8934 956.00
45.1976 3742.00
45.5019 7941.00
45.8062 860.00
46.1104 628.00
46.4147 673.00
46.7189 669.00
47.0232 621.00
47.3275 619.00
47.6317 647.00
47.936 595.00
48.2402 587.00
48.5445 619.00
48.8488 560.00
49.153 528.00
49.4573 533.00
49.7615 538.00
50.0658 523.00
50.3701 501.00
50.6743 563.00
50.9786 546.00
51.2828 549.00
51.5871 927.00
51.8914 1205.00
52.1956 554.00
52.4999 503.00
52.8041 517.00
53.1084 519.00
53.4127 518.00
53.7169 511.00
54.0212 481.00
54.3254 631.00
54.6297 1344.00
54.934 1303.00
55.2382 603.00
55.5425 506.00
55.8467 580.00
56.151 476.00
56.4553 535.00
56.7595 464.00
57.0638 513.00
57.368 735.00
57.6723 2369.00
57.9766 1223.00
58.2808 509.00
58.5851 511.00
58.8893 447.00
59.1936 457.00
59.4979 432.00
59.8021 486.00
60.1064 699.00
60.4106 1557.00
60.7149 688.00
61.0192 492.00
61.3234 536.00
61.6277 474.00
61.932 576.00
62.2362 1625.00
62.5405 6176.00
62.8447 2090.00
63.149 1187.00
63.4533 1625.00
63.7575 525.00
64.0618 472.00
64.366 409.00
64.6703 418.00
64.9745 429.00
65.2788 458.00
65.5831 428.00
65.8873 409.00
66.1916 388.00
66.4959 416.00
66.8001 420.00
67.1044 426.00
67.4086 409.00
67.7129 439.00
68.0172 454.00
68.3214 663.00
68.6257 1251.00
68.9299 707.00
69.2342 439.00
69.5385 393.00
69.8427 433.00
70.147 451.00
70.4512 461.00
70.7555 698.00
71.0598 1681.00
71.364 801.00
71.6683 414.00
71.9725 394.00
72.2768 410.00
72.5811 412.00
72.8853 447.00
73.1896 474.00
73.4938 619.00
73.7981 580.00
74.1024 452.00
74.4066 415.00
74.7109 681.00
75.0151 971.00
75.3194 512.00
75.6237 447.00
75.9279 755.00
76.2322 766.00
76.5364 497.00
76.8407 411.00
77.145 422.00
77.4492 382.00
77.7535 369.00
78.0577 551.00
78.362 883.00
78.6663 1812.00
78.9705 1764.00
79.2748 600.00
79.579 408.00
79.8833 365.00
80.1876 395.00
80.4918 384.00
80.7961 395.00
81.1003 629.00
81.4046 599.00
81.7089 398.00
82.0131 363.00
82.3174 369.00
82.6217 364.00
82.9259 376.00
83.2302 526.00
83.5344 521.00
83.8387 411.00
84.143 319.00
84.4472 352.00
84.7515 333.00
85.0557 346.00
85.36 318.00
85.6643 363.00
85.9685 333.00
86.2728 345.00
86.577 326.00
86.8813 344.00
87.1856 354.00
87.4898 378.00
87.7941 588.00
88.0983 596.00
88.4026 815.00
88.7069 562.00
89.0111 363.00
89.3154 325.00
89.6196 317.00
89.9239 321.00
90.2282 350.00
90.5324 366.00
90.8367 359.00
91.1409 324.00
91.4452 338.00
91.7495 319.00
92.0537 369.00
92.358 333.00
92.6622 390.00
92.9665 534.00
93.2708 573.00
93.575 442.00
93.8793 479.00
94.1835 873.00
94.4878 682.00
94.7921 421.00
95.0963 343.00
95.4006 446.00
95.7048 511.00
96.0091 431.00
96.3134 346.00
96.6176 364.00
96.9219 331.00
97.2261 392.00
97.5304 517.00
97.8347 583.00
98.1389 883.00
98.4432 546.00
98.7474 356.00
99.0517 314.00
99.356 327.00
99.6602 320.00
99.9645 341.00
100.095 356.00

File: PG_2540-1.xy
9.903433 2591.00
10.2077 2449.00
10.512 2351.00
10.8162 2207.00
11.1205 2079.00
11.4247 2061.00
11.729 1855.00
12.0333 1941.00
12.3375 1919.00
12.6418 1791.00
12.946 1738.00
13.2503 1682.00
13.5546 1606.00
13.8588 1664.00
14.1631 1991.00
14.4673 4285.00
14.7716 1667.00
15.0759 1558.00
15.3801 1698.00
15.6844 1534.00
15.9886 1550.00
16.2929 1506.00
16.5972 1401.00
16.9014 1481.00
17.2057 1421.00
17.5099 1394.00
17.8142 1366.00
18.1185 1378.00
18.4227 1348.00
18.727 1327.00
19.0312 1246.00
19.3355 1237.00
19.6398 1297.00
19.944 1285.00
20.2483 1326.00
20.5525 1378.00
20.8568 1213.00
21.1611 1167.00
21.4653 1133.00
21.7696 1160.00
22.0738 1159.00
22.3781 1109.00
22.6824 1228.00
22.9866 1134.00
23.2909 1237.00
23.5951 1068.00
23.8994 1044.00
24.2037 1072.00
24.5079 1360.00
24.8122 1168.00
25.1164 1019.00
25.4207 1064.00
25.725 1200.00
26.0292 1318.00
26.3335 2893.00
26.6378 32951.00
26.942 3264.00
27.2463 1633.00
27.5505 1866.00
27.8548 1119.00
28.1591 1155.00
28.4633 1161.00
28.7676 1914.00
29.0718 2118.00
29.3761 1897.00
29.6804 1056.00
29.9846 1073.00
30.2889 1078.00
30.5931 1858.00
30.8974 3129.00
31.2017 4236.00
31.5059 1345.00
31.8102 1571.00
32.1144 3597.00
32.4187 12668.00
32.723 2478.00
33.0272 1264.00
33.3315 1018.00
33.6357 1040.00
33.94 1253.00
34.2443 6283.00
34.5485 2125.00
34.8528 968.00
35.157 859.00
35.4613 852.00
35.7656 842.00
36.0698 845.00
36.3741 760.00
36.6783 773.00
36.9826 1278.00
37.2869 1120.00
37.5911 767.00
37.8954 776.00
38.1996 769.00
38.5039 767.00
38.8082 769.00
39.1124 782.00
39.4167 943.00
39.7209 1492.00
40.0252 1215.00
40.3295 1087.00
40.6337 671.00
40.938 764.00
41.2422 968.00
41.5465 730.00
41.8508 690.00
42.155 773.00
42.4593 671.00
42.7635 803.00
43.0678 1339.00
43.3721 2070.00
43.6763 921.00
43.9806 934.00
44.2849 1005.00
44.5891 1522.00
44.8934 2820.00
45.1976 1099.00
45.5019 930.00
45.8062 909.00
46.1104 1593.00
46.4147 2934.00
46.7189 1354.00
47.0232 830.00
47.3275 881.00
47.6317 2133.00
47.936 3387.00
48.2402 880.00
48.5445 909.00
48.8488 790.00
49.153 789.00
49.4573 1020.00
49.7615 1557.00
50.0658 5288.00
50.3701 2261.00
50.6743 1097.00
50.9786 919.00
51.2828 917.00
51.5871 790.00
51.8914 947.00
52.1956 2294.00
52.4999 6132.00
52.8041 983.00
53.1084 1079.00
53.4127 1208.00
53.7169 859.00
54.0212 986.00
54.3254 883.00
54.6297 934.00
54.934 798.00
55.2382 774.00
55.5425 708.00
55.8467 781.00
56.151 1303.00
56.4553 1503.00
56.7595 937.00
57.0638 793.00
57.368 740.00
57.6723 885.00
57.9766 1251.00
58.2808 3047.00
58.5851 1593.00
58.8893 935.00
59.1936 883.00
59.4979 2670.00
59.8021 1083.00
60.1064 853.00
60.4106 1135.00
60.7149 2525.00
61.0192 1453.00
61.3234 981.00
61.6277 1122.00
61.932 747.00
62.2362 779.00
62.5405 2459.00
62.8447 1061.00
63.149 1029.00
63.4533 1481.00
63.7575 1196.00
64.0618 843.00
64.366 1558.00
64.6703 786.00
64.9745 694.00
65.2788 653.00
65.5831 665.00
65.8873 913.00
66.1916 2888.00
66.4959 1983.00
66.8001 772.00
67.1044 634.00
67.4086 717.00
67.7129 628.00
68.0172 659.00
68.3214 704.00
68.6257 839.00
68.9299 672.00
69.2342 650.00
69.5385 662.00
69.8427 883.00
70.147 1193.00
70.4512 700.00
70.7555 629.00
71.0598 634.00
71.364 650.00
71.6683 725.00
71.9725 924.00
72.2768 1557.00
72.5811 996.00
72.8853 678.00
73.1896 618.00
73.4938 768.00
73.7981 843.00
74.1024 1142.00
74.4066 817.00
74.7109 689.00
75.0151 875.00
75.3194 821.00
75.6237 1292.00
75.9279 760.00
76.2322 709.00
76.5364 1288.00
76.8407 1578.00
77.145 694.00
77.4492 624.00
77.7535 590.00
78.0577 598.00
78.362 642.00
78.6663 702.00
78.9705 861.00
79.2748 740.00
79.579 760.00
79.8833 738.00
80.1876 721.00
80.4918 664.00
80.7961 812.00
81.1003 809.00
81.4046 664.00
81.7089 631.00
82.0131 687.00
82.3174 765.00
82.6217 901.00
82.9259 1474.00
83.2302 1552.00
83.5344 1186.00
83.8387 1208.00
84.143 970.00
84.4472 1005.00
84.7515 1824.00
85.0557 1259.00
85.36 803.00
85.6643 784.00
85.9685 754.00
86.2728 1014.00
86.577 778.00
86.8813 696.00
87.1856 912.00
87.4898 900.00
87.7941 862.00
88.0983 841.00
88.4026 707.00
88.7069 652.00
89.0111 735.00
89.3154 793.00
89.6196 1133.00
89.9239 1023.00
90.2282 766.00
90.5324 779.00
90.8367 717.00
91.1409 792.00
91.4452 1403.00
91.7495 1038.00
92.0537 689.00
92.358 671.00
92.6622 727.00
92.9665 753.00
93.2708 945.00
93.575 824.00
93.8793 681.00
94.1835 772.00
94.4878 616.00
94.7921 558.00
95.0963 592.00
95.4006 572.00
95.7048 628.00
96.0091 787.00
96.3134 709.00
96.6176 613.00
96.9219 634.00
97.2261 665.00
97.5304 783.00
97.8347 883.00
98.1389 887.00
98.4432 704.00
98.7474 710.00
99.0517 647.00
99.356 647.00
99.6602 594.00
99.9645 650.00
100.095 602.00

File: PG_2541-1.xy
9.903433 2615.00
10.2077 2498.00
10.512 2516.00
10.8162 2380.00
11.1205 2286.00
11.4247 2155.00
11.729 2160.00
12.0333 2139.00
12.3375 2113.00
12.6418 2044.00
12.946 1902.00
13.2503 1916.00
13.5546 1938.00
13.8588 2787.00
14.1631 3089.00
14.4673 1800.00
14.7716 1790.00
15.0759 1730.00
15.3801 1728.00
15.6844 1722.00
15.9886 1569.00
16.2929 1575.00
16.5972 1588.00
16.9014 1587.00
17.2057 1485.00
17.5099 1526.00
17.8142 1428.00
18.1185 1415.00
18.4227 1398.00
18.727 1392.00
19.0312 1356.00
19.3355 1301.00
19.6398 1519.00
19.944 1322.00
20.2483 1305.00
20.5525 1230.00
20.8568 1177.00
21.1611 1209.00
21.4653 1177.00
21.7696 1176.00
22.0738 1209.00
22.3781 1088.00
22.6824 1073.00
22.9866 1198.00
23.2909 1080.00
23.5951 1012.00
23.8994 1058.00
24.2037 985.00
24.5079 1008.00
24.8122 1015.00
25.1164 1030.00
25.4207 953.00
25.725 1247.00
26.0292 1017.00
26.3335 974.00
26.6378 982.00
26.942 994.00
27.2463 1207.00
27.5505 1653.00
27.8548 9510.00
28.1591 6243.00
28.4633 1544.00
28.7676 2100.00
29.0718 1095.00
29.3761 1029.00
29.6804 900.00
29.9846 947.00
30.2889 871.00
30.5931 933.00
30.8974 900.00
31.2017 884.00
31.5059 873.00
31.8102 1006.00
32.1144 1378.00
32.4187 17083.00
32.723 1229.00
33.0272 917.00
33.3315 959.00
33.6357 762.00
33.94 750.00
34.2443 867.00
34.5485 760.00
34.8528 738.00
35.157 900.00
35.4613 2840.00
35.7656 731.00
36.0698 687.00
36.3741 633.00
36.6783 630.00
36.9826 717.00
37.2869 914.00
37.5911 627.00
37.8954 616.00
38.1996 570.00
38.5039 626.00
38.8082 551.00
39.1124 573.00
39.4167 574.00
39.7209 659.00
40.0252 772.00
40.3295 599.00
40.6337 451.00
40.938 566.00
41.2422 507.00
41.5465 519.00
41.8508 511.00
42.155 598.00
42.4593 1225.00
42.7635 536.00
43.0678 1000.00
43.3721 1665.00
43.6763 524.00
43.9806 475.00
44.2849 530.00
44.5891 600.00
44.8934 545.00
45.1976 520.00
45.5019 578.00
45.8062 742.00
46.1104 1745.00
46.4147 10271.00
46.7189 808.00
47.0232 612.00
47.3275 756.00
47.6317 562.00
47.936 517.00
48.2402 540.00
48.5445 1194.00
48.8488 461.00
49.153 491.00
49.4573 513.00
49.7615 475.00
50.0658 493.00
50.3701 491.00
50.6743 522.00
50.9786 632.00
51.2828 501.00
51.5871 450.00
51.8914 494.00
52.1956 432.00
52.4999 438.00
52.8041 467.00
53.1084 499.00
53.4127 463.00
53.7169 514.00
54.0212 503.00
54.3254 648.00
54.6297 1572.00
54.934 7943.00
55.2382 926.00
55.5425 597.00
55.8467 558.00
56.151 502.00
56.4553 480.00
56.7595 472.00
57.0638 505.00
57.368 1484.00
57.6723 1625.00
57.9766 567.00
58.2808 455.00
58.5851 459.00
58.8893 479.00
59.1936 687.00
59.4979 1511.00
59.8021 505.00
60.1064 415.00
60.4106 384.00
60.7149 449.00
61.0192 430.00
61.3234 440.00
61.6277 391.00
61.932 391.00
62.2362 444.00
62.5405 1668.00
62.8447 691.00
63.149 388.00
63.4533 418.00
63.7575 367.00
64.0618 439.00
64.366 1919.00
64.6703 511.00
64.9745 376.00
65.2788 372.00
65.5831 375.00
65.8873 361.00
66.1916 352.00
66.4959 386.00
66.8001 383.00
67.1044 521.00
67.4086 1460.00
67.7129 472.00
68.0172 399.00
68.3214 399.00
68.6257 400.00
68.9299 494.00
69.2342 885.00
69.5385 390.00
69.8427 346.00
70.147 299.00
70.4512 334.00
70.7555 350.00
71.0598 312.00
71.364 324.00
71.6683 328.00
71.9725 508.00
72.2768 480.00
72.5811 331.00
72.8853 348.00
73.1896 362.00
73.4938 372.00
73.7981 604.00
74.1024 764.00
74.4066 1725.00
74.7109 589.00
75.0151 506.00
75.3194 418.00
75.6237 311.00
75.9279 403.00
76.2322 516.00
76.5364 3478.00
76.8407 1544.00
77.145 432.00
77.4492 372.00
77.7535 405.00
78.0577 425.00
78.362 570.00
78.6663 460.00
78.9705 594.00
79.2748 368.00
79.579 358.00
79.8833 302.00
80.1876 360.00
80.4918 305.00
80.7961 343.00
81.1003 335.00
81.4046 386.00
81.7089 362.00
82.0131 338.00
82.3174 294.00
82.6217 595.00
82.9259 572.00
83.2302 318.00
83.5344 316.00
83.8387 297.00
84.143 369.00
84.4472 306.00
84.7515 366.00
85.0557 434.00
85.36 1365.00
85.6643 1444.00
85.9685 388.00
86.2728 345.00
86.577 347.00
86.8813 385.00
87.1856 456.00
87.4898 396.00
87.7941 315.00
88.0983 345.00
88.4026 318.00
88.7069 296.00
89.0111 361.00
89.3154 308.00
89.6196 323.00
89.9239 345.00
90.2282 343.00
90.5324 322.00
90.8367 360.00
91.1409 417.00
91.4452 1838.00
91.7495 1207.00
92.0537 1303.00
92.358 794.00
92.6622 404.00
92.9665 364.00
93.2708 374.00
93.575 342.00
93.8793 377.00
94.1835 402.00
94.4878 398.00
94.7921 307.00
95.0963 314.00
95.4006 363.00
95.7048 497.00
96.0091 426.00
96.3134 376.00
96.6176 348.00
96.9219 311.00
97.2261 298.00
97.5304 308.00
97.8347 275.00
98.1389 275.00
98.4432 334.00
98.7474 298.00
99.0517 289.00
99.356 283.00
99.6602 323.00
99.9645 306.00
100.095 429.00