Folder: alab-pipeline/data/xrd_creation/results (part 88)

File: PG_1841-1.xy
9.903433 2635.00
10.2077 2450.00
10.512 2434.00
10.8162 2308.00
11.1205 2151.00
11.4247 2137.00
11.729 2116.00
12.0333 2071.00
12.3375 1901.00
12.6418 1947.00
12.946 1888.00
13.2503 1712.00
13.5546 1830.00
13.8588 2016.00
14.1631 2096.00
14.4673 1611.00
14.7716 1589.00
15.0759 1479.00
15.3801 1586.00
15.6844 1561.00
15.9886 1582.00
16.2929 1507.00
16.5972 1592.00
16.9014 1447.00
17.2057 1440.00
17.5099 1373.00
17.8142 1417.00
18.1185 1372.00
18.4227 1334.00
18.727 1260.00
19.0312 1319.00
19.3355 1241.00
19.6398 1322.00
19.944 1246.00
20.2483 1184.00
20.5525 1202.00
20.8568 1203.00
21.1611 1240.00
21.4653 1189.00
21.7696 2220.00
22.0738 1144.00
22.3781 1128.00
22.6824 1109.00
22.9866 1054.00
23.2909 1093.00
23.5951 1045.00
23.8994 1027.00
24.2037 992.00
24.5079 1015.00
24.8122 943.00
25.1164 1015.00
25.4207 974.00
25.725 1003.00
26.0292 932.00
26.3335 918.00
26.6378 905.00
26.942 957.00
27.2463 1016.00
27.5505 1289.00
27.8548 5011.00
28.1591 3412.00
28.4633 1107.00
28.7676 1266.00
29.0718 962.00
29.3761 885.00
29.6804 880.00
29.9846 951.00
30.2889 1026.00
30.5931 1667.00
30.8974 17194.00
31.2017 1340.00
31.5059 963.00
31.8102 893.00
32.1144 1164.00
32.4187 6980.00
32.723 1020.00
33.0272 861.00
33.3315 888.00
33.6357 777.00
33.94 764.00
34.2443 733.00
34.5485 703.00
34.8528 778.00
35.157 885.00
35.4613 1835.00
35.7656 5580.00
36.0698 881.00
36.3741 649.00
36.6783 640.00
36.9826 729.00
37.2869 688.00
37.5911 620.00
37.8954 847.00
38.1996 683.00
38.5039 643.00
38.8082 594.00
39.1124 594.00
39.4167 603.00
39.7209 579.00
40.0252 670.00
40.3295 552.00
40.6337 515.00
40.938 560.00
41.2422 566.00
41.5465 550.00
41.8508 616.00
42.155 1390.00
42.4593 828.00
42.7635 531.00
43.0678 484.00
43.3721 571.00
43.6763 446.00
43.9806 557.00
44.2849 538.00
44.5891 564.00
44.8934 541.00
45.1976 530.00
45.5019 549.00
45.8062 763.00
46.1104 2123.00
46.4147 4699.00
46.7189 715.00
47.0232 530.00
47.3275 596.00
47.6317 462.00
47.936 480.00
48.2402 527.00
48.5445 762.00
48.8488 498.00
49.153 531.00
49.4573 565.00
49.7615 633.00
50.0658 580.00
50.3701 548.00
50.6743 552.00
50.9786 815.00
51.2828 5811.00
51.5871 979.00
51.8914 546.00
52.1956 531.00
52.4999 488.00
52.8041 489.00
53.1084 678.00
53.4127 508.00
53.7169 472.00
54.0212 522.00
54.3254 563.00
54.6297 1368.00
54.934 4235.00
55.2382 822.00
55.5425 558.00
55.8467 525.00
56.151 679.00
56.4553 799.00
56.7595 510.00
57.0638 540.00
57.368 1167.00
57.6723 1088.00
57.9766 598.00
58.2808 491.00
58.5851 476.00
58.8893 511.00
59.1936 666.00
59.4979 1351.00
59.8021 505.00
60.1064 490.00
60.4106 554.00
60.7149 811.00
61.0192 2361.00
61.3234 692.00
61.6277 496.00
61.932 525.00
62.2362 500.00
62.5405 847.00
62.8447 508.00
63.149 446.00
63.4533 449.00
63.7575 522.00
64.0618 859.00
64.366 1075.00
64.6703 546.00
64.9745 418.00
65.2788 466.00
65.5831 586.00
65.8873 433.00
66.1916 446.00
66.4959 401.00
66.8001 524.00
67.1044 526.00
67.4086 861.00
67.7129 464.00
68.0172 452.00
68.3214 784.00
68.6257 459.00
68.9299 506.00
69.2342 726.00
69.5385 451.00
69.8427 486.00
70.147 412.00
70.4512 355.00
70.7555 393.00
71.0598 382.00
71.364 389.00
71.6683 411.00
71.9725 467.00
72.2768 429.00
72.5811 408.00
72.8853 348.00
73.1896 378.00
73.4938 450.00
73.7981 622.00
74.1024 826.00
74.4066 1206.00
74.7109 588.00
75.0151 459.00
75.3194 836.00
75.6237 484.00
75.9279 438.00
76.2322 526.00
76.5364 1903.00
76.8407 1197.00
77.145 480.00
77.4492 394.00
77.7535 423.00
78.0577 640.00
78.362 537.00
78.6663 437.00
78.9705 428.00
79.2748 477.00
79.579 519.00
79.8833 393.00
80.1876 397.00
80.4918 382.00
80.7961 450.00
81.1003 414.00
81.4046 411.00
81.7089 412.00
82.0131 720.00
82.3174 652.00
82.6217 543.00
82.9259 540.00
83.2302 555.00
83.5344 657.00
83.8387 457.00
84.143 401.00
84.4472 377.00
84.7515 409.00
85.0557 462.00
85.36 939.00
85.6643 894.00
85.9685 706.00
86.2728 658.00
86.577 444.00
86.8813 408.00
87.1856 426.00
87.4898 476.00
87.7941 366.00
88.0983 377.00
88.4026 373.00
88.7069 504.00
89.0111 442.00
89.3154 373.00
89.6196 401.00
89.9239 490.00
90.2282 505.00
90.5324 394.00
90.8367 378.00
91.1409 453.00
91.4452 1038.00
91.7495 755.00
92.0537 960.00
92.358 628.00
92.6622 647.00
92.9665 546.00
93.2708 383.00
93.575 396.00
93.8793 329.00
94.1835 375.00
94.4878 354.00
94.7921 374.00
95.0963 423.00
95.4006 604.00
95.7048 563.00
96.0091 434.00
96.3134 447.00
96.6176 717.00
96.9219 556.00
97.2261 445.00
97.5304 381.00
97.8347 391.00
98.1389 462.00
98.4432 439.00
98.7474 371.00
99.0517 434.00
99.356 539.00
99.6602 445.00
99.9645 423.00
100.095 440.00

File: PG_1843-1.xy
9.903433 2969.00
10.2077 2705.00
10.512 2673.00
10.8162 2695.00
11.1205 2522.00
11.4247 2465.00
11.729 2321.00
12.0333 2280.00
12.3375 2282.00
12.6418 2163.00
12.946 2106.00
13.2503 2066.00
13.5546 2082.00
13.8588 1975.00
14.1631 1986.00
14.4673 2012.00
14.7716 1955.00
15.0759 1887.00
15.3801 1916.00
15.6844 1817.00
15.9886 1803.00
16.2929 1828.00
16.5972 1822.00
16.9014 1774.00
17.2057 1732.00
17.5099 1840.00
17.8142 1850.00
18.1185 1777.00
18.4227 1687.00
18.727 1659.00
19.0312 1638.00
19.3355 1617.00
19.6398 1639.00
19.944 1593.00
20.2483 1604.00
20.5525 1637.00
20.8568 1618.00
21.1611 1678.00
21.4653 1757.00
21.7696 5578.00
22.0738 1704.00
22.3781 1542.00
22.6824 1460.00
22.9866 1455.00
23.2909 1436.00
23.5951 1430.00
23.8994 1389.00
24.2037 1317.00
24.5079 1354.00
24.8122 1309.00
25.1164 1278.00
25.4207 1205.00
25.725 1223.00
26.0292 1183.00
26.3335 1154.00
26.6378 1165.00
26.942 1094.00
27.2463 1093.00
27.5505 1105.00
27.8548 1161.00
28.1591 1058.00
28.4633 1085.00
28.7676 1057.00
29.0718 996.00
29.3761 1050.00
29.6804 1115.00
29.9846 1184.00
30.2889 1412.00
30.5931 2634.00
30.8974 49388.00
31.2017 2448.00
31.5059 1199.00
31.8102 1141.00
32.1144 1070.00
32.4187 982.00
32.723 1006.00
33.0272 959.00
33.3315 1142.00
33.6357 943.00
33.94 950.00
34.2443 869.00
34.5485 837.00
34.8528 915.00
35.157 959.00
35.4613 1293.00
35.7656 14980.00
36.0698 1312.00
36.3741 895.00
36.6783 894.00
36.9826 816.00
37.2869 809.00
37.5911 797.00
37.8954 1634.00
38.1996 970.00
38.5039 764.00
38.8082 696.00
39.1124 703.00
39.4167 731.00
39.7209 702.00
40.0252 917.00
40.3295 722.00
40.6337 680.00
40.938 663.00
41.2422 656.00
41.5465 653.00
41.8508 728.00
42.155 2729.00
42.4593 708.00
42.7635 669.00
43.0678 665.00
43.3721 587.00
43.6763 614.00
43.9806 721.00
44.2849 705.00
44.5891 603.00
44.8934 556.00
45.1976 625.00
45.5019 687.00
45.8062 998.00
46.1104 2563.00
46.4147 680.00
46.7189 600.00
47.0232 601.00
47.3275 595.00
47.6317 566.00
47.936 568.00
48.2402 579.00
48.5445 579.00
48.8488 590.00
49.153 635.00
49.4573 811.00
49.7615 895.00
50.0658 652.00
50.3701 631.00
50.6743 741.00
50.9786 1147.00
51.2828 16034.00
51.5871 1725.00
51.8914 736.00
52.1956 614.00
52.4999 632.00
52.8041 640.00
53.1084 1120.00
53.4127 585.00
53.7169 527.00
54.0212 538.00
54.3254 563.00
54.6297 750.00
54.934 578.00
55.2382 545.00
55.5425 506.00
55.8467 605.00
56.151 1159.00
56.4553 1095.00
56.7595 496.00
57.0638 515.00
57.368 527.00
57.6723 546.00
57.9766 804.00
58.2808 502.00
58.5851 509.00
58.8893 554.00
59.1936 713.00
59.4979 1236.00
59.8021 603.00
60.1064 545.00
60.4106 731.00
60.7149 1386.00
61.0192 5190.00
61.3234 1002.00
61.6277 647.00
61.932 606.00
62.2362 727.00
62.5405 1448.00
62.8447 628.00
63.149 532.00
63.4533 542.00
63.7575 694.00
64.0618 1479.00
64.366 550.00
64.6703 474.00
64.9745 511.00
65.2788 661.00
65.5831 973.00
65.8873 499.00
66.1916 483.00
66.4959 536.00
66.8001 771.00
67.1044 587.00
67.4086 456.00
67.7129 492.00
68.0172 520.00
68.3214 1438.00
68.6257 573.00
68.9299 406.00
69.2342 471.00
69.5385 502.00
69.8427 705.00
70.147 431.00
70.4512 439.00
70.7555 448.00
71.0598 436.00
71.364 446.00
71.6683 396.00
71.9725 412.00
72.2768 419.00
72.5811 449.00
72.8853 420.00
73.1896 427.00
73.4938 426.00
73.7981 624.00
74.1024 915.00
74.4066 465.00
74.7109 492.00
75.0151 512.00
75.3194 1463.00
75.6237 670.00
75.9279 493.00
76.2322 451.00
76.5364 740.00
76.8407 1103.00
77.145 461.00
77.4492 431.00
77.7535 480.00
78.0577 889.00
78.362 529.00
78.6663 424.00
78.9705 436.00
79.2748 700.00
79.579 822.00
79.8833 427.00
80.1876 393.00
80.4918 442.00
80.7961 605.00
81.1003 466.00
81.4046 431.00
81.7089 489.00
82.0131 1267.00
82.3174 985.00
82.6217 460.00
82.9259 519.00
83.2302 773.00
83.5344 1116.00
83.8387 589.00
84.143 428.00
84.4472 409.00
84.7515 450.00
85.0557 416.00
85.36 414.00
85.6643 465.00
85.9685 1126.00
86.2728 1121.00
86.577 438.00
86.8813 435.00
87.1856 444.00
87.4898 514.00
87.7941 431.00
88.0983 423.00
88.4026 419.00
88.7069 772.00
89.0111 556.00
89.3154 394.00
89.6196 400.00
89.9239 574.00
90.2282 600.00
90.5324 415.00
90.8367 350.00
91.1409 366.00
91.4452 394.00
91.7495 378.00
92.0537 384.00
92.358 433.00
92.6622 1088.00
92.9665 763.00
93.2708 375.00
93.575 379.00
93.8793 376.00
94.1835 396.00
94.4878 422.00
94.7921 385.00
95.0963 491.00
95.4006 867.00
95.7048 704.00
96.0091 419.00
96.3134 503.00
96.6176 1331.00
96.9219 874.00
97.2261 491.00
97.5304 383.00
97.8347 543.00
98.1389 634.00
98.4432 545.00
98.7474 411.00
99.0517 442.00
99.356 898.00
99.6602 624.00
99.9645 412.00
100.095 399.00

File: PG_1844-1.xy
9.903433 2458.00
10.2077 2499.00
10.512 2465.00
10.8162 2220.00
11.1205 2152.00
11.4247 2137.00
11.729 1994.00
12.0333 1941.00
12.3375 1931.00
12.6418 1907.00
12.946 1818.00
13.2503 1704.00
13.5546 1671.00
13.8588 1636.00
14.1631 1653.00
14.4673 1533.00
14.7716 1576.00
15.0759 1534.00
15.3801 1572.00
15.6844 1485.00
15.9886 1493.00
16.2929 1406.00
16.5972 1453.00
16.9014 1379.00
17.2057 1361.00
17.5099 1383.00
17.8142 1395.00
18.1185 1304.00
18.4227 1272.00
18.727 1320.00
19.0312 1301.00
19.3355 1275.00
19.6398 1249.00
19.944 1166.00
20.2483 1133.00
20.5525 1133.00
20.8568 1133.00
21.1611 1162.00
21.4653 1141.00
21.7696 1584.00
22.0738 1123.00
22.3781 1010.00
22.6824 1032.00
22.9866 998.00
23.2909 995.00
23.5951 1016.00
23.8994 1039.00
24.2037 954.00
24.5079 961.00
24.8122 915.00
25.1164 917.00
25.4207 892.00
25.725 948.00
26.0292 917.00
26.3335 1005.00
26.6378 1875.00
26.942 4422.00
27.2463 1012.00
27.5505 889.00
27.8548 888.00
28.1591 814.00
28.4633 784.00
28.7676 799.00
29.0718 789.00
29.3761 722.00
29.6804 742.00
29.9846 804.00
30.2889 838.00
30.5931 1264.00
30.8974 6747.00
31.2017 839.00
31.5059 723.00
31.8102 695.00
32.1144 731.00
32.4187 682.00
32.723 688.00
33.0272 697.00
33.3315 785.00
33.6357 795.00
33.94 1562.00
34.2443 3578.00
34.5485 842.00
34.8528 649.00
35.157 663.00
35.4613 729.00
35.7656 2527.00
36.0698 619.00
36.3741 605.00
36.6783 567.00
36.9826 588.00
37.2869 611.00
37.5911 569.00
37.8954 894.00
38.1996 1756.00
38.5039 665.00
38.8082 525.00
39.1124 664.00
39.4167 615.00
39.7209 543.00
40.0252 599.00
40.3295 533.00
40.6337 492.00
40.938 520.00
41.2422 493.00
41.5465 491.00
41.8508 517.00
42.155 765.00
42.4593 476.00
42.7635 514.00
43.0678 489.00
43.3721 480.00
43.6763 468.00
43.9806 529.00
44.2849 459.00
44.5891 430.00
44.8934 451.00
45.1976 459.00
45.5019 430.00
45.8062 641.00
46.1104 743.00
46.4147 460.00
46.7189 431.00
47.0232 474.00
47.3275 456.00
47.6317 421.00
47.936 401.00
48.2402 440.00
48.5445 413.00
48.8488 394.00
49.153 446.00
49.4573 507.00
49.7615 458.00
50.0658 404.00
50.3701 488.00
50.6743 455.00
50.9786 590.00
51.2828 3284.00
51.5871 799.00
51.8914 1918.00
52.1956 2634.00
52.4999 591.00
52.8041 453.00
53.1084 545.00
53.4127 458.00
53.7169 402.00
54.0212 393.00
54.3254 488.00
54.6297 536.00
54.934 1067.00
55.2382 726.00
55.5425 430.00
55.8467 414.00
56.151 647.00
56.4553 525.00
56.7595 420.00
57.0638 380.00
57.368 361.00
57.6723 439.00
57.9766 663.00
58.2808 592.00
58.5851 396.00
58.8893 401.00
59.1936 433.00
59.4979 541.00
59.8021 413.00
60.1064 390.00
60.4106 447.00
60.7149 757.00
61.0192 1546.00
61.3234 464.00
61.6277 464.00
61.932 610.00
62.2362 1072.00
62.5405 656.00
62.8447 406.00
63.149 371.00
63.4533 412.00
63.7575 465.00
64.0618 658.00
64.366 399.00
64.6703 472.00
64.9745 1311.00
65.2788 650.00
65.5831 504.00
65.8873 513.00
66.1916 1582.00
66.4959 692.00
66.8001 444.00
67.1044 410.00
67.4086 343.00
67.7129 375.00
68.0172 389.00
68.3214 570.00
68.6257 362.00
68.9299 377.00
69.2342 354.00
69.5385 392.00
69.8427 396.00
70.147 352.00
70.4512 359.00
70.7555 351.00
71.0598 374.00
71.364 533.00
71.6683 598.00
71.9725 391.00
72.2768 378.00
72.5811 353.00
72.8853 322.00
73.1896 359.00
73.4938 371.00
73.7981 415.00
74.1024 382.00
74.4066 332.00
74.7109 344.00
75.0151 353.00
75.3194 560.00
75.6237 353.00
75.9279 319.00
76.2322 368.00
76.5364 452.00
76.8407 485.00
77.145 358.00
77.4492 298.00
77.7535 350.00
78.0577 434.00
78.362 415.00
78.6663 475.00
78.9705 1056.00
79.2748 629.00
79.579 455.00
79.8833 357.00
80.1876 362.00
80.4918 374.00
80.7961 393.00
81.1003 371.00
81.4046 570.00
81.7089 439.00
82.0131 588.00
82.3174 494.00
82.6217 348.00
82.9259 348.00
83.2302 535.00
83.5344 574.00
83.8387 754.00
84.143 642.00
84.4472 353.00
84.7515 344.00
85.0557 308.00
85.36 332.00
85.6643 345.00
85.9685 616.00
86.2728 534.00
86.577 342.00
86.8813 358.00
87.1856 366.00
87.4898 579.00
87.7941 452.00
88.0983 348.00
88.4026 308.00
88.7069 400.00
89.0111 370.00
89.3154 362.00
89.6196 417.00
89.9239 933.00
90.2282 813.00
90.5324 379.00
90.8367 416.00
91.1409 1003.00
91.4452 599.00
91.7495 357.00
92.0537 369.00
92.358 341.00
92.6622 548.00
92.9665 409.00
93.2708 424.00
93.575 554.00
93.8793 417.00
94.1835 339.00
94.4878 325.00
94.7921 337.00
95.0963 352.00
95.4006 438.00
95.7048 395.00
96.0091 380.00
96.3134 482.00
96.6176 694.00
96.9219 538.00
97.2261 374.00
97.5304 352.00
97.8347 365.00
98.1389 371.00
98.4432 356.00
98.7474 301.00
99.0517 338.00
99.356 450.00
99.6602 373.00
99.9645 297.00
100.095 353.00

File: PG_1845-1.xy
9.903433 2695.00
10.2077 2485.00
10.512 2440.00
10.8162 2367.00
11.1205 2213.00
11.4247 2277.00
11.729 2240.00
12.0333 2075.00
12.3375 2085.00
12.6418 1909.00
12.946 1974.00
13.2503 1947.00
13.5546 1898.00
13.8588 1986.00
14.1631 1823.00
14.4673 1783.00
14.7716 1774.00
15.0759 1713.00
15.3801 1806.00
15.6844 1812.00
15.9886 1657.00
16.2929 1732.00
16.5972 1625.00
16.9014 1763.00
17.2057 1795.00
17.5099 1742.00
17.8142 1691.00
18.1185 1913.00
18.4227 1694.00
18.727 1711.00
19.0312 1523.00
19.3355 1657.00
19.6398 1587.00
19.944 1513.00
20.2483 1505.00
20.5525 1591.00
20.8568 1497.00
21.1611 1499.00
21.4653 1485.00
21.7696 1620.00
22.0738 1412.00
22.3781 1457.00
22.6824 1458.00
22.9866 1448.00
23.2909 1435.00
23.5951 1374.00
23.8994 1530.00
24.2037 1397.00
24.5079 1427.00
24.8122 1472.00
25.1164 1637.00
25.4207 6793.00
25.725 1595.00
26.0292 3682.00
26.3335 1410.00
26.6378 1286.00
26.942 1269.00
27.2463 1328.00
27.5505 1268.00
27.8548 1290.00
28.1591 1233.00
28.4633 1249.00
28.7676 1342.00
29.0718 1281.00
29.3761 1260.00
29.6804 1354.00
29.9846 1611.00
30.2889 1303.00
30.5931 1390.00
30.8974 3177.00
31.2017 1893.00
31.5059 3750.00
31.8102 3479.00
32.1144 1376.00
32.4187 1285.00
32.723 1663.00
33.0272 4788.00
33.3315 1911.00
33.6357 1223.00
33.94 1166.00
34.2443 1260.00
34.5485 1246.00
34.8528 1425.00
35.157 1185.00
35.4613 1926.00
35.7656 1847.00
36.0698 1228.00
36.3741 2172.00
36.6783 1982.00
36.9826 1882.00
37.2869 1184.00
37.5911 1947.00
37.8954 1192.00
38.1996 1031.00
38.5039 1107.00
38.8082 1078.00
39.1124 1125.00
39.4167 1038.00
39.7209 1078.00
40.0252 1599.00
40.3295 1112.00
40.6337 1068.00
40.938 1090.00
41.2422 1072.00
41.5465 1572.00
41.8508 1095.00
42.155 1205.00
42.4593 1056.00
42.7635 1133.00
43.0678 1411.00
43.3721 1259.00
43.6763 1070.00
43.9806 1140.00
44.2849 2870.00
44.5891 1273.00
44.8934 1007.00
45.1976 1028.00
45.5019 1020.00
45.8062 1856.00
46.1104 2999.00
46.4147 2328.00
46.7189 1574.00
47.0232 1441.00
47.3275 1255.00
47.6317 1121.00
47.936 2724.00
48.2402 1100.00
48.5445 1171.00
48.8488 1149.00
49.153 1168.00
49.4573 1145.00
49.7615 1102.00
50.0658 1699.00
50.3701 1578.00
50.6743 1328.00
50.9786 1191.00
51.2828 1943.00
51.5871 1155.00
51.8914 1233.00
52.1956 1119.00
52.4999 1079.00
52.8041 995.00
53.1084 1027.00
53.4127 1014.00
53.7169 977.00
54.0212 977.00
54.3254 1008.00
54.6297 954.00
54.934 998.00
55.2382 1143.00
55.5425 1124.00
55.8467 1455.00
56.151 1360.00
56.4553 1993.00
56.7595 2193.00
57.0638 2395.00
57.368 1554.00
57.6723 1335.00
57.9766 1123.00
58.2808 989.00
58.5851 960.00
58.8893 1080.00
59.1936 1611.00
59.4979 1121.00
59.8021 1037.00
60.1064 1468.00
60.4106 1044.00
60.7149 985.00
61.0192 1265.00
61.3234 987.00
61.6277 1098.00
61.932 986.00
62.2362 1067.00
62.5405 1098.00
62.8447 1041.00
63.149 1076.00
63.4533 1006.00
63.7575 1087.00
64.0618 1242.00
64.366 1275.00
64.6703 1052.00
64.9745 1015.00
65.2788 1154.00
65.5831 1399.00
65.8873 2243.00
66.1916 2191.00
66.4959 1222.00
66.8001 1167.00
67.1044 1050.00
67.4086 994.00
67.7129 971.00
68.0172 905.00
68.3214 1112.00
68.6257 1183.00
68.9299 1026.00
69.2342 1008.00
69.5385 950.00
69.8427 916.00
70.147 920.00
70.4512 1038.00
70.7555 968.00
71.0598 984.00
71.364 948.00
71.6683 915.00
71.9725 1066.00
72.2768 1338.00
72.5811 1198.00
72.8853 1133.00
73.1896 1120.00
73.4938 1031.00
73.7981 1348.00
74.1024 1460.00
74.4066 1149.00
74.7109 1183.00
75.0151 1183.00
75.3194 1468.00
75.6237 1377.00
75.9279 1108.00
76.2322 1301.00
76.5364 1157.00
76.8407 1129.00
77.145 984.00
77.4492 1119.00
77.7535 1261.00
78.0577 1228.00
78.362 1093.00
78.6663 940.00
78.9705 992.00
79.2748 976.00
79.579 1084.00
79.8833 1088.00
80.1876 1092.00
80.4918 1081.00
80.7961 1008.00
81.1003 1043.00
81.4046 944.00
81.7089 951.00
82.0131 1190.00
82.3174 1191.00
82.6217 1071.00
82.9259 1069.00
83.2302 1519.00
83.5344 1539.00
83.8387 1283.00
84.143 1155.00
84.4472 1226.00
84.7515 1092.00
85.0557 971.00
85.36 1096.00
85.6643 1087.00
85.9685 1112.00
86.2728 1041.00
86.577 934.00
86.8813 951.00
87.1856 1049.00
87.4898 1030.00
87.7941 1073.00
88.0983 1033.00
88.4026 1023.00
88.7069 995.00
89.0111 1013.00
89.3154 982.00
89.6196 1058.00
89.9239 1103.00
90.2282 1029.00
90.5324 1055.00
90.8367 1011.00
91.1409 1102.00
91.4452 1110.00
91.7495 1350.00
92.0537 1570.00
92.358 1402.00
92.6622 1157.00
92.9665 1142.00
93.2708 1114.00
93.575 1086.00
93.8793 1101.00
94.1835 1096.00
94.4878 1015.00
94.7921 1226.00
95.0963 1136.00
95.4006 1170.00
95.7048 1073.00
96.0091 993.00
96.3134 1073.00
96.6176 1146.00
96.9219 1009.00
97.2261 1092.00
97.5304 1165.00
97.8347 1086.00
98.1389 1020.00
98.4432 1056.00
98.7474 1060.00
99.0517 1065.00
99.356 1178.00
99.6602 1068.00
99.9645 1020.00
100.095 989.00

File: PG_1846-1.xy
9.903433 2659.00
10.2077 2469.00
10.512 2282.00
10.8162 2243.00
11.1205 2213.00
11.4247 2151.00
11.729 2074.00
12.0333 1931.00
12.3375 2000.00
12.6418 1869.00
12.946 1861.00
13.2503 1801.00
13.5546 1760.00
13.8588 1968.00
14.1631 1693.00
14.4673 1606.00
14.7716 1644.00
15.0759 1539.00
15.3801 1565.00
15.6844 1536.00
15.9886 1523.00
16.2929 1487.00
16.5972 1444.00
16.9014 1415.00
17.2057 1578.00
17.5099 1447.00
17.8142 1426.00
18.1185 1378.00
18.4227 1315.00
18.727 1310.00
19.0312 1278.00
19.3355 1277.00
19.6398 1197.00
19.944 1179.00
20.2483 1194.00
20.5525 1178.00
20.8568 1141.00
21.1611 1097.00
21.4653 1171.00
21.7696 1169.00
22.0738 1097.00
22.3781 1091.00
22.6824 1098.00
22.9866 985.00
23.2909 994.00
23.5951 1004.00
23.8994 1030.00
24.2037 1078.00
24.5079 992.00
24.8122 981.00
25.1164 997.00
25.4207 975.00
25.725 956.00
26.0292 844.00
26.3335 885.00
26.6378 863.00
26.942 895.00
27.2463 888.00
27.5505 1521.00
27.8548 1066.00
28.1591 829.00
28.4633 828.00
28.7676 815.00
29.0718 802.00
29.3761 700.00
29.6804 775.00
29.9846 798.00
30.2889 811.00
30.5931 1446.00
30.8974 5973.00
31.2017 1207.00
31.5059 6790.00
31.8102 894.00
32.1144 741.00
32.4187 775.00
32.723 909.00
33.0272 698.00
33.3315 614.00
33.6357 690.00
33.94 696.00
34.2443 706.00
34.5485 658.00
34.8528 1090.00
35.157 640.00
35.4613 673.00
35.7656 1604.00
36.0698 1161.00
36.3741 2285.00
36.6783 768.00
36.9826 587.00
37.2869 615.00
37.5911 983.00
37.8954 722.00
38.1996 589.00
38.5039 525.00
38.8082 554.00
39.1124 515.00
39.4167 786.00
39.7209 620.00
40.0252 620.00
40.3295 478.00
40.6337 500.00
40.938 557.00
41.2422 519.00
41.5465 778.00
41.8508 998.00
42.155 662.00
42.4593 452.00
42.7635 472.00
43.0678 470.00
43.3721 475.00
43.6763 488.00
43.9806 448.00
44.2849 582.00
44.5891 466.00
44.8934 461.00
45.1976 450.00
45.5019 410.00
45.8062 477.00
46.1104 522.00
46.4147 658.00
46.7189 460.00
47.0232 426.00
47.3275 513.00
47.6317 714.00
47.936 455.00
48.2402 471.00
48.5445 445.00
48.8488 465.00
49.153 421.00
49.4573 475.00
49.7615 478.00
50.0658 398.00
50.3701 461.00
50.6743 786.00
50.9786 1056.00
51.2828 1219.00
51.5871 540.00
51.8914 2841.00
52.1956 781.00
52.4999 1273.00
52.8041 483.00
53.1084 447.00
53.4127 393.00
53.7169 410.00
54.0212 429.00
54.3254 475.00
54.6297 994.00
54.934 427.00
55.2382 391.00
55.5425 516.00
55.8467 607.00
56.151 429.00
56.4553 437.00
56.7595 629.00
57.0638 599.00
57.368 431.00
57.6723 645.00
57.9766 486.00
58.2808 412.00
58.5851 424.00
58.8893 1003.00
59.1936 494.00
59.4979 408.00
59.8021 495.00
60.1064 768.00
60.4106 433.00
60.7149 1309.00
61.0192 689.00
61.3234 453.00
61.6277 570.00
61.932 2342.00
62.2362 1319.00
62.5405 492.00
62.8447 488.00
63.149 1057.00
63.4533 457.00
63.7575 607.00
64.0618 539.00
64.366 617.00
64.6703 381.00
64.9745 364.00
65.2788 577.00
65.5831 615.00
65.8873 353.00
66.1916 335.00
66.4959 351.00
66.8001 346.00
67.1044 373.00
67.4086 491.00
67.7129 354.00
68.0172 377.00
68.3214 458.00
68.6257 367.00
68.9299 398.00
69.2342 824.00
69.5385 451.00
69.8427 388.00
70.147 369.00
70.4512 341.00
70.7555 351.00
71.0598 412.00
71.364 368.00
71.6683 317.00
71.9725 365.00
72.2768 323.00
72.5811 341.00
72.8853 357.00
73.1896 338.00
73.4938 339.00
73.7981 339.00
74.1024 360.00
74.4066 334.00
74.7109 323.00
75.0151 352.00
75.3194 479.00
75.6237 619.00
75.9279 791.00
76.2322 528.00
76.5364 390.00
76.8407 474.00
77.145 458.00
77.4492 327.00
77.7535 335.00
78.0577 329.00
78.362 359.00
78.6663 364.00
78.9705 439.00
79.2748 360.00
79.579 333.00
79.8833 371.00
80.1876 362.00
80.4918 324.00
80.7961 597.00
81.1003 368.00
81.4046 340.00
81.7089 404.00
82.0131 400.00
82.3174 396.00
82.6217 382.00
82.9259 382.00
83.2302 362.00
83.5344 522.00
83.8387 381.00
84.143 402.00
84.4472 517.00
84.7515 450.00
85.0557 776.00
85.36 858.00
85.6643 594.00
85.9685 449.00
86.2728 473.00
86.577 324.00
86.8813 539.00
87.1856 443.00
87.4898 389.00
87.7941 749.00
88.0983 563.00
88.4026 349.00
88.7069 359.00
89.0111 397.00
89.3154 319.00
89.6196 356.00
89.9239 516.00
90.2282 407.00
90.5324 350.00
90.8367 557.00
91.1409 413.00
91.4452 343.00
91.7495 424.00
92.0537 373.00
92.358 299.00
92.6622 429.00
92.9665 396.00
93.2708 338.00
93.575 379.00
93.8793 326.00
94.1835 328.00
94.4878 380.00
94.7921 367.00
95.0963 342.00
95.4006 481.00
95.7048 467.00
96.0091 441.00
96.3134 416.00
96.6176 376.00
96.9219 373.00
97.2261 305.00
97.5304 364.00
97.8347 433.00
98.1389 384.00
98.4432 368.00
98.7474 373.00
99.0517 818.00
99.356 759.00
99.6602 470.00
99.9645 390.00
100.095 459.00