Folder: alab-pipeline/data/xrd_creation/results (part 41)

File: NSC_34.xy
9.903433 2897.00
10.2077 2737.00
10.512 2638.00
10.8162 2664.00
11.1205 2490.00
11.4247 2478.00
11.729 2485.00
12.0333 2359.00
12.3375 2435.00
12.6418 2907.00
12.946 2358.00
13.2503 2163.00
13.5546 2077.00
13.8588 2313.00
14.1631 2738.00
14.4673 2042.00
14.7716 1995.00
15.0759 1943.00
15.3801 1943.00
15.6844 1938.00
15.9886 1987.00
16.2929 1901.00
16.5972 1930.00
16.9014 1945.00
17.2057 2005.00
17.5099 1953.00
17.8142 1847.00
18.1185 1852.00
18.4227 1838.00
18.727 1731.00
19.0312 1836.00
19.3355 2515.00
19.6398 4500.00
19.944 3190.00
20.2483 3323.00
20.5525 1904.00
20.8568 1850.00
21.1611 1920.00
21.4653 2297.00
21.7696 2058.00
22.0738 1748.00
22.3781 1664.00
22.6824 1796.00
22.9866 2522.00
23.2909 3614.00
23.5951 2043.00
23.8994 1668.00
24.2037 1753.00
24.5079 1683.00
24.8122 1632.00
25.1164 1610.00
25.4207 1551.00
25.725 1551.00
26.0292 1653.00
26.3335 1570.00
26.6378 1498.00
26.942 1433.00
27.2463 1518.00
27.5505 1544.00
27.8548 1859.00
28.1591 3805.00
28.4633 3411.00
28.7676 1624.00
29.0718 1724.00
29.3761 1865.00
29.6804 1372.00
29.9846 1433.00
30.2889 1620.00
30.5931 2269.00
30.8974 4941.00
31.2017 6380.00
31.5059 2615.00
31.8102 2212.00
32.1144 1380.00
32.4187 1322.00
32.723 1291.00
33.0272 1459.00
33.3315 1275.00
33.6357 1359.00
33.94 1483.00
34.2443 2252.00
34.5485 3169.00
34.8528 2849.00
35.157 2473.00
35.4613 2119.00
35.7656 1699.00
36.0698 1312.00
36.3741 1281.00
36.6783 1169.00
36.9826 1130.00
37.2869 1216.00
37.5911 1136.00
37.8954 1215.00
38.1996 1177.00
38.5039 1201.00
38.8082 1297.00
39.1124 1146.00
39.4167 1308.00
39.7209 1277.00
40.0252 1194.00
40.3295 1200.00
40.6337 1219.00
40.938 1510.00
41.2422 1436.00
41.5465 1429.00
41.8508 1449.00
42.155 1435.00
42.4593 1492.00
42.7635 1416.00
43.0678 1306.00
43.3721 1173.00
43.6763 1085.00
43.9806 1115.00
44.2849 1213.00
44.5891 1474.00
44.8934 1435.00
45.1976 1406.00
45.5019 1682.00
45.8062 1643.00
46.1104 1248.00
46.4147 1426.00
46.7189 1641.00
47.0232 1972.00
47.3275 2009.00
47.6317 2015.00
47.936 1482.00
48.2402 1357.00
48.5445 1349.00
48.8488 1172.00
49.153 1244.00
49.4573 1464.00
49.7615 1208.00
50.0658 1262.00
50.3701 1769.00
50.6743 1576.00
50.9786 1959.00
51.2828 2194.00
51.5871 1326.00
51.8914 1118.00
52.1956 1109.00
52.4999 1103.00
52.8041 1194.00
53.1084 1160.00
53.4127 1276.00
53.7169 1476.00
54.0212 1477.00
54.3254 1893.00
54.6297 1688.00
54.934 1411.00
55.2382 1243.00
55.5425 1366.00
55.8467 1218.00
56.151 1291.00
56.4553 1187.00
56.7595 1110.00
57.0638 1132.00
57.368 1205.00
57.6723 1141.00
57.9766 1259.00
58.2808 1245.00
58.5851 1145.00
58.8893 1137.00
59.1936 1524.00
59.4979 1804.00
59.8021 1464.00
60.1064 1749.00
60.4106 1566.00
60.7149 1645.00
61.0192 1562.00
61.3234 1278.00
61.6277 1242.00
61.932 1281.00
62.2362 1453.00
62.5405 1335.00
62.8447 1382.00
63.149 1384.00
63.4533 1143.00
63.7575 1139.00
64.0618 1037.00
64.366 1066.00
64.6703 1038.00
64.9745 1049.00
65.2788 1079.00
65.5831 1197.00
65.8873 1348.00
66.1916 1209.00
66.4959 1174.00
66.8001 1089.00
67.1044 1178.00
67.4086 1131.00
67.7129 1201.00
68.0172 1138.00
68.3214 966.00
68.6257 997.00
68.9299 1030.00
69.2342 994.00
69.5385 1137.00
69.8427 1089.00
70.147 1114.00
70.4512 1026.00
70.7555 981.00
71.0598 1055.00
71.364 1048.00
71.6683 1011.00
71.9725 1060.00
72.2768 1113.00
72.5811 1023.00
72.8853 991.00
73.1896 1019.00
73.4938 1100.00
73.7981 1124.00
74.1024 1026.00
74.4066 1063.00
74.7109 1011.00
75.0151 994.00
75.3194 1078.00
75.6237 1009.00
75.9279 1013.00
76.2322 936.00
76.5364 1072.00
76.8407 1016.00
77.145 943.00
77.4492 1059.00
77.7535 1040.00
78.0577 1012.00
78.362 898.00
78.6663 940.00
78.9705 982.00
79.2748 905.00
79.579 913.00
79.8833 917.00
80.1876 965.00
80.4918 1025.00
80.7961 1062.00
81.1003 971.00
81.4046 894.00
81.7089 1121.00
82.0131 1036.00
82.3174 1061.00
82.6217 969.00
82.9259 991.00
83.2302 1173.00
83.5344 1025.00
83.8387 1021.00
84.143 1022.00
84.4472 985.00
84.7515 938.00
85.0557 953.00
85.36 928.00
85.6643 917.00
85.9685 987.00
86.2728 971.00
86.577 940.00
86.8813 897.00
87.1856 926.00
87.4898 990.00
87.7941 1061.00
88.0983 1069.00
88.4026 1159.00
88.7069 1107.00
89.0111 968.00
89.3154 954.00
89.6196 911.00
89.9239 978.00
90.2282 1000.00
90.5324 999.00
90.8367 1005.00
91.1409 962.00
91.4452 882.00
91.7495 863.00
92.0537 885.00
92.358 880.00
92.6622 962.00
92.9665 940.00
93.2708 811.00
93.575 908.00
93.8793 931.00
94.1835 913.00
94.4878 987.00
94.7921 980.00
95.0963 980.00
95.4006 1015.00
95.7048 994.00
96.0091 876.00
96.3134 936.00
96.6176 993.00
96.9219 980.00
97.2261 978.00
97.5304 906.00
97.8347 973.00
98.1389 926.00
98.4432 976.00
98.7474 973.00
99.0517 966.00
99.356 959.00
99.6602 912.00
99.9645 986.00
100.095 921.00

File: NSC_35.xy
9.903433 3140.00
10.2077 3049.00
10.512 2842.00
10.8162 2913.00
11.1205 2677.00
11.4247 2760.00
11.729 2624.00
12.0333 2606.00
12.3375 2713.00
12.6418 3326.00
12.946 3925.00
13.2503 2914.00
13.5546 2553.00
13.8588 2730.00
14.1631 3243.00
14.4673 2354.00
14.7716 2308.00
15.0759 2310.00
15.3801 2295.00
15.6844 2291.00
15.9886 2318.00
16.2929 2352.00
16.5972 2268.00
16.9014 2226.00
17.2057 2270.00
17.5099 2240.00
17.8142 2250.00
18.1185 2051.00
18.4227 2048.00
18.727 2124.00
19.0312 2092.00
19.3355 2431.00
19.6398 4433.00
19.944 6008.00
20.2483 2476.00
20.5525 2182.00
20.8568 2330.00
21.1611 2641.00
21.4653 2827.00
21.7696 3218.00
22.0738 2063.00
22.3781 1919.00
22.6824 1941.00
22.9866 2651.00
23.2909 5088.00
23.5951 2382.00
23.8994 2042.00
24.2037 2125.00
24.5079 2148.00
24.8122 2082.00
25.1164 1725.00
25.4207 1767.00
25.725 1845.00
26.0292 1801.00
26.3335 1756.00
26.6378 1717.00
26.942 1661.00
27.2463 1681.00
27.5505 1717.00
27.8548 2029.00
28.1591 3372.00
28.4633 6107.00
28.7676 2121.00
29.0718 2141.00
29.3761 2299.00
29.6804 1697.00
29.9846 1686.00
30.2889 1973.00
30.5931 2295.00
30.8974 11559.00
31.2017 8932.00
31.5059 3921.00
31.8102 4357.00
32.1144 1683.00
32.4187 1615.00
32.723 1579.00
33.0272 1498.00
33.3315 1560.00
33.6357 1480.00
33.94 1550.00
34.2443 2141.00
34.5485 6912.00
34.8528 4170.00
35.157 1750.00
35.4613 2045.00
35.7656 3992.00
36.0698 1565.00
36.3741 1463.00
36.6783 1306.00
36.9826 1315.00
37.2869 1275.00
37.5911 1295.00
37.8954 1478.00
38.1996 1394.00
38.5039 1277.00
38.8082 1437.00
39.1124 1301.00
39.4167 1290.00
39.7209 1401.00
40.0252 1384.00
40.3295 1413.00
40.6337 1324.00
40.938 1517.00
41.2422 1607.00
41.5465 1553.00
41.8508 1770.00
42.155 2018.00
42.4593 1675.00
42.7635 1460.00
43.0678 1366.00
43.3721 1291.00
43.6763 1362.00
43.9806 1311.00
44.2849 1338.00
44.5891 1332.00
44.8934 1495.00
45.1976 1798.00
45.5019 1569.00
45.8062 2017.00
46.1104 1634.00
46.4147 1352.00
46.7189 1631.00
47.0232 3041.00
47.3275 2891.00
47.6317 1892.00
47.936 1404.00
48.2402 1452.00
48.5445 1459.00
48.8488 1417.00
49.153 1374.00
49.4573 1799.00
49.7615 1542.00
50.0658 1263.00
50.3701 2037.00
50.6743 1617.00
50.9786 2029.00
51.2828 4021.00
51.5871 1719.00
51.8914 1256.00
52.1956 1235.00
52.4999 1255.00
52.8041 1325.00
53.1084 1484.00
53.4127 1318.00
53.7169 1844.00
54.0212 1883.00
54.3254 2371.00
54.6297 1467.00
54.934 1212.00
55.2382 1141.00
55.5425 1601.00
55.8467 1483.00
56.151 1516.00
56.4553 1331.00
56.7595 1163.00
57.0638 1067.00
57.368 1354.00
57.6723 1256.00
57.9766 1173.00
58.2808 1288.00
58.5851 1274.00
58.8893 1240.00
59.1936 1497.00
59.4979 2177.00
59.8021 2005.00
60.1064 2066.00
60.4106 1614.00
60.7149 1578.00
61.0192 2464.00
61.3234 1546.00
61.6277 1724.00
61.932 1432.00
62.2362 1631.00
62.5405 1501.00
62.8447 1224.00
63.149 1585.00
63.4533 1207.00
63.7575 1163.00
64.0618 1321.00
64.366 1156.00
64.6703 1203.00
64.9745 1110.00
65.2788 1237.00
65.5831 1263.00
65.8873 1591.00
66.1916 1359.00
66.4959 1278.00
66.8001 1299.00
67.1044 1180.00
67.4086 1159.00
67.7129 1130.00
68.0172 1095.00
68.3214 1151.00
68.6257 1041.00
68.9299 1112.00
69.2342 1157.00
69.5385 1311.00
69.8427 1119.00
70.147 983.00
70.4512 1089.00
70.7555 1056.00
71.0598 1017.00
71.364 1128.00
71.6683 1115.00
71.9725 1021.00
72.2768 1159.00
72.5811 1221.00
72.8853 1149.00
73.1896 1172.00
73.4938 1125.00
73.7981 1059.00
74.1024 1116.00
74.4066 1020.00
74.7109 1021.00
75.0151 1068.00
75.3194 1166.00
75.6237 1182.00
75.9279 1035.00
76.2322 1033.00
76.5364 1175.00
76.8407 1133.00
77.145 1056.00
77.4492 1019.00
77.7535 1031.00
78.0577 1031.00
78.362 1005.00
78.6663 1014.00
78.9705 988.00
79.2748 1036.00
79.579 968.00
79.8833 903.00
80.1876 954.00
80.4918 959.00
80.7961 1135.00
81.1003 1121.00
81.4046 1145.00
81.7089 1175.00
82.0131 1147.00
82.3174 1106.00
82.6217 1072.00
82.9259 1078.00
83.2302 1125.00
83.5344 1201.00
83.8387 1013.00
84.143 946.00
84.4472 977.00
84.7515 1031.00
85.0557 1023.00
85.36 885.00
85.6643 953.00
85.9685 1137.00
86.2728 1073.00
86.577 1003.00
86.8813 896.00
87.1856 993.00
87.4898 1074.00
87.7941 1066.00
88.0983 997.00
88.4026 1100.00
88.7069 1102.00
89.0111 1041.00
89.3154 928.00
89.6196 983.00
89.9239 1079.00
90.2282 1086.00
90.5324 983.00
90.8367 1022.00
91.1409 1008.00
91.4452 1024.00
91.7495 1007.00
92.0537 935.00
92.358 950.00
92.6622 1033.00
92.9665 1026.00
93.2708 1019.00
93.575 964.00
93.8793 956.00
94.1835 1023.00
94.4878 1110.00
94.7921 994.00
95.0963 986.00
95.4006 1091.00
95.7048 1063.00
96.0091 917.00
96.3134 1041.00
96.6176 1191.00
96.9219 1183.00
97.2261 1047.00
97.5304 992.00
97.8347 996.00
98.1389 1037.00
98.4432 928.00
98.7474 956.00
99.0517 989.00
99.356 948.00
99.6602 1004.00
99.9645 950.00
100.095 965.00

File: NSC_36.xy
9.903433 3016.00
10.2077 2964.00
10.512 2877.00
10.8162 2764.00
11.1205 2631.00
11.4247 2482.00
11.729 2562.00
12.0333 2453.00
12.3375 2495.00
12.6418 2496.00
12.946 2700.00
13.2503 2380.00
13.5546 2320.00
13.8588 2667.00
14.1631 2545.00
14.4673 2255.00
14.7716 2422.00
15.0759 2249.00
15.3801 2289.00
15.6844 2232.00
15.9886 2147.00
16.2929 2124.00
16.5972 2247.00
16.9014 2099.00
17.2057 2215.00
17.5099 2103.00
17.8142 2160.00
18.1185 2029.00
18.4227 1975.00
18.727 1959.00
19.0312 2020.00
19.3355 2246.00
19.6398 4675.00
19.944 4153.00
20.2483 2470.00
20.5525 2083.00
20.8568 2360.00
21.1611 2173.00
21.4653 2273.00
21.7696 3033.00
22.0738 2183.00
22.3781 1890.00
22.6824 2120.00
22.9866 2133.00
23.2909 3101.00
23.5951 2102.00
23.8994 1902.00
24.2037 2397.00
24.5079 1987.00
24.8122 2282.00
25.1164 1736.00
25.4207 1761.00
25.725 1705.00
26.0292 1728.00
26.3335 1778.00
26.6378 1689.00
26.942 1684.00
27.2463 1677.00
27.5505 1698.00
27.8548 2508.00
28.1591 2507.00
28.4633 6508.00
28.7676 2019.00
29.0718 1851.00
29.3761 1839.00
29.6804 1692.00
29.9846 1762.00
30.2889 1824.00
30.5931 2495.00
30.8974 12825.00
31.2017 6467.00
31.5059 3163.00
31.8102 4465.00
32.1144 1763.00
32.4187 1612.00
32.723 1553.00
33.0272 1631.00
33.3315 1806.00
33.6357 1551.00
33.94 1698.00
34.2443 2768.00
34.5485 6832.00
34.8528 2260.00
35.157 1785.00
35.4613 2052.00
35.7656 4677.00
36.0698 1492.00
36.3741 1438.00
36.6783 1323.00
36.9826 1341.00
37.2869 1336.00
37.5911 1367.00
37.8954 1695.00
38.1996 1340.00
38.5039 1318.00
38.8082 1483.00
39.1124 1334.00
39.4167 1308.00
39.7209 1324.00
40.0252 1482.00
40.3295 1233.00
40.6337 1281.00
40.938 1622.00
41.2422 1495.00
41.5465 1567.00
41.8508 1728.00
42.155 1979.00
42.4593 1605.00
42.7635 1297.00
43.0678 1264.00
43.3721 1239.00
43.6763 1234.00
43.9806 1217.00
44.2849 1338.00
44.5891 1557.00
44.8934 1675.00
45.1976 1572.00
45.5019 1407.00
45.8062 1767.00
46.1104 1672.00
46.4147 1351.00
46.7189 1687.00
47.0232 2605.00
47.3275 1852.00
47.6317 1300.00
47.936 1296.00
48.2402 1270.00
48.5445 1407.00
48.8488 1344.00
49.153 1449.00
49.4573 2188.00
49.7615 1461.00
50.0658 1256.00
50.3701 2076.00
50.6743 1650.00
50.9786 2091.00
51.2828 5008.00
51.5871 1723.00
51.8914 1235.00
52.1956 1211.00
52.4999 1181.00
52.8041 1280.00
53.1084 1401.00
53.4127 1410.00
53.7169 2073.00
54.0212 1497.00
54.3254 1702.00
54.6297 1397.00
54.934 1253.00
55.2382 1239.00
55.5425 1666.00
55.8467 1544.00
56.151 1606.00
56.4553 1329.00
56.7595 1192.00
57.0638 1174.00
57.368 1292.00
57.6723 1337.00
57.9766 1288.00
58.2808 1381.00
58.5851 1371.00
58.8893 1295.00
59.1936 1477.00
59.4979 2121.00
59.8021 1602.00
60.1064 1624.00
60.4106 1560.00
60.7149 1648.00
61.0192 2750.00
61.3234 1713.00
61.6277 1791.00
61.932 1344.00
62.2362 1493.00
62.5405 1524.00
62.8447 1379.00
63.149 1534.00
63.4533 1143.00
63.7575 1156.00
64.0618 1300.00
64.366 1175.00
64.6703 1142.00
64.9745 1101.00
65.2788 1300.00
65.5831 1307.00
65.8873 1366.00
66.1916 1355.00
66.4959 1280.00
66.8001 1271.00
67.1044 1161.00
67.4086 1033.00
67.7129 1070.00
68.0172 1042.00
68.3214 1238.00
68.6257 1080.00
68.9299 1127.00
69.2342 1131.00
69.5385 1139.00
69.8427 1099.00
70.147 1060.00
70.4512 1008.00
70.7555 1043.00
71.0598 1050.00
71.364 1223.00
71.6683 1124.00
71.9725 1068.00
72.2768 1218.00
72.5811 1223.00
72.8853 1115.00
73.1896 1069.00
73.4938 1033.00
73.7981 1210.00
74.1024 1129.00
74.4066 1013.00
74.7109 1057.00
75.0151 1043.00
75.3194 1239.00
75.6237 1158.00
75.9279 1027.00
76.2322 1013.00
76.5364 1175.00
76.8407 1191.00
77.145 979.00
77.4492 1049.00
77.7535 1078.00
78.0577 1059.00
78.362 1010.00
78.6663 915.00
78.9705 921.00
79.2748 1119.00
79.579 1090.00
79.8833 1012.00
80.1876 1052.00
80.4918 1064.00
80.7961 1267.00
81.1003 1040.00
81.4046 972.00
81.7089 1036.00
82.0131 1200.00
82.3174 1256.00
82.6217 1098.00
82.9259 1068.00
83.2302 1172.00
83.5344 1285.00
83.8387 1056.00
84.143 1078.00
84.4472 1094.00
84.7515 1031.00
85.0557 933.00
85.36 1015.00
85.6643 966.00
85.9685 1212.00
86.2728 1168.00
86.577 988.00
86.8813 957.00
87.1856 1052.00
87.4898 1029.00
87.7941 1049.00
88.0983 1104.00
88.4026 1106.00
88.7069 1182.00
89.0111 1078.00
89.3154 1001.00
89.6196 1052.00
89.9239 1159.00
90.2282 1121.00
90.5324 996.00
90.8367 1064.00
91.1409 1026.00
91.4452 1005.00
91.7495 971.00
92.0537 955.00
92.358 1002.00
92.6622 1098.00
92.9665 1034.00
93.2708 944.00
93.575 995.00
93.8793 1050.00
94.1835 1002.00
94.4878 1011.00
94.7921 996.00
95.0963 1043.00
95.4006 1136.00
95.7048 1085.00
96.0091 985.00
96.3134 988.00
96.6176 1246.00
96.9219 1177.00
97.2261 1123.00
97.5304 950.00
97.8347 1045.00
98.1389 1020.00
98.4432 978.00
98.7474 1023.00
99.0517 1077.00
99.356 1090.00
99.6602 1133.00
99.9645 1033.00
100.095 985.00

File: NSC_37.xy
9.903433 3118.00
10.2077 2993.00
10.512 2903.00
10.8162 2889.00
11.1205 2762.00
11.4247 2672.00
11.729 2705.00
12.0333 2565.00
12.3375 2455.00
12.6418 2601.00
12.946 2726.00
13.2503 2576.00
13.5546 2400.00
13.8588 2844.00
14.1631 3048.00
14.4673 2414.00
14.7716 2409.00
15.0759 2414.00
15.3801 2401.00
15.6844 2332.00
15.9886 2222.00
16.2929 2276.00
16.5972 2251.00
16.9014 2196.00
17.2057 2211.00
17.5099 2285.00
17.8142 2405.00
18.1185 2149.00
18.4227 1997.00
18.727 2167.00
19.0312 2229.00
19.3355 2493.00
19.6398 4810.00
19.944 5268.00
20.2483 2440.00
20.5525 2137.00
20.8568 2269.00
21.1611 2225.00
21.4653 2142.00
21.7696 2976.00
22.0738 2469.00
22.3781 2041.00
22.6824 2054.00
22.9866 2163.00
23.2909 3574.00
23.5951 2038.00
23.8994 1984.00
24.2037 2090.00
24.5079 2168.00
24.8122 2430.00
25.1164 1825.00
25.4207 1834.00
25.725 1822.00
26.0292 1776.00
26.3335 1805.00
26.6378 1751.00
26.942 1688.00
27.2463 1797.00
27.5505 1833.00
27.8548 2467.00
28.1591 3097.00
28.4633 6466.00
28.7676 2267.00
29.0718 1887.00
29.3761 1824.00
29.6804 1710.00
29.9846 1761.00
30.2889 1829.00
30.5931 2308.00
30.8974 14552.00
31.2017 5791.00
31.5059 2931.00
31.8102 5354.00
32.1144 1835.00
32.4187 1722.00
32.723 1643.00
33.0272 1584.00
33.3315 1636.00
33.6357 1585.00
33.94 1667.00
34.2443 2089.00
34.5485 4507.00
34.8528 3390.00
35.157 1712.00
35.4613 2019.00
35.7656 4996.00
36.0698 1602.00
36.3741 1477.00
36.6783 1349.00
36.9826 1342.00
37.2869 1403.00
37.5911 1394.00
37.8954 1615.00
38.1996 1307.00
38.5039 1345.00
38.8082 1473.00
39.1124 1364.00
39.4167 1350.00
39.7209 1396.00
40.0252 1352.00
40.3295 1415.00
40.6337 1288.00
40.938 1558.00
41.2422 1638.00
41.5465 1616.00
41.8508 1675.00
42.155 2106.00
42.4593 1560.00
42.7635 1388.00
43.0678 1318.00
43.3721 1232.00
43.6763 1271.00
43.9806 1343.00
44.2849 1385.00
44.5891 1512.00
44.8934 1714.00
45.1976 1842.00
45.5019 1450.00
45.8062 1755.00
46.1104 1776.00
46.4147 1440.00
46.7189 1549.00
47.0232 2109.00
47.3275 2098.00
47.6317 1453.00
47.936 1229.00
48.2402 1301.00
48.5445 1388.00
48.8488 1307.00
49.153 1363.00
49.4573 1852.00
49.7615 1657.00
50.0658 1330.00
50.3701 2050.00
50.6743 1906.00
50.9786 2152.00
51.2828 5119.00
51.5871 1793.00
51.8914 1383.00
52.1956 1243.00
52.4999 1266.00
52.8041 1275.00
53.1084 1337.00
53.4127 1373.00
53.7169 1622.00
54.0212 1929.00
54.3254 2032.00
54.6297 1355.00
54.934 1304.00
55.2382 1238.00
55.5425 1750.00
55.8467 1707.00
56.151 1497.00
56.4553 1537.00
56.7595 1209.00
57.0638 1217.00
57.368 1435.00
57.6723 1363.00
57.9766 1247.00
58.2808 1458.00
58.5851 1402.00
58.8893 1322.00
59.1936 1474.00
59.4979 1859.00
59.8021 1792.00
60.1064 1824.00
60.4106 1629.00
60.7149 1509.00
61.0192 2722.00
61.3234 1449.00
61.6277 1607.00
61.932 1400.00
62.2362 1625.00
62.5405 1552.00
62.8447 1395.00
63.149 1592.00
63.4533 1253.00
63.7575 1207.00
64.0618 1339.00
64.366 1222.00
64.6703 1205.00
64.9745 1143.00
65.2788 1384.00
65.5831 1365.00
65.8873 1533.00
66.1916 1403.00
66.4959 1209.00
66.8001 1329.00
67.1044 1324.00
67.4086 1117.00
67.7129 1089.00
68.0172 1054.00
68.3214 1286.00
68.6257 1072.00
68.9299 1147.00
69.2342 1309.00
69.5385 1208.00
69.8427 1175.00
70.147 1158.00
70.4512 1037.00
70.7555 1065.00
71.0598 1089.00
71.364 1245.00
71.6683 1107.00
71.9725 1068.00
72.2768 1149.00
72.5811 1212.00
72.8853 1202.00
73.1896 1107.00
73.4938 1112.00
73.7981 1140.00
74.1024 1291.00
74.4066 1095.00
74.7109 1080.00
75.0151 1093.00
75.3194 1402.00
75.6237 1243.00
75.9279 1139.00
76.2322 1086.00
76.5364 1215.00
76.8407 1265.00
77.145 1097.00
77.4492 1102.00
77.7535 1132.00
78.0577 1167.00
78.362 1084.00
78.6663 1013.00
78.9705 1016.00
79.2748 1156.00
79.579 1124.00
79.8833 944.00
80.1876 1035.00
80.4918 1133.00
80.7961 1185.00
81.1003 1113.00
81.4046 1132.00
81.7089 1056.00
82.0131 1210.00
82.3174 1243.00
82.6217 1087.00
82.9259 1102.00
83.2302 1263.00
83.5344 1298.00
83.8387 1105.00
84.143 1032.00
84.4472 1065.00
84.7515 1057.00
85.0557 1034.00
85.36 1017.00
85.6643 978.00
85.9685 1152.00
86.2728 1242.00
86.577 1029.00
86.8813 1117.00
87.1856 1061.00
87.4898 1219.00
87.7941 1119.00
88.0983 1110.00
88.4026 1158.00
88.7069 1199.00
89.0111 1096.00
89.3154 1061.00
89.6196 1016.00
89.9239 1164.00
90.2282 1200.00
90.5324 1139.00
90.8367 1022.00
91.1409 1057.00
91.4452 1059.00
91.7495 1007.00
92.0537 951.00
92.358 1056.00
92.6622 1121.00
92.9665 1094.00
93.2708 1001.00
93.575 1063.00
93.8793 1112.00
94.1835 1124.00
94.4878 1002.00
94.7921 1025.00
95.0963 1080.00
95.4006 1154.00
95.7048 1068.00
96.0091 1010.00
96.3134 1147.00
96.6176 1279.00
96.9219 1306.00
97.2261 1110.00
97.5304 1020.00
97.8347 1081.00
98.1389 1112.00
98.4432 1072.00
98.7474 1024.00
99.0517 1068.00
99.356 1193.00
99.6602 1110.00
99.9645 1003.00
100.095 1064.00

File: NSC_38.xy
9.903433 2953.00
10.2077 2851.00
10.512 2918.00
10.8162 2814.00
11.1205 2601.00
11.4247 2591.00
11.729 2446.00
12.0333 2479.00
12.3375 2317.00
12.6418 2399.00
12.946 2390.00
13.2503 2299.00
13.5546 2297.00
13.8588 2449.00
14.1631 2401.00
14.4673 2297.00
14.7716 2444.00
15.0759 2402.00
15.3801 2287.00
15.6844 2236.00
15.9886 2331.00
16.2929 2148.00
16.5972 2205.00
16.9014 2149.00
17.2057 2175.00
17.5099 2298.00
17.8142 2279.00
18.1185 2111.00
18.4227 2045.00
18.727 2014.00
19.0312 2110.00
19.3355 2304.00
19.6398 4083.00
19.944 2957.00
20.2483 2063.00
20.5525 2064.00
20.8568 2182.00
21.1611 2118.00
21.4653 2167.00
21.7696 2644.00
22.0738 2121.00
22.3781 2079.00
22.6824 3282.00
22.9866 2238.00
23.2909 2392.00
23.5951 1868.00
23.8994 1938.00
24.2037 2488.00
24.5079 2087.00
24.8122 2481.00
25.1164 1842.00
25.4207 1874.00
25.725 1787.00
26.0292 1782.00
26.3335 1730.00
26.6378 1793.00
26.942 1754.00
27.2463 1764.00
27.5505 1794.00
27.8548 2776.00
28.1591 2279.00
28.4633 7785.00
28.7676 2208.00
29.0718 1821.00
29.3761 1788.00
29.6804 1783.00
29.9846 1837.00
30.2889 1860.00
30.5931 2434.00
30.8974 8765.00
31.2017 4358.00
31.5059 2477.00
31.8102 5431.00
32.1144 1920.00
32.4187 1747.00
32.723 1718.00
33.0272 1775.00
33.3315 2213.00
33.6357 1768.00
33.94 1901.00
34.2443 3262.00
34.5485 5565.00
34.8528 2138.00
35.157 1673.00
35.4613 2056.00
35.7656 3490.00
36.0698 1756.00
36.3741 1586.00
36.6783 1407.00
36.9826 1483.00
37.2869 1459.00
37.5911 1490.00
37.8954 1668.00
38.1996 1417.00
38.5039 1418.00
38.8082 1617.00
39.1124 1483.00
39.4167 1522.00
39.7209 1508.00
40.0252 1515.00
40.3295 1356.00
40.6337 1333.00
40.938 1895.00
41.2422 1839.00
41.5465 1766.00
41.8508 1817.00
42.155 1838.00
42.4593 1597.00
42.7635 1311.00
43.0678 1324.00
43.3721 1361.00
43.6763 1447.00
43.9806 1350.00
44.2849 1437.00
44.5891 1633.00
44.8934 1663.00
45.1976 1767.00
45.5019 1352.00
45.8062 1841.00
46.1104 1632.00
46.4147 1458.00
46.7189 1667.00
47.0232 2223.00
47.3275 1513.00
47.6317 1408.00
47.936 1385.00
48.2402 1431.00
48.5445 1393.00
48.8488 1376.00
49.153 1501.00
49.4573 2433.00
49.7615 1662.00
50.0658 1434.00
50.3701 2489.00
50.6743 1889.00
50.9786 2187.00
51.2828 3519.00
51.5871 1723.00
51.8914 1414.00
52.1956 1333.00
52.4999 1294.00
52.8041 1373.00
53.1084 1442.00
53.4127 1593.00
53.7169 1814.00
54.0212 1553.00
54.3254 1923.00
54.6297 1473.00
54.934 1428.00
55.2382 1410.00
55.5425 1909.00
55.8467 1786.00
56.151 1774.00
56.4553 1614.00
56.7595 1252.00
57.0638 1302.00
57.368 1613.00
57.6723 1492.00
57.9766 1465.00
58.2808 1531.00
58.5851 1482.00
58.8893 1400.00
59.1936 1641.00
59.4979 1785.00
59.8021 1431.00
60.1064 1855.00
60.4106 1713.00
60.7149 1565.00
61.0192 2294.00
61.3234 1662.00
61.6277 1845.00
61.932 1367.00
62.2362 1653.00
62.5405 1601.00
62.8447 1409.00
63.149 1698.00
63.4533 1325.00
63.7575 1235.00
64.0618 1289.00
64.366 1263.00
64.6703 1282.00
64.9745 1277.00
65.2788 1281.00
65.5831 1395.00
65.8873 1625.00
66.1916 1562.00
66.4959 1363.00
66.8001 1245.00
67.1044 1165.00
67.4086 1125.00
67.7129 1172.00
68.0172 1150.00
68.3214 1279.00
68.6257 1246.00
68.9299 1240.00
69.2342 1225.00
69.5385 1187.00
69.8427 1238.00
70.147 1066.00
70.4512 1147.00
70.7555 1190.00
71.0598 1175.00
71.364 1345.00
71.6683 1242.00
71.9725 1258.00
72.2768 1354.00
72.5811 1310.00
72.8853 1161.00
73.1896 1102.00
73.4938 1099.00
73.7981 1139.00
74.1024 1166.00
74.4066 1094.00
74.7109 1162.00
75.0151 1128.00
75.3194 1310.00
75.6237 1289.00
75.9279 1169.00
76.2322 1097.00
76.5364 1256.00
76.8407 1220.00
77.145 1112.00
77.4492 1085.00
77.7535 1085.00
78.0577 1154.00
78.362 1156.00
78.6663 1115.00
78.9705 1065.00
79.2748 1224.00
79.579 1149.00
79.8833 1138.00
80.1876 1100.00
80.4918 1134.00
80.7961 1172.00
81.1003 1166.00
81.4046 1101.00
81.7089 1217.00
82.0131 1278.00
82.3174 1285.00
82.6217 1158.00
82.9259 1173.00
83.2302 1318.00
83.5344 1310.00
83.8387 1132.00
84.143 1150.00
84.4472 1216.00
84.7515 1070.00
85.0557 1102.00
85.36 1106.00
85.6643 1039.00
85.9685 1157.00
86.2728 1261.00
86.577 1173.00
86.8813 1180.00
87.1856 1140.00
87.4898 1138.00
87.7941 1131.00
88.0983 1209.00
88.4026 1226.00
88.7069 1242.00
89.0111 1126.00
89.3154 1144.00
89.6196 1093.00
89.9239 1208.00
90.2282 1195.00
90.5324 1215.00
90.8367 1068.00
91.1409 1094.00
91.4452 1167.00
91.7495 1061.00
92.0537 1105.00
92.358 1034.00
92.6622 1174.00
92.9665 1075.00
93.2708 1081.00
93.575 1075.00
93.8793 1125.00
94.1835 1145.00
94.4878 1105.00
94.7921 1062.00
95.0963 1099.00
95.4006 1159.00
95.7048 1131.00
96.0091 1103.00
96.3134 1170.00
96.6176 1346.00
96.9219 1302.00
97.2261 1120.00
97.5304 1052.00
97.8347 1111.00
98.1389 1132.00
98.4432 982.00
98.7474 1057.00
99.0517 1105.00
99.356 1197.00
99.6602 1242.00
99.9645 1139.00
100.095 1157.00