Folder: alab-pipeline/data/xrd_creation/results (part 49)

File: NSC_78.xy
9.903433 2899.00
10.2077 2778.00
10.512 2691.00
10.8162 2699.00
11.1205 2599.00
11.4247 2480.00
11.729 2480.00
12.0333 2313.00
12.3375 2214.00
12.6418 2233.00
12.946 2126.00
13.2503 2017.00
13.5546 2097.00
13.8588 2028.00
14.1631 1932.00
14.4673 1961.00
14.7716 1964.00
15.0759 1902.00
15.3801 1935.00
15.6844 1788.00
15.9886 1776.00
16.2929 1774.00
16.5972 1853.00
16.9014 1744.00
17.2057 1755.00
17.5099 1734.00
17.8142 1818.00
18.1185 1716.00
18.4227 1736.00
18.727 1725.00
19.0312 1623.00
19.3355 2161.00
19.6398 2516.00
19.944 1656.00
20.2483 1605.00
20.5525 1595.00
20.8568 1680.00
21.1611 1662.00
21.4653 2376.00
21.7696 1805.00
22.0738 1569.00
22.3781 1504.00
22.6824 1523.00
22.9866 1557.00
23.2909 1549.00
23.5951 1466.00
23.8994 1456.00
24.2037 1397.00
24.5079 1433.00
24.8122 1491.00
25.1164 1678.00
25.4207 3069.00
25.725 15373.00
26.0292 1800.00
26.3335 1496.00
26.6378 1501.00
26.942 1467.00
27.2463 1540.00
27.5505 2129.00
27.8548 10319.00
28.1591 1676.00
28.4633 1445.00
28.7676 1470.00
29.0718 2023.00
29.3761 3380.00
29.6804 1957.00
29.9846 1637.00
30.2889 1339.00
30.5931 1321.00
30.8974 1220.00
31.2017 1327.00
31.5059 1268.00
31.8102 1231.00
32.1144 1153.00
32.4187 1128.00
32.723 1130.00
33.0272 1141.00
33.3315 1106.00
33.6357 1096.00
33.94 1048.00
34.2443 1077.00
34.5485 992.00
34.8528 942.00
35.157 1008.00
35.4613 1093.00
35.7656 959.00
36.0698 950.00
36.3741 928.00
36.6783 867.00
36.9826 857.00
37.2869 923.00
37.5911 850.00
37.8954 909.00
38.1996 2330.00
38.5039 1003.00
38.8082 827.00
39.1124 809.00
39.4167 816.00
39.7209 1883.00
40.0252 893.00
40.3295 767.00
40.6337 763.00
40.938 754.00
41.2422 780.00
41.5465 801.00
41.8508 814.00
42.155 820.00
42.4593 814.00
42.7635 852.00
43.0678 890.00
43.3721 831.00
43.6763 950.00
43.9806 3357.00
44.2849 1063.00
44.5891 1430.00
44.8934 1405.00
45.1976 839.00
45.5019 818.00
45.8062 765.00
46.1104 728.00
46.4147 898.00
46.7189 760.00
47.0232 763.00
47.3275 775.00
47.6317 848.00
47.936 3529.00
48.2402 1265.00
48.5445 4786.00
48.8488 1146.00
49.153 745.00
49.4573 733.00
49.7615 707.00
50.0658 909.00
50.3701 910.00
50.6743 673.00
50.9786 697.00
51.2828 696.00
51.5871 702.00
51.8914 666.00
52.1956 699.00
52.4999 726.00
52.8041 1371.00
53.1084 918.00
53.4127 709.00
53.7169 681.00
54.0212 700.00
54.3254 645.00
54.6297 690.00
54.934 1302.00
55.2382 724.00
55.5425 653.00
55.8467 697.00
56.151 775.00
56.4553 1849.00
56.7595 725.00
57.0638 683.00
57.368 810.00
57.6723 1431.00
57.9766 638.00
58.2808 625.00
58.5851 620.00
58.8893 570.00
59.1936 590.00
59.4979 600.00
59.8021 621.00
60.1064 621.00
60.4106 608.00
60.7149 669.00
61.0192 627.00
61.3234 750.00
61.6277 771.00
61.932 521.00
62.2362 580.00
62.5405 545.00
62.8447 601.00
63.149 628.00
63.4533 596.00
63.7575 586.00
64.0618 1459.00
64.366 1090.00
64.6703 2380.00
64.9745 870.00
65.2788 1109.00
65.5831 581.00
65.8873 599.00
66.1916 525.00
66.4959 462.00
66.8001 537.00
67.1044 480.00
67.4086 506.00
67.7129 487.00
68.0172 496.00
68.3214 567.00
68.6257 560.00
68.9299 537.00
69.2342 505.00
69.5385 509.00
69.8427 569.00
70.147 1184.00
70.4512 811.00
70.7555 522.00
71.0598 527.00
71.364 469.00
71.6683 521.00
71.9725 641.00
72.2768 495.00
72.5811 505.00
72.8853 502.00
73.1896 481.00
73.4938 485.00
73.7981 457.00
74.1024 452.00
74.4066 475.00
74.7109 467.00
75.0151 532.00
75.3194 845.00
75.6237 860.00
75.9279 520.00
76.2322 496.00
76.5364 473.00
76.8407 545.00
77.145 795.00
77.4492 565.00
77.7535 495.00
78.0577 645.00
78.362 886.00
78.6663 1185.00
78.9705 698.00
79.2748 456.00
79.579 507.00
79.8833 668.00
80.1876 542.00
80.4918 423.00
80.7961 437.00
81.1003 490.00
81.4046 442.00
81.7089 490.00
82.0131 685.00
82.3174 814.00
82.6217 536.00
82.9259 458.00
83.2302 453.00
83.5344 444.00
83.8387 700.00
84.143 612.00
84.4472 424.00
84.7515 407.00
85.0557 498.00
85.36 445.00
85.6643 477.00
85.9685 603.00
86.2728 439.00
86.577 424.00
86.8813 394.00
87.1856 388.00
87.4898 420.00
87.7941 415.00
88.0983 440.00
88.4026 422.00
88.7069 408.00
89.0111 429.00
89.3154 504.00
89.6196 428.00
89.9239 417.00
90.2282 456.00
90.5324 688.00
90.8367 589.00
91.1409 424.00
91.4452 433.00
91.7495 406.00
92.0537 803.00
92.358 636.00
92.6622 528.00
92.9665 468.00
93.2708 481.00
93.575 444.00
93.8793 388.00
94.1835 389.00
94.4878 387.00
94.7921 425.00
95.0963 436.00
95.4006 418.00
95.7048 501.00
96.0091 432.00
96.3134 378.00
96.6176 421.00
96.9219 464.00
97.2261 686.00
97.5304 557.00
97.8347 450.00
98.1389 456.00
98.4432 495.00
98.7474 490.00
99.0517 475.00
99.356 548.00
99.6602 485.00
99.9645 408.00
100.095 402.00

File: NSC_79.xy
9.903433 2885.00
10.2077 2847.00
10.512 2718.00
10.8162 2735.00
11.1205 2609.00
11.4247 2632.00
11.729 2544.00
12.0333 2578.00
12.3375 2539.00
12.6418 2494.00
12.946 2368.00
13.2503 2262.00
13.5546 2280.00
13.8588 2282.00
14.1631 2203.00
14.4673 2119.00
14.7716 2085.00
15.0759 2123.00
15.3801 1912.00
15.6844 1989.00
15.9886 1963.00
16.2929 1948.00
16.5972 1999.00
16.9014 1886.00
17.2057 1909.00
17.5099 2001.00
17.8142 1847.00
18.1185 1880.00
18.4227 1876.00
18.727 1848.00
19.0312 1846.00
19.3355 2127.00
19.6398 4831.00
19.944 1761.00
20.2483 1917.00
20.5525 1741.00
20.8568 1791.00
21.1611 1710.00
21.4653 1888.00
21.7696 1776.00
22.0738 1620.00
22.3781 1618.00
22.6824 1634.00
22.9866 1591.00
23.2909 2481.00
23.5951 1598.00
23.8994 1655.00
24.2037 1820.00
24.5079 1601.00
24.8122 2100.00
25.1164 2383.00
25.4207 2358.00
25.725 15968.00
26.0292 2356.00
26.3335 1693.00
26.6378 1515.00
26.942 1632.00
27.2463 1673.00
27.5505 2056.00
27.8548 13690.00
28.1591 2080.00
28.4633 1577.00
28.7676 1537.00
29.0718 1837.00
29.3761 5863.00
29.6804 2129.00
29.9846 1577.00
30.2889 1537.00
30.5931 1501.00
30.8974 1412.00
31.2017 1401.00
31.5059 1335.00
31.8102 1273.00
32.1144 1390.00
32.4187 1382.00
32.723 1302.00
33.0272 1232.00
33.3315 1263.00
33.6357 1226.00
33.94 1311.00
34.2443 1246.00
34.5485 1222.00
34.8528 1151.00
35.157 1129.00
35.4613 1450.00
35.7656 1488.00
36.0698 1267.00
36.3741 1187.00
36.6783 1107.00
36.9826 1112.00
37.2869 1110.00
37.5911 1071.00
37.8954 1088.00
38.1996 1893.00
38.5039 1791.00
38.8082 1198.00
39.1124 1129.00
39.4167 1101.00
39.7209 1890.00
40.0252 1659.00
40.3295 1150.00
40.6337 981.00
40.938 1147.00
41.2422 1152.00
41.5465 1067.00
41.8508 1006.00
42.155 1037.00
42.4593 1030.00
42.7635 937.00
43.0678 1119.00
43.3721 1031.00
43.6763 1064.00
43.9806 2245.00
44.2849 1575.00
44.5891 1503.00
44.8934 3490.00
45.1976 1128.00
45.5019 1009.00
45.8062 1020.00
46.1104 1005.00
46.4147 1167.00
46.7189 972.00
47.0232 990.00
47.3275 1040.00
47.6317 1168.00
47.936 2849.00
48.2402 3091.00
48.5445 2713.00
48.8488 2670.00
49.153 1100.00
49.4573 979.00
49.7615 1011.00
50.0658 1087.00
50.3701 1860.00
50.6743 959.00
50.9786 958.00
51.2828 1066.00
51.5871 984.00
51.8914 941.00
52.1956 875.00
52.4999 933.00
52.8041 1284.00
53.1084 1748.00
53.4127 984.00
53.7169 962.00
54.0212 932.00
54.3254 909.00
54.6297 954.00
54.934 1408.00
55.2382 1230.00
55.5425 952.00
55.8467 984.00
56.151 1044.00
56.4553 2798.00
56.7595 1429.00
57.0638 1073.00
57.368 1082.00
57.6723 2860.00
57.9766 1076.00
58.2808 958.00
58.5851 982.00
58.8893 912.00
59.1936 848.00
59.4979 858.00
59.8021 808.00
60.1064 935.00
60.4106 889.00
60.7149 933.00
61.0192 984.00
61.3234 986.00
61.6277 1316.00
61.932 886.00
62.2362 851.00
62.5405 807.00
62.8447 855.00
63.149 894.00
63.4533 855.00
63.7575 883.00
64.0618 1682.00
64.366 1792.00
64.6703 4731.00
64.9745 1716.00
65.2788 2086.00
65.5831 1020.00
65.8873 985.00
66.1916 877.00
66.4959 796.00
66.8001 763.00
67.1044 826.00
67.4086 829.00
67.7129 817.00
68.0172 805.00
68.3214 805.00
68.6257 855.00
68.9299 821.00
69.2342 776.00
69.5385 772.00
69.8427 822.00
70.147 1134.00
70.4512 1236.00
70.7555 842.00
71.0598 810.00
71.364 795.00
71.6683 816.00
71.9725 920.00
72.2768 837.00
72.5811 769.00
72.8853 784.00
73.1896 688.00
73.4938 733.00
73.7981 782.00
74.1024 755.00
74.4066 802.00
74.7109 806.00
75.0151 865.00
75.3194 1296.00
75.6237 1263.00
75.9279 956.00
76.2322 771.00
76.5364 778.00
76.8407 886.00
77.145 1126.00
77.4492 1048.00
77.7535 810.00
78.0577 1028.00
78.362 1667.00
78.6663 1865.00
78.9705 1462.00
79.2748 818.00
79.579 829.00
79.8833 1001.00
80.1876 951.00
80.4918 702.00
80.7961 757.00
81.1003 733.00
81.4046 734.00
81.7089 795.00
82.0131 1076.00
82.3174 1486.00
82.6217 976.00
82.9259 759.00
83.2302 717.00
83.5344 760.00
83.8387 988.00
84.143 968.00
84.4472 759.00
84.7515 793.00
85.0557 889.00
85.36 771.00
85.6643 830.00
85.9685 942.00
86.2728 768.00
86.577 790.00
86.8813 685.00
87.1856 711.00
87.4898 693.00
87.7941 697.00
88.0983 698.00
88.4026 682.00
88.7069 720.00
89.0111 731.00
89.3154 805.00
89.6196 742.00
89.9239 683.00
90.2282 734.00
90.5324 959.00
90.8367 931.00
91.1409 747.00
91.4452 764.00
91.7495 726.00
92.0537 1281.00
92.358 1087.00
92.6622 1034.00
92.9665 862.00
93.2708 850.00
93.575 787.00
93.8793 674.00
94.1835 655.00
94.4878 663.00
94.7921 713.00
95.0963 713.00
95.4006 746.00
95.7048 862.00
96.0091 752.00
96.3134 742.00
96.6176 724.00
96.9219 807.00
97.2261 1076.00
97.5304 923.00
97.8347 749.00
98.1389 807.00
98.4432 995.00
98.7474 821.00
99.0517 826.00
99.356 1155.00
99.6602 917.00
99.9645 744.00
100.095 653.00

File: NSC_81.xy
9.903433 3037.00
10.2077 2905.00
10.512 2706.00
10.8162 2653.00
11.1205 2589.00
11.4247 2532.00
11.729 2403.00
12.0333 2477.00
12.3375 2292.00
12.6418 2268.00
12.946 2199.00
13.2503 2178.00
13.5546 2159.00
13.8588 2481.00
14.1631 3044.00
14.4673 2123.00
14.7716 2030.00
15.0759 1946.00
15.3801 2000.00
15.6844 1998.00
15.9886 1977.00
16.2929 1961.00
16.5972 2043.00
16.9014 1859.00
17.2057 1775.00
17.5099 1864.00
17.8142 1863.00
18.1185 1789.00
18.4227 1773.00
18.727 1766.00
19.0312 1768.00
19.3355 2129.00
19.6398 4384.00
19.944 3758.00
20.2483 4670.00
20.5525 1927.00
20.8568 1690.00
21.1611 1696.00
21.4653 1671.00
21.7696 1691.00
22.0738 1655.00
22.3781 1609.00
22.6824 1696.00
22.9866 1740.00
23.2909 4250.00
23.5951 7209.00
23.8994 2085.00
24.2037 2394.00
24.5079 1711.00
24.8122 1635.00
25.1164 1527.00
25.4207 1461.00
25.725 1481.00
26.0292 1512.00
26.3335 1487.00
26.6378 1418.00
26.942 1367.00
27.2463 1440.00
27.5505 1491.00
27.8548 1480.00
28.1591 2631.00
28.4633 3446.00
28.7676 1583.00
29.0718 1300.00
29.3761 1393.00
29.6804 1286.00
29.9846 1281.00
30.2889 1362.00
30.5931 1469.00
30.8974 1410.00
31.2017 4556.00
31.5059 5626.00
31.8102 4709.00
32.1144 1713.00
32.4187 1447.00
32.723 1321.00
33.0272 1208.00
33.3315 1222.00
33.6357 1185.00
33.94 1177.00
34.2443 1191.00
34.5485 1219.00
34.8528 1538.00
35.157 2736.00
35.4613 4258.00
35.7656 1350.00
36.0698 1103.00
36.3741 1162.00
36.6783 1066.00
36.9826 973.00
37.2869 1049.00
37.5911 1064.00
37.8954 1007.00
38.1996 943.00
38.5039 963.00
38.8082 991.00
39.1124 1041.00
39.4167 997.00
39.7209 1079.00
40.0252 1125.00
40.3295 1077.00
40.6337 1099.00
40.938 1084.00
41.2422 1086.00
41.5465 1238.00
41.8508 1138.00
42.155 1271.00
42.4593 1189.00
42.7635 1493.00
43.0678 1834.00
43.3721 1154.00
43.6763 1130.00
43.9806 992.00
44.2849 967.00
44.5891 988.00
44.8934 1336.00
45.1976 1652.00
45.5019 1409.00
45.8062 1613.00
46.1104 1329.00
46.4147 964.00
46.7189 1067.00
47.0232 1188.00
47.3275 1016.00
47.6317 1359.00
47.936 2454.00
48.2402 2520.00
48.5445 1745.00
48.8488 1063.00
49.153 973.00
49.4573 1009.00
49.7615 1121.00
50.0658 985.00
50.3701 915.00
50.6743 891.00
50.9786 923.00
51.2828 1177.00
51.5871 1756.00
51.8914 1459.00
52.1956 1667.00
52.4999 1343.00
52.8041 1041.00
53.1084 886.00
53.4127 923.00
53.7169 958.00
54.0212 984.00
54.3254 1240.00
54.6297 1154.00
54.934 1511.00
55.2382 2421.00
55.5425 1581.00
55.8467 924.00
56.151 921.00
56.4553 980.00
56.7595 1101.00
57.0638 971.00
57.368 868.00
57.6723 801.00
57.9766 813.00
58.2808 879.00
58.5851 1032.00
58.8893 977.00
59.1936 872.00
59.4979 822.00
59.8021 972.00
60.1064 1283.00
60.4106 1080.00
60.7149 1266.00
61.0192 1676.00
61.3234 1459.00
61.6277 1064.00
61.932 836.00
62.2362 959.00
62.5405 1066.00
62.8447 1123.00
63.149 1126.00
63.4533 1406.00
63.7575 1153.00
64.0618 1185.00
64.366 990.00
64.6703 904.00
64.9745 863.00
65.2788 839.00
65.5831 830.00
65.8873 844.00
66.1916 854.00
66.4959 897.00
66.8001 960.00
67.1044 1059.00
67.4086 972.00
67.7129 947.00
68.0172 985.00
68.3214 954.00
68.6257 980.00
68.9299 1031.00
69.2342 811.00
69.5385 713.00
69.8427 697.00
70.147 680.00
70.4512 787.00
70.7555 928.00
71.0598 1147.00
71.364 955.00
71.6683 767.00
71.9725 775.00
72.2768 892.00
72.5811 759.00
72.8853 726.00
73.1896 701.00
73.4938 676.00
73.7981 744.00
74.1024 836.00
74.4066 849.00
74.7109 1037.00
75.0151 1135.00
75.3194 927.00
75.6237 866.00
75.9279 849.00
76.2322 845.00
76.5364 732.00
76.8407 790.00
77.145 695.00
77.4492 737.00
77.7535 714.00
78.0577 766.00
78.362 741.00
78.6663 853.00
78.9705 726.00
79.2748 742.00
79.579 692.00
79.8833 719.00
80.1876 642.00
80.4918 708.00
80.7961 665.00
81.1003 731.00
81.4046 840.00
81.7089 718.00
82.0131 748.00
82.3174 727.00
82.6217 704.00
82.9259 796.00
83.2302 813.00
83.5344 942.00
83.8387 835.00
84.143 692.00
84.4472 664.00
84.7515 816.00
85.0557 781.00
85.36 812.00
85.6643 766.00
85.9685 681.00
86.2728 679.00
86.577 684.00
86.8813 747.00
87.1856 666.00
87.4898 714.00
87.7941 703.00
88.0983 704.00
88.4026 771.00
88.7069 759.00
89.0111 719.00
89.3154 832.00
89.6196 876.00
89.9239 828.00
90.2282 820.00
90.5324 848.00
90.8367 770.00
91.1409 667.00
91.4452 721.00
91.7495 738.00
92.0537 728.00
92.358 697.00
92.6622 693.00
92.9665 614.00
93.2708 671.00
93.575 651.00
93.8793 653.00
94.1835 670.00
94.4878 709.00
94.7921 701.00
95.0963 722.00
95.4006 772.00
95.7048 809.00
96.0091 791.00
96.3134 768.00
96.6176 787.00
96.9219 773.00
97.2261 691.00
97.5304 651.00
97.8347 724.00
98.1389 658.00
98.4432 657.00
98.7474 674.00
99.0517 705.00
99.356 674.00
99.6602 688.00
99.9645 730.00
100.095 657.00

File: NSC_82.xy
9.903433 2762.00
10.2077 2617.00
10.512 2585.00
10.8162 2581.00
11.1205 2465.00
11.4247 2409.00
11.729 2359.00
12.0333 2254.00
12.3375 2257.00
12.6418 2094.00
12.946 2140.00
13.2503 2064.00
13.5546 2057.00
13.8588 2047.00
14.1631 2631.00
14.4673 2480.00
14.7716 1992.00
15.0759 1902.00
15.3801 1849.00
15.6844 1843.00
15.9886 1793.00
16.2929 1798.00
16.5972 1814.00
16.9014 1796.00
17.2057 1716.00
17.5099 1765.00
17.8142 1708.00
18.1185 1617.00
18.4227 1673.00
18.727 1673.00
19.0312 1720.00
19.3355 1782.00
19.6398 2802.00
19.944 3622.00
20.2483 2893.00
20.5525 4618.00
20.8568 2980.00
21.1611 1647.00
21.4653 1527.00
21.7696 1633.00
22.0738 1609.00
22.3781 1571.00
22.6824 1508.00
22.9866 1498.00
23.2909 1804.00
23.5951 3884.00
23.8994 6195.00
24.2037 3581.00
24.5079 1706.00
24.8122 1527.00
25.1164 1566.00
25.4207 1649.00
25.725 1419.00
26.0292 1404.00
26.3335 1441.00
26.6378 1350.00
26.942 1427.00
27.2463 1291.00
27.5505 1382.00
27.8548 1339.00
28.1591 1807.00
28.4633 2389.00
28.7676 2924.00
29.0718 2266.00
29.3761 1422.00
29.6804 1332.00
29.9846 1262.00
30.2889 1275.00
30.5931 1255.00
30.8974 1291.00
31.2017 1817.00
31.5059 3474.00
31.8102 4380.00
32.1144 3405.00
32.4187 1764.00
32.723 1308.00
33.0272 1223.00
33.3315 1196.00
33.6357 1201.00
33.94 1263.00
34.2443 1353.00
34.5485 1262.00
34.8528 1219.00
35.157 1370.00
35.4613 1681.00
35.7656 2224.00
36.0698 2219.00
36.3741 1850.00
36.6783 1238.00
36.9826 1087.00
37.2869 1099.00
37.5911 1102.00
37.8954 1090.00
38.1996 1071.00
38.5039 1017.00
38.8082 1019.00
39.1124 981.00
39.4167 916.00
39.7209 1049.00
40.0252 1092.00
40.3295 1183.00
40.6337 1138.00
40.938 1138.00
41.2422 1102.00
41.5465 1154.00
41.8508 1207.00
42.155 1251.00
42.4593 1203.00
42.7635 1115.00
43.0678 1112.00
43.3721 1155.00
43.6763 1285.00
43.9806 1278.00
44.2849 1145.00
44.5891 1043.00
44.8934 1072.00
45.1976 1187.00
45.5019 1543.00
45.8062 1494.00
46.1104 1482.00
46.4147 1346.00
46.7189 1298.00
47.0232 1216.00
47.3275 1168.00
47.6317 1103.00
47.936 1136.00
48.2402 1308.00
48.5445 1710.00
48.8488 1754.00
49.153 1814.00
49.4573 1402.00
49.7615 1123.00
50.0658 1020.00
50.3701 1085.00
50.6743 1092.00
50.9786 932.00
51.2828 1078.00
51.5871 1021.00
51.8914 1293.00
52.1956 1388.00
52.4999 1365.00
52.8041 1295.00
53.1084 1131.00
53.4127 1010.00
53.7169 999.00
54.0212 928.00
54.3254 950.00
54.6297 1002.00
54.934 1129.00
55.2382 1245.00
55.5425 1460.00
55.8467 1614.00
56.151 1691.00
56.4553 1560.00
56.7595 1539.00
57.0638 1297.00
57.368 1072.00
57.6723 1095.00
57.9766 1036.00
58.2808 991.00
58.5851 1022.00
58.8893 1042.00
59.1936 1030.00
59.4979 1071.00
59.8021 1065.00
60.1064 1089.00
60.4106 1106.00
60.7149 1076.00
61.0192 1116.00
61.3234 1157.00
61.6277 1288.00
61.932 1270.00
62.2362 1187.00
62.5405 1202.00
62.8447 1179.00
63.149 1109.00
63.4533 1088.00
63.7575 1097.00
64.0618 1209.00
64.366 1096.00
64.6703 1156.00
64.9745 1129.00
65.2788 1126.00
65.5831 1029.00
65.8873 993.00
66.1916 980.00
66.4959 969.00
66.8001 991.00
67.1044 971.00
67.4086 976.00
67.7129 964.00
68.0172 984.00
68.3214 1015.00
68.6257 950.00
68.9299 971.00
69.2342 866.00
69.5385 941.00
69.8427 814.00
70.147 867.00
70.4512 841.00
70.7555 815.00
71.0598 880.00
71.364 790.00
71.6683 865.00
71.9725 965.00
72.2768 920.00
72.5811 911.00
72.8853 909.00
73.1896 889.00
73.4938 800.00
73.7981 819.00
74.1024 802.00
74.4066 840.00
74.7109 874.00
75.0151 928.00
75.3194 921.00
75.6237 921.00
75.9279 1009.00
76.2322 1029.00
76.5364 969.00
76.8407 939.00
77.145 960.00
77.4492 958.00
77.7535 875.00
78.0577 829.00
78.362 811.00
78.6663 770.00
78.9705 873.00
79.2748 831.00
79.579 782.00
79.8833 782.00
80.1876 893.00
80.4918 840.00
80.7961 820.00
81.1003 873.00
81.4046 862.00
81.7089 763.00
82.0131 811.00
82.3174 854.00
82.6217 759.00
82.9259 803.00
83.2302 846.00
83.5344 807.00
83.8387 763.00
84.143 717.00
84.4472 831.00
84.7515 830.00
85.0557 848.00
85.36 836.00
85.6643 839.00
85.9685 874.00
86.2728 837.00
86.577 849.00
86.8813 874.00
87.1856 800.00
87.4898 887.00
87.7941 895.00
88.0983 818.00
88.4026 782.00
88.7069 795.00
89.0111 780.00
89.3154 820.00
89.6196 778.00
89.9239 745.00
90.2282 825.00
90.5324 834.00
90.8367 844.00
91.1409 858.00
91.4452 817.00
91.7495 828.00
92.0537 824.00
92.358 792.00
92.6622 781.00
92.9665 769.00
93.2708 831.00
93.575 765.00
93.8793 878.00
94.1835 814.00
94.4878 739.00
94.7921 833.00
95.0963 743.00
95.4006 784.00
95.7048 802.00
96.0091 782.00
96.3134 797.00
96.6176 817.00
96.9219 853.00
97.2261 861.00
97.5304 812.00
97.8347 859.00
98.1389 815.00
98.4432 815.00
98.7474 811.00
99.0517 781.00
99.356 782.00
99.6602 788.00
99.9645 756.00
100.095 741.00

File: NSC_83.xy
9.903433 2776.00
10.2077 2640.00
10.512 2637.00
10.8162 2598.00
11.1205 2390.00
11.4247 2304.00
11.729 2133.00
12.0333 2100.00
12.3375 2150.00
12.6418 1967.00
12.946 2008.00
13.2503 1888.00
13.5546 1818.00
13.8588 1925.00
14.1631 1923.00
14.4673 1739.00
14.7716 1696.00
15.0759 1691.00
15.3801 1620.00
15.6844 1630.00
15.9886 1641.00
16.2929 1568.00
16.5972 1579.00
16.9014 1578.00
17.2057 1502.00
17.5099 1493.00
17.8142 1460.00
18.1185 1421.00
18.4227 1371.00
18.727 1419.00
19.0312 1381.00
19.3355 1427.00
19.6398 1498.00
19.944 1737.00
20.2483 2427.00
20.5525 1730.00
20.8568 1773.00
21.1611 2341.00
21.4653 2965.00
21.7696 1596.00
22.0738 1306.00
22.3781 1277.00
22.6824 1474.00
22.9866 1521.00
23.2909 1808.00
23.5951 2388.00
23.8994 3436.00
24.2037 1482.00
24.5079 1280.00
24.8122 2419.00
25.1164 2405.00
25.4207 1376.00
25.725 1169.00
26.0292 1183.00
26.3335 1159.00
26.6378 1296.00
26.942 1724.00
27.2463 1556.00
27.5505 2441.00
27.8548 1181.00
28.1591 1173.00
28.4633 1217.00
28.7676 1550.00
29.0718 1221.00
29.3761 1212.00
29.6804 1874.00
29.9846 1912.00
30.2889 1251.00
30.5931 1065.00
30.8974 1071.00
31.2017 1447.00
31.5059 2686.00
31.8102 1258.00
32.1144 2198.00
32.4187 5073.00
32.723 1640.00
33.0272 1034.00
33.3315 966.00
33.6357 957.00
33.94 927.00
34.2443 1118.00
34.5485 1648.00
34.8528 1055.00
35.157 1319.00
35.4613 3175.00
35.7656 1226.00
36.0698 920.00
36.3741 836.00
36.6783 749.00
36.9826 781.00
37.2869 845.00
37.5911 863.00
37.8954 699.00
38.1996 690.00
38.5039 830.00
38.8082 834.00
39.1124 721.00
39.4167 629.00
39.7209 709.00
40.0252 744.00
40.3295 641.00
40.6337 672.00
40.938 717.00
41.2422 1034.00
41.5465 787.00
41.8508 714.00
42.155 781.00
42.4593 735.00
42.7635 796.00
43.0678 2070.00
43.3721 1269.00
43.6763 897.00
43.9806 1095.00
44.2849 758.00
44.5891 664.00
44.8934 554.00
45.1976 603.00
45.5019 791.00
45.8062 776.00
46.1104 738.00
46.4147 1190.00
46.7189 760.00
47.0232 558.00
47.3275 613.00
47.6317 583.00
47.936 711.00
48.2402 861.00
48.5445 1076.00
48.8488 1818.00
49.153 838.00
49.4573 555.00
49.7615 535.00
50.0658 547.00
50.3701 520.00
50.6743 559.00
50.9786 823.00
51.2828 1032.00
51.5871 771.00
51.8914 546.00
52.1956 537.00
52.4999 648.00
52.8041 1046.00
53.1084 760.00
53.4127 828.00
53.7169 641.00
54.0212 541.00
54.3254 769.00
54.6297 658.00
54.934 554.00
55.2382 666.00
55.5425 935.00
55.8467 620.00
56.151 532.00
56.4553 511.00
56.7595 576.00
57.0638 718.00
57.368 668.00
57.6723 538.00
57.9766 532.00
58.2808 511.00
58.5851 528.00
58.8893 578.00
59.1936 556.00
59.4979 493.00
59.8021 641.00
60.1064 536.00
60.4106 569.00
60.7149 494.00
61.0192 568.00
61.3234 599.00
61.6277 959.00
61.932 975.00
62.2362 658.00
62.5405 482.00
62.8447 509.00
63.149 544.00
63.4533 588.00
63.7575 804.00
64.0618 810.00
64.366 606.00
64.6703 536.00
64.9745 528.00
65.2788 685.00
65.5831 633.00
65.8873 666.00
66.1916 560.00
66.4959 481.00
66.8001 539.00
67.1044 474.00
67.4086 411.00
67.7129 446.00
68.0172 466.00
68.3214 430.00
68.6257 492.00
68.9299 720.00
69.2342 774.00
69.5385 666.00
69.8427 515.00
70.147 559.00
70.4512 461.00
70.7555 395.00
71.0598 381.00
71.364 528.00
71.6683 447.00
71.9725 439.00
72.2768 463.00
72.5811 517.00
72.8853 592.00
73.1896 532.00
73.4938 414.00
73.7981 398.00
74.1024 397.00
74.4066 423.00
74.7109 457.00
75.0151 613.00
75.3194 564.00
75.6237 415.00
75.9279 387.00
76.2322 410.00
76.5364 498.00
76.8407 462.00
77.145 449.00
77.4492 368.00
77.7535 384.00
78.0577 319.00
78.362 321.00
78.6663 388.00
78.9705 351.00
79.2748 353.00
79.579 366.00
79.8833 368.00
80.1876 455.00
80.4918 405.00
80.7961 403.00
81.1003 407.00
81.4046 407.00
81.7089 386.00
82.0131 378.00
82.3174 368.00
82.6217 350.00
82.9259 341.00
83.2302 376.00
83.5344 425.00
83.8387 475.00
84.143 495.00
84.4472 476.00
84.7515 458.00
85.0557 356.00
85.36 329.00
85.6643 396.00
85.9685 433.00
86.2728 399.00
86.577 374.00
86.8813 331.00
87.1856 371.00
87.4898 377.00
87.7941 365.00
88.0983 325.00
88.4026 342.00
88.7069 337.00
89.0111 313.00
89.3154 292.00
89.6196 286.00
89.9239 311.00
90.2282 331.00
90.5324 321.00
90.8367 383.00
91.1409 398.00
91.4452 416.00
91.7495 372.00
92.0537 331.00
92.358 299.00
92.6622 318.00
92.9665 345.00
93.2708 337.00
93.575 325.00
93.8793 323.00
94.1835 322.00
94.4878 404.00
94.7921 387.00
95.0963 399.00
95.4006 357.00
95.7048 341.00
96.0091 318.00
96.3134 355.00
96.6176 336.00
96.9219 349.00
97.2261 353.00
97.5304 312.00
97.8347 380.00
98.1389 356.00
98.4432 342.00
98.7474 318.00
99.0517 311.00
99.356 319.00
99.6602 302.00
99.9645 300.00
100.095 340.00