Folder: alab-pipeline/data/xrd_creation/results (part 92)

File: PG_1946-1.xy
9.903433 2585.00
10.2077 2390.00
10.512 2403.00
10.8162 2278.00
11.1205 2242.00
11.4247 2364.00
11.729 2440.00
12.0333 2045.00
12.3375 1894.00
12.6418 1871.00
12.946 1769.00
13.2503 1740.00
13.5546 1592.00
13.8588 1657.00
14.1631 1637.00
14.4673 1546.00
14.7716 1462.00
15.0759 1492.00
15.3801 1487.00
15.6844 1457.00
15.9886 1476.00
16.2929 1422.00
16.5972 1375.00
16.9014 1380.00
17.2057 1337.00
17.5099 1287.00
17.8142 1286.00
18.1185 1272.00
18.4227 1208.00
18.727 1206.00
19.0312 1139.00
19.3355 1141.00
19.6398 1120.00
19.944 1131.00
20.2483 1069.00
20.5525 1105.00
20.8568 999.00
21.1611 1039.00
21.4653 1047.00
21.7696 1003.00
22.0738 1001.00
22.3781 1002.00
22.6824 940.00
22.9866 977.00
23.2909 1033.00
23.5951 928.00
23.8994 886.00
24.2037 944.00
24.5079 947.00
24.8122 952.00
25.1164 1111.00
25.4207 3453.00
25.725 5155.00
26.0292 1299.00
26.3335 912.00
26.6378 800.00
26.942 851.00
27.2463 889.00
27.5505 825.00
27.8548 838.00
28.1591 776.00
28.4633 808.00
28.7676 887.00
29.0718 1038.00
29.3761 1040.00
29.6804 863.00
29.9846 1399.00
30.2889 853.00
30.5931 795.00
30.8974 1427.00
31.2017 1651.00
31.5059 776.00
31.8102 1225.00
32.1144 928.00
32.4187 1461.00
32.723 1099.00
33.0272 1085.00
33.3315 637.00
33.6357 671.00
33.94 789.00
34.2443 574.00
34.5485 1120.00
34.8528 604.00
35.157 633.00
35.4613 686.00
35.7656 581.00
36.0698 625.00
36.3741 1182.00
36.6783 661.00
36.9826 586.00
37.2869 1307.00
37.5911 607.00
37.8954 860.00
38.1996 2570.00
38.5039 954.00
38.8082 1564.00
39.1124 1785.00
39.4167 796.00
39.7209 532.00
40.0252 717.00
40.3295 568.00
40.6337 558.00
40.938 443.00
41.2422 489.00
41.5465 816.00
41.8508 576.00
42.155 517.00
42.4593 437.00
42.7635 430.00
43.0678 415.00
43.3721 431.00
43.6763 667.00
43.9806 421.00
44.2849 362.00
44.5891 419.00
44.8934 406.00
45.1976 666.00
45.5019 407.00
45.8062 407.00
46.1104 397.00
46.4147 517.00
46.7189 441.00
47.0232 464.00
47.3275 392.00
47.6317 866.00
47.936 649.00
48.2402 2863.00
48.5445 853.00
48.8488 464.00
49.153 406.00
49.4573 402.00
49.7615 640.00
50.0658 521.00
50.3701 349.00
50.6743 341.00
50.9786 398.00
51.2828 315.00
51.5871 396.00
51.8914 442.00
52.1956 358.00
52.4999 418.00
52.8041 503.00
53.1084 361.00
53.4127 362.00
53.7169 360.00
54.0212 779.00
54.3254 1684.00
54.6297 486.00
54.934 430.00
55.2382 1397.00
55.5425 1047.00
55.8467 477.00
56.151 369.00
56.4553 366.00
56.7595 325.00
57.0638 309.00
57.368 486.00
57.6723 456.00
57.9766 400.00
58.2808 333.00
58.5851 330.00
58.8893 349.00
59.1936 285.00
59.4979 287.00
59.8021 294.00
60.1064 321.00
60.4106 287.00
60.7149 316.00
61.0192 279.00
61.3234 312.00
61.6277 289.00
61.932 319.00
62.2362 384.00
62.5405 604.00
62.8447 1012.00
63.149 1236.00
63.4533 374.00
63.7575 336.00
64.0618 263.00
64.366 270.00
64.6703 291.00
64.9745 278.00
65.2788 297.00
65.5831 269.00
65.8873 272.00
66.1916 273.00
66.4959 363.00
66.8001 261.00
67.1044 271.00
67.4086 286.00
67.7129 331.00
68.0172 296.00
68.3214 311.00
68.6257 309.00
68.9299 634.00
69.2342 758.00
69.5385 328.00
69.8427 312.00
70.147 295.00
70.4512 794.00
70.7555 715.00
71.0598 355.00
71.364 305.00
71.6683 221.00
71.9725 245.00
72.2768 270.00
72.5811 215.00
72.8853 304.00
73.1896 242.00
73.4938 232.00
73.7981 214.00
74.1024 246.00
74.4066 267.00
74.7109 246.00
75.0151 314.00
75.3194 1507.00
75.6237 436.00
75.9279 287.00
76.2322 579.00
76.5364 362.00
76.8407 230.00
77.145 208.00
77.4492 205.00
77.7535 220.00
78.0577 256.00
78.362 250.00
78.6663 243.00
78.9705 206.00
79.2748 225.00
79.579 239.00
79.8833 196.00
80.1876 232.00
80.4918 232.00
80.7961 261.00
81.1003 295.00
81.4046 258.00
81.7089 232.00
82.0131 284.00
82.3174 346.00
82.6217 334.00
82.9259 832.00
83.2302 486.00
83.5344 354.00
83.8387 244.00
84.143 230.00
84.4472 219.00
84.7515 204.00
85.0557 224.00
85.36 202.00
85.6643 238.00
85.9685 233.00
86.2728 204.00
86.577 222.00
86.8813 228.00
87.1856 198.00
87.4898 183.00
87.7941 211.00
88.0983 209.00
88.4026 209.00
88.7069 210.00
89.0111 215.00
89.3154 193.00
89.6196 228.00
89.9239 203.00
90.2282 186.00
90.5324 195.00
90.8367 183.00
91.1409 186.00
91.4452 182.00
91.7495 195.00
92.0537 199.00
92.358 215.00
92.6622 204.00
92.9665 221.00
93.2708 231.00
93.575 239.00
93.8793 208.00
94.1835 301.00
94.4878 399.00
94.7921 284.00
95.0963 229.00
95.4006 499.00
95.7048 373.00
96.0091 231.00
96.3134 207.00
96.6176 207.00
96.9219 202.00
97.2261 170.00
97.5304 179.00
97.8347 189.00
98.1389 199.00
98.4432 312.00
98.7474 250.00
99.0517 212.00
99.356 230.00
99.6602 206.00
99.9645 314.00
100.095 309.00

File: PG_1947-1.xy
9.903433 2624.00
10.2077 2547.00
10.512 2292.00
10.8162 2334.00
11.1205 2202.00
11.4247 2126.00
11.729 2106.00
12.0333 1939.00
12.3375 1960.00
12.6418 1836.00
12.946 1743.00
13.2503 1717.00
13.5546 1589.00
13.8588 1566.00
14.1631 1567.00
14.4673 1549.00
14.7716 1521.00
15.0759 1500.00
15.3801 1452.00
15.6844 1380.00
15.9886 1351.00
16.2929 1457.00
16.5972 1601.00
16.9014 1454.00
17.2057 1876.00
17.5099 1627.00
17.8142 1236.00
18.1185 1205.00
18.4227 1215.00
18.727 1129.00
19.0312 1182.00
19.3355 1155.00
19.6398 1089.00
19.944 1019.00
20.2483 999.00
20.5525 1074.00
20.8568 1038.00
21.1611 963.00
21.4653 917.00
21.7696 1035.00
22.0738 955.00
22.3781 925.00
22.6824 1140.00
22.9866 2334.00
23.2909 918.00
23.5951 973.00
23.8994 1260.00
24.2037 1176.00
24.5079 1156.00
24.8122 1068.00
25.1164 923.00
25.4207 849.00
25.725 818.00
26.0292 851.00
26.3335 726.00
26.6378 822.00
26.942 781.00
27.2463 686.00
27.5505 709.00
27.8548 785.00
28.1591 891.00
28.4633 2234.00
28.7676 7106.00
29.0718 1261.00
29.3761 790.00
29.6804 712.00
29.9846 760.00
30.2889 923.00
30.5931 743.00
30.8974 666.00
31.2017 826.00
31.5059 1770.00
31.8102 2735.00
32.1144 866.00
32.4187 594.00
32.723 635.00
33.0272 594.00
33.3315 981.00
33.6357 683.00
33.94 663.00
34.2443 941.00
34.5485 1638.00
34.8528 2079.00
35.157 669.00
35.4613 643.00
35.7656 544.00
36.0698 566.00
36.3741 588.00
36.6783 571.00
36.9826 1065.00
37.2869 888.00
37.5911 636.00
37.8954 877.00
38.1996 552.00
38.5039 496.00
38.8082 635.00
39.1124 657.00
39.4167 1507.00
39.7209 517.00
40.0252 450.00
40.3295 434.00
40.6337 485.00
40.938 532.00
41.2422 547.00
41.5465 465.00
41.8508 391.00
42.155 497.00
42.4593 411.00
42.7635 476.00
43.0678 500.00
43.3721 555.00
43.6763 457.00
43.9806 409.00
44.2849 472.00
44.5891 506.00
44.8934 443.00
45.1976 459.00
45.5019 473.00
45.8062 599.00
46.1104 446.00
46.4147 685.00
46.7189 1287.00
47.0232 431.00
47.3275 454.00
47.6317 840.00
47.936 493.00
48.2402 439.00
48.5445 703.00
48.8488 522.00
49.153 452.00
49.4573 387.00
49.7615 400.00
50.0658 429.00
50.3701 398.00
50.6743 377.00
50.9786 443.00
51.2828 480.00
51.5871 678.00
51.8914 510.00
52.1956 417.00
52.4999 420.00
52.8041 426.00
53.1084 378.00
53.4127 398.00
53.7169 454.00
54.0212 591.00
54.3254 1213.00
54.6297 861.00
54.934 360.00
55.2382 355.00
55.5425 411.00
55.8467 355.00
56.151 521.00
56.4553 483.00
56.7595 527.00
57.0638 382.00
57.368 353.00
57.6723 404.00
57.9766 577.00
58.2808 473.00
58.5851 1020.00
58.8893 500.00
59.1936 526.00
59.4979 658.00
59.8021 624.00
60.1064 372.00
60.4106 369.00
60.7149 374.00
61.0192 508.00
61.3234 527.00
61.6277 410.00
61.932 569.00
62.2362 371.00
62.5405 381.00
62.8447 391.00
63.149 500.00
63.4533 394.00
63.7575 514.00
64.0618 823.00
64.366 359.00
64.6703 340.00
64.9745 329.00
65.2788 370.00
65.5831 451.00
65.8873 611.00
66.1916 335.00
66.4959 493.00
66.8001 372.00
67.1044 317.00
67.4086 281.00
67.7129 329.00
68.0172 300.00
68.3214 333.00
68.6257 414.00
68.9299 539.00
69.2342 345.00
69.5385 294.00
69.8427 338.00
70.147 323.00
70.4512 279.00
70.7555 322.00
71.0598 496.00
71.364 349.00
71.6683 327.00
71.9725 539.00
72.2768 609.00
72.5811 345.00
72.8853 311.00
73.1896 345.00
73.4938 332.00
73.7981 358.00
74.1024 332.00
74.4066 323.00
74.7109 331.00
75.0151 331.00
75.3194 328.00
75.6237 333.00
75.9279 359.00
76.2322 329.00
76.5364 540.00
76.8407 624.00
77.145 343.00
77.4492 307.00
77.7535 318.00
78.0577 297.00
78.362 318.00
78.6663 408.00
78.9705 348.00
79.2748 291.00
79.579 307.00
79.8833 388.00
80.1876 356.00
80.4918 307.00
80.7961 325.00
81.1003 353.00
81.4046 332.00
81.7089 325.00
82.0131 340.00
82.3174 394.00
82.6217 452.00
82.9259 327.00
83.2302 331.00
83.5344 314.00
83.8387 321.00
84.143 411.00
84.4472 341.00
84.7515 349.00
85.0557 388.00
85.36 320.00
85.6643 317.00
85.9685 353.00
86.2728 304.00
86.577 264.00
86.8813 293.00
87.1856 275.00
87.4898 302.00
87.7941 311.00
88.0983 319.00
88.4026 301.00
88.7069 301.00
89.0111 367.00
89.3154 364.00
89.6196 334.00
89.9239 358.00
90.2282 556.00
90.5324 399.00
90.8367 309.00
91.1409 297.00
91.4452 297.00
91.7495 314.00
92.0537 300.00
92.358 312.00
92.6622 293.00
92.9665 325.00
93.2708 315.00
93.575 309.00
93.8793 309.00
94.1835 289.00
94.4878 279.00
94.7921 312.00
95.0963 342.00
95.4006 294.00
95.7048 277.00
96.0091 295.00
96.3134 284.00
96.6176 280.00
96.9219 248.00
97.2261 279.00
97.5304 295.00
97.8347 286.00
98.1389 286.00
98.4432 291.00
98.7474 291.00
99.0517 344.00
99.356 352.00
99.6602 337.00
99.9645 272.00
100.095 287.00

File: PG_1948-1.xy
9.903433 2421.00
10.2077 2362.00
10.512 2291.00
10.8162 2191.00
11.1205 2141.00
11.4247 1989.00
11.729 1953.00
12.0333 1881.00
12.3375 1773.00
12.6418 1642.00
12.946 1603.00
13.2503 1597.00
13.5546 1506.00
13.8588 1424.00
14.1631 1405.00
14.4673 1355.00
14.7716 1381.00
15.0759 1330.00
15.3801 1296.00
15.6844 1222.00
15.9886 1218.00
16.2929 1218.00
16.5972 1179.00
16.9014 1216.00
17.2057 1094.00
17.5099 1081.00
17.8142 1115.00
18.1185 1094.00
18.4227 1073.00
18.727 1069.00
19.0312 960.00
19.3355 938.00
19.6398 951.00
19.944 896.00
20.2483 913.00
20.5525 908.00
20.8568 814.00
21.1611 843.00
21.4653 856.00
21.7696 843.00
22.0738 843.00
22.3781 818.00
22.6824 765.00
22.9866 759.00
23.2909 786.00
23.5951 799.00
23.8994 751.00
24.2037 720.00
24.5079 694.00
24.8122 692.00
25.1164 656.00
25.4207 670.00
25.725 653.00
26.0292 659.00
26.3335 700.00
26.6378 652.00
26.942 648.00
27.2463 618.00
27.5505 639.00
27.8548 582.00
28.1591 686.00
28.4633 906.00
28.7676 586.00
29.0718 606.00
29.3761 585.00
29.6804 530.00
29.9846 570.00
30.2889 543.00
30.5931 549.00
30.8974 529.00
31.2017 651.00
31.5059 457.00
31.8102 495.00
32.1144 492.00
32.4187 496.00
32.723 510.00
33.0272 525.00
33.3315 455.00
33.6357 471.00
33.94 497.00
34.2443 454.00
34.5485 490.00
34.8528 426.00
35.157 423.00
35.4613 449.00
35.7656 439.00
36.0698 437.00
36.3741 435.00
36.6783 444.00
36.9826 377.00
37.2869 413.00
37.5911 412.00
37.8954 405.00
38.1996 390.00
38.5039 353.00
38.8082 380.00
39.1124 371.00
39.4167 356.00
39.7209 376.00
40.0252 325.00
40.3295 342.00
40.6337 338.00
40.938 325.00
41.2422 320.00
41.5465 346.00
41.8508 336.00
42.155 346.00
42.4593 305.00
42.7635 311.00
43.0678 364.00
43.3721 345.00
43.6763 294.00
43.9806 279.00
44.2849 299.00
44.5891 271.00
44.8934 318.00
45.1976 318.00
45.5019 301.00
45.8062 295.00
46.1104 297.00
46.4147 285.00
46.7189 303.00
47.0232 278.00
47.3275 299.00
47.6317 292.00
47.936 289.00
48.2402 307.00
48.5445 289.00
48.8488 316.00
49.153 310.00
49.4573 293.00
49.7615 278.00
50.0658 226.00
50.3701 280.00
50.6743 304.00
50.9786 270.00
51.2828 256.00
51.5871 283.00
51.8914 239.00
52.1956 265.00
52.4999 267.00
52.8041 243.00
53.1084 219.00
53.4127 241.00
53.7169 268.00
54.0212 229.00
54.3254 280.00
54.6297 258.00
54.934 219.00
55.2382 257.00
55.5425 257.00
55.8467 216.00
56.151 244.00
56.4553 248.00
56.7595 246.00
57.0638 228.00
57.368 222.00
57.6723 233.00
57.9766 242.00
58.2808 215.00
58.5851 216.00
58.8893 211.00
59.1936 229.00
59.4979 198.00
59.8021 205.00
60.1064 194.00
60.4106 209.00
60.7149 224.00
61.0192 193.00
61.3234 200.00
61.6277 208.00
61.932 164.00
62.2362 212.00
62.5405 222.00
62.8447 239.00
63.149 195.00
63.4533 171.00
63.7575 181.00
64.0618 192.00
64.366 195.00
64.6703 205.00
64.9745 178.00
65.2788 200.00
65.5831 187.00
65.8873 179.00
66.1916 205.00
66.4959 163.00
66.8001 203.00
67.1044 194.00
67.4086 202.00
67.7129 185.00
68.0172 172.00
68.3214 172.00
68.6257 177.00
68.9299 190.00
69.2342 189.00
69.5385 205.00
69.8427 179.00
70.147 154.00
70.4512 187.00
70.7555 201.00
71.0598 204.00
71.364 197.00
71.6683 196.00
71.9725 209.00
72.2768 196.00
72.5811 174.00
72.8853 227.00
73.1896 187.00
73.4938 172.00
73.7981 187.00
74.1024 197.00
74.4066 210.00
74.7109 191.00
75.0151 209.00
75.3194 203.00
75.6237 221.00
75.9279 214.00
76.2322 217.00
76.5364 190.00
76.8407 203.00
77.145 202.00
77.4492 198.00
77.7535 204.00
78.0577 198.00
78.362 195.00
78.6663 206.00
78.9705 232.00
79.2748 230.00
79.579 235.00
79.8833 213.00
80.1876 215.00
80.4918 231.00
80.7961 209.00
81.1003 239.00
81.4046 212.00
81.7089 230.00
82.0131 222.00
82.3174 223.00
82.6217 240.00
82.9259 229.00
83.2302 194.00
83.5344 203.00
83.8387 195.00
84.143 226.00
84.4472 202.00
84.7515 196.00
85.0557 230.00
85.36 192.00
85.6643 208.00
85.9685 216.00
86.2728 229.00
86.577 173.00
86.8813 220.00
87.1856 187.00
87.4898 162.00
87.7941 205.00
88.0983 172.00
88.4026 184.00
88.7069 173.00
89.0111 182.00
89.3154 200.00
89.6196 180.00
89.9239 188.00
90.2282 211.00
90.5324 187.00
90.8367 171.00
91.1409 198.00
91.4452 170.00
91.7495 167.00
92.0537 207.00
92.358 182.00
92.6622 167.00
92.9665 178.00
93.2708 181.00
93.575 180.00
93.8793 179.00
94.1835 182.00
94.4878 181.00
94.7921 168.00
95.0963 172.00
95.4006 191.00
95.7048 206.00
96.0091 176.00
96.3134 180.00
96.6176 178.00
96.9219 174.00
97.2261 196.00
97.5304 175.00
97.8347 179.00
98.1389 178.00
98.4432 173.00
98.7474 198.00
99.0517 182.00
99.356 207.00
99.6602 159.00
99.9645 185.00
100.095 172.00

File: PG_1949-1.xy
9.903433 2589.00
10.2077 2428.00
10.512 2351.00
10.8162 2207.00
11.1205 2231.00
11.4247 2067.00
11.729 2084.00
12.0333 2179.00
12.3375 2164.00
12.6418 2780.00
12.946 3486.00
13.2503 2362.00
13.5546 1758.00
13.8588 1541.00
14.1631 1603.00
14.4673 1523.00
14.7716 1663.00
15.0759 1458.00
15.3801 1407.00
15.6844 1590.00
15.9886 1500.00
16.2929 1599.00
16.5972 1591.00
16.9014 1449.00
17.2057 1387.00
17.5099 1361.00
17.8142 1494.00
18.1185 1321.00
18.4227 1255.00
18.727 1485.00
19.0312 1289.00
19.3355 1145.00
19.6398 1993.00
19.944 2011.00
20.2483 1201.00
20.5525 1036.00
20.8568 989.00
21.1611 1022.00
21.4653 1408.00
21.7696 1283.00
22.0738 1078.00
22.3781 1109.00
22.6824 1406.00
22.9866 3138.00
23.2909 1503.00
23.5951 999.00
23.8994 1017.00
24.2037 1053.00
24.5079 1238.00
24.8122 1129.00
25.1164 1077.00
25.4207 1188.00
25.725 1166.00
26.0292 1456.00
26.3335 2056.00
26.6378 1851.00
26.942 1079.00
27.2463 1027.00
27.5505 982.00
27.8548 1357.00
28.1591 3229.00
28.4633 2567.00
28.7676 1858.00
29.0718 1842.00
29.3761 1408.00
29.6804 1398.00
29.9846 3690.00
30.2889 4703.00
30.5931 2357.00
30.8974 1212.00
31.2017 1008.00
31.5059 912.00
31.8102 1333.00
32.1144 1039.00
32.4187 1033.00
32.723 1051.00
33.0272 851.00
33.3315 865.00
33.6357 718.00
33.94 812.00
34.2443 744.00
34.5485 716.00
34.8528 702.00
35.157 658.00
35.4613 580.00
35.7656 593.00
36.0698 756.00
36.3741 704.00
36.6783 1037.00
36.9826 795.00
37.2869 683.00
37.5911 604.00
37.8954 976.00
38.1996 1063.00
38.5039 846.00
38.8082 681.00
39.1124 641.00
39.4167 733.00
39.7209 908.00
40.0252 767.00
40.3295 796.00
40.6337 862.00
40.938 522.00
41.2422 563.00
41.5465 554.00
41.8508 537.00
42.155 498.00
42.4593 791.00
42.7635 647.00
43.0678 564.00
43.3721 589.00
43.6763 541.00
43.9806 577.00
44.2849 713.00
44.5891 688.00
44.8934 600.00
45.1976 493.00
45.5019 566.00
45.8062 921.00
46.1104 766.00
46.4147 683.00
46.7189 1152.00
47.0232 1291.00
47.3275 641.00
47.6317 847.00
47.936 754.00
48.2402 674.00
48.5445 633.00
48.8488 765.00
49.153 1285.00
49.4573 927.00
49.7615 633.00
50.0658 843.00
50.3701 1012.00
50.6743 1051.00
50.9786 948.00
51.2828 887.00
51.5871 647.00
51.8914 648.00
52.1956 1056.00
52.4999 1032.00
52.8041 716.00
53.1084 714.00
53.4127 1181.00
53.7169 1154.00
54.0212 761.00
54.3254 614.00
54.6297 525.00
54.934 534.00
55.2382 627.00
55.5425 886.00
55.8467 1056.00
56.151 919.00
56.4553 966.00
56.7595 888.00
57.0638 881.00
57.368 730.00
57.6723 729.00
57.9766 775.00
58.2808 707.00
58.5851 976.00
58.8893 703.00
59.1936 601.00
59.4979 730.00
59.8021 629.00
60.1064 552.00
60.4106 495.00
60.7149 536.00
61.0192 447.00
61.3234 486.00
61.6277 466.00
61.932 550.00
62.2362 606.00
62.5405 801.00
62.8447 763.00
63.149 481.00
63.4533 558.00
63.7575 549.00
64.0618 493.00
64.366 474.00
64.6703 540.00
64.9745 496.00
65.2788 455.00
65.5831 509.00
65.8873 598.00
66.1916 463.00
66.4959 506.00
66.8001 603.00
67.1044 641.00
67.4086 776.00
67.7129 752.00
68.0172 622.00
68.3214 472.00
68.6257 489.00
68.9299 558.00
69.2342 424.00
69.5385 424.00
69.8427 506.00
70.147 482.00
70.4512 575.00
70.7555 600.00
71.0598 524.00
71.364 497.00
71.6683 455.00
71.9725 500.00
72.2768 531.00
72.5811 462.00
72.8853 612.00
73.1896 608.00
73.4938 443.00
73.7981 503.00
74.1024 512.00
74.4066 400.00
74.7109 519.00
75.0151 673.00
75.3194 598.00
75.6237 504.00
75.9279 539.00
76.2322 658.00
76.5364 733.00
76.8407 649.00
77.145 543.00
77.4492 478.00
77.7535 458.00
78.0577 428.00
78.362 417.00
78.6663 410.00
78.9705 453.00
79.2748 445.00
79.579 463.00
79.8833 411.00
80.1876 380.00
80.4918 421.00
80.7961 598.00
81.1003 537.00
81.4046 569.00
81.7089 584.00
82.0131 556.00
82.3174 450.00
82.6217 478.00
82.9259 492.00
83.2302 450.00
83.5344 345.00
83.8387 383.00
84.143 410.00
84.4472 469.00
84.7515 413.00
85.0557 445.00
85.36 490.00
85.6643 454.00
85.9685 400.00
86.2728 558.00
86.577 475.00
86.8813 436.00
87.1856 449.00
87.4898 409.00
87.7941 422.00
88.0983 405.00
88.4026 448.00
88.7069 428.00
89.0111 386.00
89.3154 389.00
89.6196 406.00
89.9239 412.00
90.2282 455.00
90.5324 496.00
90.8367 555.00
91.1409 563.00
91.4452 479.00
91.7495 451.00
92.0537 433.00
92.358 400.00
92.6622 409.00
92.9665 422.00
93.2708 425.00
93.575 409.00
93.8793 396.00
94.1835 387.00
94.4878 397.00
94.7921 367.00
95.0963 381.00
95.4006 382.00
95.7048 427.00
96.0091 369.00
96.3134 373.00
96.6176 380.00
96.9219 407.00
97.2261 377.00
97.5304 358.00
97.8347 360.00
98.1389 325.00
98.4432 429.00
98.7474 387.00
99.0517 390.00
99.356 408.00
99.6602 367.00
99.9645 396.00
100.095 450.00

File: PG_1950-1.xy
9.903433 2515.00
10.2077 2422.00
10.512 2285.00
10.8162 2271.00
11.1205 2152.00
11.4247 1922.00
11.729 1982.00
12.0333 1942.00
12.3375 1818.00
12.6418 1849.00
12.946 1711.00
13.2503 1620.00
13.5546 1528.00
13.8588 1566.00
14.1631 1474.00
14.4673 1478.00
14.7716 1332.00
15.0759 1333.00
15.3801 1298.00
15.6844 1302.00
15.9886 1294.00
16.2929 1275.00
16.5972 1266.00
16.9014 1196.00
17.2057 1209.00
17.5099 1143.00
17.8142 1158.00
18.1185 1102.00
18.4227 1058.00
18.727 1014.00
19.0312 998.00
19.3355 984.00
19.6398 999.00
19.944 941.00
20.2483 1088.00
20.5525 985.00
20.8568 889.00
21.1611 908.00
21.4653 887.00
21.7696 848.00
22.0738 892.00
22.3781 839.00
22.6824 847.00
22.9866 886.00
23.2909 754.00
23.5951 711.00
23.8994 785.00
24.2037 755.00
24.5079 780.00
24.8122 724.00
25.1164 736.00
25.4207 729.00
25.725 817.00
26.0292 668.00
26.3335 718.00
26.6378 702.00
26.942 661.00
27.2463 663.00
27.5505 662.00
27.8548 648.00
28.1591 658.00
28.4633 646.00
28.7676 835.00
29.0718 3352.00
29.3761 796.00
29.6804 608.00
29.9846 595.00
30.2889 608.00
30.5931 618.00
30.8974 574.00
31.2017 558.00
31.5059 550.00
31.8102 559.00
32.1144 698.00
32.4187 641.00
32.723 568.00
33.0272 477.00
33.3315 483.00
33.6357 1057.00
33.94 549.00
34.2443 513.00
34.5485 495.00
34.8528 488.00
35.157 442.00
35.4613 484.00
35.7656 514.00
36.0698 438.00
36.3741 395.00
36.6783 434.00
36.9826 432.00
37.2869 382.00
37.5911 421.00
37.8954 430.00
38.1996 436.00
38.5039 460.00
38.8082 391.00
39.1124 403.00
39.4167 407.00
39.7209 555.00
40.0252 375.00
40.3295 383.00
40.6337 350.00
40.938 327.00
41.2422 415.00
41.5465 415.00
41.8508 355.00
42.155 393.00
42.4593 349.00
42.7635 316.00
43.0678 401.00
43.3721 546.00
43.6763 331.00
43.9806 335.00
44.2849 344.00
44.5891 339.00
44.8934 343.00
45.1976 323.00
45.5019 314.00
45.8062 331.00
46.1104 268.00
46.4147 340.00
46.7189 347.00
47.0232 331.00
47.3275 291.00
47.6317 325.00
47.936 277.00
48.2402 420.00
48.5445 731.00
48.8488 305.00
49.153 280.00
49.4573 279.00
49.7615 291.00
50.0658 331.00
50.3701 287.00
50.6743 298.00
50.9786 249.00
51.2828 327.00
51.5871 325.00
51.8914 268.00
52.1956 248.00
52.4999 266.00
52.8041 301.00
53.1084 364.00
53.4127 264.00
53.7169 280.00
54.0212 291.00
54.3254 257.00
54.6297 294.00
54.934 240.00
55.2382 230.00
55.5425 250.00
55.8467 249.00
56.151 282.00
56.4553 258.00
56.7595 247.00
57.0638 256.00
57.368 334.00
57.6723 488.00
57.9766 230.00
58.2808 224.00
58.5851 274.00
58.8893 314.00
59.1936 215.00
59.4979 234.00
59.8021 224.00
60.1064 208.00
60.4106 293.00
60.7149 238.00
61.0192 198.00
61.3234 223.00
61.6277 193.00
61.932 194.00
62.2362 214.00
62.5405 222.00
62.8447 259.00
63.149 198.00
63.4533 221.00
63.7575 189.00
64.0618 211.00
64.366 238.00
64.6703 222.00
64.9745 182.00
65.2788 202.00
65.5831 183.00
65.8873 227.00
66.1916 193.00
66.4959 199.00
66.8001 203.00
67.1044 234.00
67.4086 203.00
67.7129 211.00
68.0172 215.00
68.3214 203.00
68.6257 194.00
68.9299 180.00
69.2342 194.00
69.5385 201.00
69.8427 213.00
70.147 218.00
70.4512 192.00
70.7555 209.00
71.0598 256.00
71.364 209.00
71.6683 201.00
71.9725 205.00
72.2768 260.00
72.5811 220.00
72.8853 222.00
73.1896 208.00
73.4938 225.00
73.7981 219.00
74.1024 194.00
74.4066 164.00
74.7109 242.00
75.0151 227.00
75.3194 193.00
75.6237 191.00
75.9279 208.00
76.2322 230.00
76.5364 199.00
76.8407 207.00
77.145 217.00
77.4492 261.00
77.7535 237.00
78.0577 226.00
78.362 247.00
78.6663 247.00
78.9705 215.00
79.2748 222.00
79.579 232.00
79.8833 264.00
80.1876 249.00
80.4918 230.00
80.7961 243.00
81.1003 239.00
81.4046 227.00
81.7089 193.00
82.0131 228.00
82.3174 205.00
82.6217 236.00
82.9259 212.00
83.2302 207.00
83.5344 213.00
83.8387 262.00
84.143 227.00
84.4472 243.00
84.7515 241.00
85.0557 226.00
85.36 203.00
85.6643 212.00
85.9685 225.00
86.2728 244.00
86.577 196.00
86.8813 236.00
87.1856 204.00
87.4898 206.00
87.7941 206.00
88.0983 206.00
88.4026 191.00
88.7069 191.00
89.0111 207.00
89.3154 188.00
89.6196 196.00
89.9239 204.00
90.2282 185.00
90.5324 205.00
90.8367 197.00
91.1409 204.00
91.4452 200.00
91.7495 218.00
92.0537 192.00
92.358 169.00
92.6622 203.00
92.9665 190.00
93.2708 191.00
93.575 201.00
93.8793 191.00
94.1835 196.00
94.4878 180.00
94.7921 181.00
95.0963 180.00
95.4006 211.00
95.7048 213.00
96.0091 206.00
96.3134 184.00
96.6176 199.00
96.9219 176.00
97.2261 203.00
97.5304 181.00
97.8347 216.00
98.1389 175.00
98.4432 186.00
98.7474 167.00
99.0517 201.00
99.356 181.00
99.6602 198.00
99.9645 185.00
100.095 194.00