Folder: alab-pipeline/data/xrd_creation/results (part 71)

File: NSC_197.xy
9.903433 2845.00
10.2077 2846.00
10.512 2685.00
10.8162 2684.00
11.1205 2588.00
11.4247 2419.00
11.729 2388.00
12.0333 2464.00
12.3375 2487.00
12.6418 2186.00
12.946 2208.00
13.2503 2099.00
13.5546 2122.00
13.8588 2221.00
14.1631 2502.00
14.4673 2088.00
14.7716 2231.00
15.0759 2536.00
15.3801 2004.00
15.6844 1958.00
15.9886 1942.00
16.2929 1847.00
16.5972 1816.00
16.9014 2046.00
17.2057 2378.00
17.5099 1868.00
17.8142 2373.00
18.1185 1715.00
18.4227 1717.00
18.727 1707.00
19.0312 1631.00
19.3355 1924.00
19.6398 4814.00
19.944 8113.00
20.2483 1821.00
20.5525 1792.00
20.8568 1682.00
21.1611 1731.00
21.4653 2067.00
21.7696 2187.00
22.0738 1710.00
22.3781 1686.00
22.6824 2048.00
22.9866 1750.00
23.2909 2217.00
23.5951 1459.00
23.8994 1405.00
24.2037 1719.00
24.5079 2758.00
24.8122 2183.00
25.1164 1642.00
25.4207 1711.00
25.725 1424.00
26.0292 1459.00
26.3335 1572.00
26.6378 1870.00
26.942 6097.00
27.2463 1732.00
27.5505 1488.00
27.8548 2166.00
28.1591 3544.00
28.4633 5792.00
28.7676 5463.00
29.0718 1624.00
29.3761 1444.00
29.6804 4607.00
29.9846 1386.00
30.2889 1526.00
30.5931 1827.00
30.8974 1652.00
31.2017 2547.00
31.5059 6142.00
31.8102 5543.00
32.1144 3184.00
32.4187 1483.00
32.723 1349.00
33.0272 1409.00
33.3315 1475.00
33.6357 1695.00
33.94 2200.00
34.2443 7159.00
34.5485 6381.00
34.8528 2966.00
35.157 3305.00
35.4613 1660.00
35.7656 2678.00
36.0698 1459.00
36.3741 1596.00
36.6783 1142.00
36.9826 1113.00
37.2869 1185.00
37.5911 2387.00
37.8954 1116.00
38.1996 1963.00
38.5039 1277.00
38.8082 1223.00
39.1124 1688.00
39.4167 1273.00
39.7209 1197.00
40.0252 1458.00
40.3295 1230.00
40.6337 1092.00
40.938 1257.00
41.2422 2008.00
41.5465 1632.00
41.8508 1660.00
42.155 1319.00
42.4593 1340.00
42.7635 1262.00
43.0678 1007.00
43.3721 974.00
43.6763 1026.00
43.9806 995.00
44.2849 988.00
44.5891 1343.00
44.8934 2184.00
45.1976 1718.00
45.5019 1155.00
45.8062 1424.00
46.1104 1387.00
46.4147 1048.00
46.7189 1188.00
47.0232 1963.00
47.3275 2185.00
47.6317 1269.00
47.936 909.00
48.2402 1125.00
48.5445 1449.00
48.8488 1020.00
49.153 1156.00
49.4573 1480.00
49.7615 2376.00
50.0658 1505.00
50.3701 1504.00
50.6743 2325.00
50.9786 1935.00
51.2828 1685.00
51.5871 1810.00
51.8914 2565.00
52.1956 3173.00
52.4999 1658.00
52.8041 1069.00
53.1084 1141.00
53.4127 1834.00
53.7169 1759.00
54.0212 1265.00
54.3254 1298.00
54.6297 1622.00
54.934 1582.00
55.2382 1394.00
55.5425 1350.00
55.8467 1756.00
56.151 1755.00
56.4553 1271.00
56.7595 1273.00
57.0638 998.00
57.368 1202.00
57.6723 1329.00
57.9766 1450.00
58.2808 1367.00
58.5851 1434.00
58.8893 1340.00
59.1936 1425.00
59.4979 1950.00
59.8021 1730.00
60.1064 1473.00
60.4106 1691.00
60.7149 1533.00
61.0192 1278.00
61.3234 1527.00
61.6277 1472.00
61.932 1549.00
62.2362 1648.00
62.5405 1426.00
62.8447 1225.00
63.149 1300.00
63.4533 1564.00
63.7575 1313.00
64.0618 984.00
64.366 1101.00
64.6703 1268.00
64.9745 1644.00
65.2788 1242.00
65.5831 1126.00
65.8873 1816.00
66.1916 2382.00
66.4959 1667.00
66.8001 1216.00
67.1044 1305.00
67.4086 1067.00
67.7129 929.00
68.0172 851.00
68.3214 915.00
68.6257 1051.00
68.9299 897.00
69.2342 917.00
69.5385 938.00
69.8427 931.00
70.147 900.00
70.4512 825.00
70.7555 823.00
71.0598 900.00
71.364 1075.00
71.6683 1345.00
71.9725 1372.00
72.2768 1098.00
72.5811 1023.00
72.8853 1057.00
73.1896 937.00
73.4938 933.00
73.7981 923.00
74.1024 955.00
74.4066 996.00
74.7109 807.00
75.0151 871.00
75.3194 1013.00
75.6237 1193.00
75.9279 1093.00
76.2322 988.00
76.5364 939.00
76.8407 914.00
77.145 909.00
77.4492 953.00
77.7535 919.00
78.0577 951.00
78.362 958.00
78.6663 899.00
78.9705 1214.00
79.2748 1041.00
79.579 995.00
79.8833 948.00
80.1876 902.00
80.4918 970.00
80.7961 1070.00
81.1003 1007.00
81.4046 989.00
81.7089 851.00
82.0131 898.00
82.3174 1000.00
82.6217 1019.00
82.9259 892.00
83.2302 924.00
83.5344 998.00
83.8387 1190.00
84.143 1142.00
84.4472 979.00
84.7515 982.00
85.0557 955.00
85.36 893.00
85.6643 894.00
85.9685 819.00
86.2728 832.00
86.577 844.00
86.8813 871.00
87.1856 1051.00
87.4898 1169.00
87.7941 1038.00
88.0983 998.00
88.4026 1007.00
88.7069 1128.00
89.0111 1053.00
89.3154 957.00
89.6196 1016.00
89.9239 1199.00
90.2282 1168.00
90.5324 1059.00
90.8367 1056.00
91.1409 1240.00
91.4452 1058.00
91.7495 889.00
92.0537 925.00
92.358 855.00
92.6622 860.00
92.9665 830.00
93.2708 798.00
93.575 1030.00
93.8793 977.00
94.1835 978.00
94.4878 870.00
94.7921 885.00
95.0963 883.00
95.4006 927.00
95.7048 965.00
96.0091 1054.00
96.3134 1098.00
96.6176 1005.00
96.9219 921.00
97.2261 1015.00
97.5304 972.00
97.8347 974.00
98.1389 859.00
98.4432 820.00
98.7474 790.00
99.0517 941.00
99.356 993.00
99.6602 943.00
99.9645 1004.00
100.095 1153.00

File: NSC_198.xy
9.903433 2433.00
10.2077 2384.00
10.512 2281.00
10.8162 2144.00
11.1205 2071.00
11.4247 1993.00
11.729 1826.00
12.0333 1806.00
12.3375 1730.00
12.6418 1596.00
12.946 1544.00
13.2503 1553.00
13.5546 1454.00
13.8588 1427.00
14.1631 1400.00
14.4673 1366.00
14.7716 1323.00
15.0759 1278.00
15.3801 1212.00
15.6844 1247.00
15.9886 1185.00
16.2929 1135.00
16.5972 1138.00
16.9014 1094.00
17.2057 1088.00
17.5099 1029.00
17.8142 1061.00
18.1185 1016.00
18.4227 963.00
18.727 930.00
19.0312 960.00
19.3355 875.00
19.6398 903.00
19.944 889.00
20.2483 835.00
20.5525 861.00
20.8568 782.00
21.1611 778.00
21.4653 780.00
21.7696 779.00
22.0738 773.00
22.3781 770.00
22.6824 746.00
22.9866 725.00
23.2909 640.00
23.5951 699.00
23.8994 698.00
24.2037 684.00
24.5079 716.00
24.8122 636.00
25.1164 640.00
25.4207 636.00
25.725 581.00
26.0292 610.00
26.3335 614.00
26.6378 591.00
26.942 536.00
27.2463 613.00
27.5505 583.00
27.8548 540.00
28.1591 526.00
28.4633 597.00
28.7676 543.00
29.0718 558.00
29.3761 498.00
29.6804 469.00
29.9846 496.00
30.2889 507.00
30.5931 482.00
30.8974 414.00
31.2017 439.00
31.5059 442.00
31.8102 434.00
32.1144 442.00
32.4187 444.00
32.723 458.00
33.0272 433.00
33.3315 413.00
33.6357 399.00
33.94 380.00
34.2443 426.00
34.5485 407.00
34.8528 396.00
35.157 383.00
35.4613 404.00
35.7656 374.00
36.0698 363.00
36.3741 378.00
36.6783 359.00
36.9826 369.00
37.2869 370.00
37.5911 336.00
37.8954 311.00
38.1996 332.00
38.5039 310.00
38.8082 364.00
39.1124 321.00
39.4167 302.00
39.7209 309.00
40.0252 307.00
40.3295 306.00
40.6337 309.00
40.938 292.00
41.2422 278.00
41.5465 288.00
41.8508 315.00
42.155 289.00
42.4593 292.00
42.7635 309.00
43.0678 283.00
43.3721 269.00
43.6763 233.00
43.9806 266.00
44.2849 266.00
44.5891 278.00
44.8934 264.00
45.1976 238.00
45.5019 246.00
45.8062 299.00
46.1104 224.00
46.4147 218.00
46.7189 248.00
47.0232 292.00
47.3275 243.00
47.6317 237.00
47.936 251.00
48.2402 242.00
48.5445 241.00
48.8488 258.00
49.153 222.00
49.4573 230.00
49.7615 244.00
50.0658 230.00
50.3701 240.00
50.6743 238.00
50.9786 244.00
51.2828 259.00
51.5871 235.00
51.8914 221.00
52.1956 234.00
52.4999 221.00
52.8041 230.00
53.1084 222.00
53.4127 221.00
53.7169 213.00
54.0212 220.00
54.3254 198.00
54.6297 229.00
54.934 207.00
55.2382 192.00
55.5425 196.00
55.8467 184.00
56.151 171.00
56.4553 205.00
56.7595 202.00
57.0638 192.00
57.368 203.00
57.6723 174.00
57.9766 206.00
58.2808 171.00
58.5851 183.00
58.8893 181.00
59.1936 191.00
59.4979 183.00
59.8021 186.00
60.1064 169.00
60.4106 173.00
60.7149 161.00
61.0192 152.00
61.3234 211.00
61.6277 171.00
61.932 201.00
62.2362 193.00
62.5405 186.00
62.8447 175.00
63.149 195.00
63.4533 172.00
63.7575 193.00
64.0618 169.00
64.366 156.00
64.6703 168.00
64.9745 177.00
65.2788 179.00
65.5831 191.00
65.8873 198.00
66.1916 168.00
66.4959 149.00
66.8001 195.00
67.1044 154.00
67.4086 163.00
67.7129 165.00
68.0172 151.00
68.3214 172.00
68.6257 155.00
68.9299 184.00
69.2342 175.00
69.5385 191.00
69.8427 178.00
70.147 179.00
70.4512 154.00
70.7555 159.00
71.0598 160.00
71.364 195.00
71.6683 168.00
71.9725 178.00
72.2768 169.00
72.5811 159.00
72.8853 163.00
73.1896 182.00
73.4938 182.00
73.7981 217.00
74.1024 173.00
74.4066 191.00
74.7109 182.00
75.0151 164.00
75.3194 207.00
75.6237 164.00
75.9279 174.00
76.2322 178.00
76.5364 192.00
76.8407 198.00
77.145 172.00
77.4492 192.00
77.7535 178.00
78.0577 213.00
78.362 198.00
78.6663 164.00
78.9705 200.00
79.2748 196.00
79.579 216.00
79.8833 197.00
80.1876 205.00
80.4918 208.00
80.7961 183.00
81.1003 212.00
81.4046 208.00
81.7089 206.00
82.0131 232.00
82.3174 187.00
82.6217 210.00
82.9259 213.00
83.2302 220.00
83.5344 205.00
83.8387 215.00
84.143 186.00
84.4472 197.00
84.7515 226.00
85.0557 210.00
85.36 200.00
85.6643 191.00
85.9685 188.00
86.2728 179.00
86.577 191.00
86.8813 187.00
87.1856 180.00
87.4898 152.00
87.7941 177.00
88.0983 184.00
88.4026 167.00
88.7069 195.00
89.0111 154.00
89.3154 165.00
89.6196 176.00
89.9239 178.00
90.2282 167.00
90.5324 137.00
90.8367 167.00
91.1409 169.00
91.4452 165.00
91.7495 160.00
92.0537 170.00
92.358 160.00
92.6622 157.00
92.9665 172.00
93.2708 150.00
93.575 168.00
93.8793 190.00
94.1835 173.00
94.4878 145.00
94.7921 154.00
95.0963 158.00
95.4006 157.00
95.7048 166.00
96.0091 145.00
96.3134 180.00
96.6176 161.00
96.9219 148.00
97.2261 152.00
97.5304 175.00
97.8347 176.00
98.1389 160.00
98.4432 171.00
98.7474 179.00
99.0517 175.00
99.356 155.00
99.6602 173.00
99.9645 135.00
100.095 171.00

File: NSC_199.xy
9.903433 2849.00
10.2077 2772.00
10.512 2860.00
10.8162 2643.00
11.1205 2621.00
11.4247 2501.00
11.729 2373.00
12.0333 2341.00
12.3375 2290.00
12.6418 2331.00
12.946 2138.00
13.2503 2189.00
13.5546 2124.00
13.8588 2132.00
14.1631 2128.00
14.4673 2008.00
14.7716 2178.00
15.0759 2194.00
15.3801 2111.00
15.6844 2108.00
15.9886 2091.00
16.2929 2046.00
16.5972 2071.00
16.9014 1997.00
17.2057 2082.00
17.5099 2156.00
17.8142 2693.00
18.1185 1997.00
18.4227 1962.00
18.727 1897.00
19.0312 1966.00
19.3355 1876.00
19.6398 1957.00
19.944 2151.00
20.2483 1892.00
20.5525 1968.00
20.8568 2398.00
21.1611 1985.00
21.4653 1941.00
21.7696 1939.00
22.0738 1899.00
22.3781 1862.00
22.6824 1928.00
22.9866 1822.00
23.2909 1793.00
23.5951 1813.00
23.8994 1998.00
24.2037 2874.00
24.5079 4304.00
24.8122 3241.00
25.1164 2080.00
25.4207 1762.00
25.725 1751.00
26.0292 1717.00
26.3335 1749.00
26.6378 1767.00
26.942 1763.00
27.2463 1752.00
27.5505 1829.00
27.8548 1972.00
28.1591 2420.00
28.4633 8597.00
28.7676 11766.00
29.0718 2506.00
29.3761 1909.00
29.6804 1857.00
29.9846 1823.00
30.2889 1801.00
30.5931 1795.00
30.8974 1996.00
31.2017 2140.00
31.5059 2727.00
31.8102 8638.00
32.1144 6733.00
32.4187 2235.00
32.723 1796.00
33.0272 1823.00
33.3315 1841.00
33.6357 1794.00
33.94 2301.00
34.2443 4217.00
34.5485 5407.00
34.8528 4178.00
35.157 2489.00
35.4613 2019.00
35.7656 4280.00
36.0698 2156.00
36.3741 2499.00
36.6783 1585.00
36.9826 1463.00
37.2869 1436.00
37.5911 1338.00
37.8954 1375.00
38.1996 1406.00
38.5039 1356.00
38.8082 1569.00
39.1124 2568.00
39.4167 1535.00
39.7209 1395.00
40.0252 1377.00
40.3295 1424.00
40.6337 1478.00
40.938 1786.00
41.2422 3102.00
41.5465 2255.00
41.8508 2027.00
42.155 1526.00
42.4593 1368.00
42.7635 1330.00
43.0678 1326.00
43.3721 1374.00
43.6763 1348.00
43.9806 1249.00
44.2849 1210.00
44.5891 1341.00
44.8934 1369.00
45.1976 1756.00
45.5019 1818.00
45.8062 1812.00
46.1104 2244.00
46.4147 1429.00
46.7189 1247.00
47.0232 1344.00
47.3275 1376.00
47.6317 1263.00
47.936 1270.00
48.2402 1222.00
48.5445 1301.00
48.8488 1448.00
49.153 1783.00
49.4573 2097.00
49.7615 3098.00
50.0658 2382.00
50.3701 2191.00
50.6743 3624.00
50.9786 3184.00
51.2828 2627.00
51.5871 1694.00
51.8914 1922.00
52.1956 1325.00
52.4999 1263.00
52.8041 1270.00
53.1084 1226.00
53.4127 1326.00
53.7169 1283.00
54.0212 1397.00
54.3254 1920.00
54.6297 2487.00
54.934 1913.00
55.2382 1591.00
55.5425 1999.00
55.8467 2865.00
56.151 3210.00
56.4553 2188.00
56.7595 2105.00
57.0638 1366.00
57.368 1535.00
57.6723 1894.00
57.9766 1987.00
58.2808 1601.00
58.5851 2247.00
58.8893 1850.00
59.1936 1439.00
59.4979 1378.00
59.8021 1335.00
60.1064 1746.00
60.4106 2555.00
60.7149 2583.00
61.0192 1746.00
61.3234 1530.00
61.6277 1535.00
61.932 2054.00
62.2362 1987.00
62.5405 2232.00
62.8447 1705.00
63.149 1719.00
63.4533 2104.00
63.7575 1855.00
64.0618 1236.00
64.366 1301.00
64.6703 1411.00
64.9745 1611.00
65.2788 1252.00
65.5831 1346.00
65.8873 1624.00
66.1916 1933.00
66.4959 2176.00
66.8001 1459.00
67.1044 1161.00
67.4086 1119.00
67.7129 1070.00
68.0172 1169.00
68.3214 1076.00
68.6257 1125.00
68.9299 1079.00
69.2342 1125.00
69.5385 1224.00
69.8427 1365.00
70.147 1174.00
70.4512 1162.00
70.7555 1088.00
71.0598 1128.00
71.364 1321.00
71.6683 1577.00
71.9725 1916.00
72.2768 1266.00
72.5811 1268.00
72.8853 1297.00
73.1896 1326.00
73.4938 1268.00
73.7981 1039.00
74.1024 1162.00
74.4066 1065.00
74.7109 1067.00
75.0151 1057.00
75.3194 1328.00
75.6237 1261.00
75.9279 1609.00
76.2322 1281.00
76.5364 1099.00
76.8407 1066.00
77.145 1274.00
77.4492 1267.00
77.7535 1210.00
78.0577 1223.00
78.362 1270.00
78.6663 1243.00
78.9705 1178.00
79.2748 1151.00
79.579 1282.00
79.8833 1250.00
80.1876 1057.00
80.4918 1049.00
80.7961 1050.00
81.1003 1092.00
81.4046 1128.00
81.7089 1107.00
82.0131 1247.00
82.3174 1331.00
82.6217 1194.00
82.9259 1220.00
83.2302 1259.00
83.5344 1406.00
83.8387 1352.00
84.143 1380.00
84.4472 1327.00
84.7515 1413.00
85.0557 1405.00
85.36 1200.00
85.6643 1265.00
85.9685 1147.00
86.2728 1048.00
86.577 1080.00
86.8813 1186.00
87.1856 1140.00
87.4898 1043.00
87.7941 1154.00
88.0983 1150.00
88.4026 1336.00
88.7069 1395.00
89.0111 1320.00
89.3154 1494.00
89.6196 1301.00
89.9239 1260.00
90.2282 1249.00
90.5324 1405.00
90.8367 1278.00
91.1409 1163.00
91.4452 1187.00
91.7495 1149.00
92.0537 1123.00
92.358 1078.00
92.6622 1064.00
92.9665 1024.00
93.2708 986.00
93.575 1057.00
93.8793 1077.00
94.1835 1064.00
94.4878 1085.00
94.7921 1208.00
95.0963 1146.00
95.4006 1101.00
95.7048 1239.00
96.0091 1271.00
96.3134 1359.00
96.6176 1195.00
96.9219 1333.00
97.2261 1444.00
97.5304 1516.00
97.8347 1582.00
98.1389 1311.00
98.4432 1205.00
98.7474 1095.00
99.0517 1284.00
99.356 1311.00
99.6602 1375.00
99.9645 1367.00
100.095 1415.00

File: NSC_200.xy
9.903433 2822.00
10.2077 2729.00
10.512 2718.00
10.8162 2709.00
11.1205 2497.00
11.4247 2483.00
11.729 2238.00
12.0333 2235.00
12.3375 2266.00
12.6418 2187.00
12.946 2159.00
13.2503 2162.00
13.5546 2138.00
13.8588 2243.00
14.1631 2224.00
14.4673 2053.00
14.7716 2375.00
15.0759 2818.00
15.3801 2007.00
15.6844 1917.00
15.9886 1912.00
16.2929 1946.00
16.5972 1894.00
16.9014 1956.00
17.2057 1980.00
17.5099 1914.00
17.8142 2349.00
18.1185 1793.00
18.4227 1828.00
18.727 1766.00
19.0312 1852.00
19.3355 1961.00
19.6398 3884.00
19.944 2747.00
20.2483 1952.00
20.5525 2037.00
20.8568 2410.00
21.1611 2466.00
21.4653 3401.00
21.7696 2856.00
22.0738 1920.00
22.3781 2516.00
22.6824 4061.00
22.9866 2023.00
23.2909 2086.00
23.5951 1714.00
23.8994 1753.00
24.2037 2452.00
24.5079 3087.00
24.8122 2497.00
25.1164 1861.00
25.4207 1511.00
25.725 1547.00
26.0292 1827.00
26.3335 1581.00
26.6378 1647.00
26.942 1597.00
27.2463 1716.00
27.5505 1577.00
27.8548 2549.00
28.1591 2398.00
28.4633 6648.00
28.7676 6936.00
29.0718 2042.00
29.3761 1672.00
29.6804 1619.00
29.9846 1720.00
30.2889 1614.00
30.5931 1864.00
30.8974 3608.00
31.2017 4075.00
31.5059 2679.00
31.8102 6399.00
32.1144 4287.00
32.4187 2196.00
32.723 1791.00
33.0272 1929.00
33.3315 2943.00
33.6357 2456.00
33.94 2713.00
34.2443 4184.00
34.5485 6270.00
34.8528 3480.00
35.157 2010.00
35.4613 1740.00
35.7656 3144.00
36.0698 1798.00
36.3741 2022.00
36.6783 1458.00
36.9826 1508.00
37.2869 1408.00
37.5911 1411.00
37.8954 1261.00
38.1996 1294.00
38.5039 1260.00
38.8082 1453.00
39.1124 1990.00
39.4167 1425.00
39.7209 1502.00
40.0252 1562.00
40.3295 1346.00
40.6337 1391.00
40.938 1670.00
41.2422 2744.00
41.5465 2109.00
41.8508 2044.00
42.155 1568.00
42.4593 1468.00
42.7635 1273.00
43.0678 1407.00
43.3721 1476.00
43.6763 1524.00
43.9806 1244.00
44.2849 1275.00
44.5891 1525.00
44.8934 1641.00
45.1976 1803.00
45.5019 1748.00
45.8062 1871.00
46.1104 1864.00
46.4147 1545.00
46.7189 1555.00
47.0232 1909.00
47.3275 1796.00
47.6317 1533.00
47.936 1272.00
48.2402 1369.00
48.5445 1383.00
48.8488 1347.00
49.153 1546.00
49.4573 2004.00
49.7615 2372.00
50.0658 1754.00
50.3701 1970.00
50.6743 2906.00
50.9786 2620.00
51.2828 2079.00
51.5871 1579.00
51.8914 1748.00
52.1956 1473.00
52.4999 1381.00
52.8041 1432.00
53.1084 1480.00
53.4127 1643.00
53.7169 1643.00
54.0212 1663.00
54.3254 1842.00
54.6297 1989.00
54.934 1781.00
55.2382 1394.00
55.5425 1769.00
55.8467 2195.00
56.151 2298.00
56.4553 1737.00
56.7595 1777.00
57.0638 1337.00
57.368 1508.00
57.6723 1889.00
57.9766 1931.00
58.2808 1634.00
58.5851 1800.00
58.8893 1690.00
59.1936 1762.00
59.4979 1509.00
59.8021 1409.00
60.1064 1795.00
60.4106 2117.00
60.7149 2014.00
61.0192 1722.00
61.3234 1729.00
61.6277 1739.00
61.932 1708.00
62.2362 1709.00
62.5405 1793.00
62.8447 1689.00
63.149 1565.00
63.4533 1777.00
63.7575 1531.00
64.0618 1242.00
64.366 1201.00
64.6703 1334.00
64.9745 1406.00
65.2788 1317.00
65.5831 1321.00
65.8873 1535.00
66.1916 1713.00
66.4959 1814.00
66.8001 1399.00
67.1044 1207.00
67.4086 1169.00
67.7129 1116.00
68.0172 1036.00
68.3214 1076.00
68.6257 1093.00
68.9299 1057.00
69.2342 1153.00
69.5385 1230.00
69.8427 1287.00
70.147 1119.00
70.4512 1206.00
70.7555 1186.00
71.0598 1163.00
71.364 1227.00
71.6683 1395.00
71.9725 1591.00
72.2768 1373.00
72.5811 1259.00
72.8853 1263.00
73.1896 1181.00
73.4938 1206.00
73.7981 1121.00
74.1024 1128.00
74.4066 1075.00
74.7109 1077.00
75.0151 1184.00
75.3194 1253.00
75.6237 1282.00
75.9279 1312.00
76.2322 1256.00
76.5364 1166.00
76.8407 1189.00
77.145 1159.00
77.4492 1114.00
77.7535 1103.00
78.0577 1135.00
78.362 1110.00
78.6663 1112.00
78.9705 1051.00
79.2748 1113.00
79.579 1153.00
79.8833 1159.00
80.1876 1116.00
80.4918 1101.00
80.7961 1060.00
81.1003 1051.00
81.4046 1054.00
81.7089 1108.00
82.0131 1107.00
82.3174 1361.00
82.6217 1207.00
82.9259 1173.00
83.2302 1166.00
83.5344 1308.00
83.8387 1276.00
84.143 1302.00
84.4472 1228.00
84.7515 1330.00
85.0557 1182.00
85.36 1121.00
85.6643 1120.00
85.9685 1115.00
86.2728 1134.00
86.577 1125.00
86.8813 1153.00
87.1856 1118.00
87.4898 1101.00
87.7941 1116.00
88.0983 1107.00
88.4026 1307.00
88.7069 1322.00
89.0111 1281.00
89.3154 1240.00
89.6196 1229.00
89.9239 1139.00
90.2282 1232.00
90.5324 1242.00
90.8367 1221.00
91.1409 1062.00
91.4452 1171.00
91.7495 1156.00
92.0537 1147.00
92.358 1039.00
92.6622 1035.00
92.9665 1040.00
93.2708 999.00
93.575 989.00
93.8793 1038.00
94.1835 1060.00
94.4878 1061.00
94.7921 1104.00
95.0963 1118.00
95.4006 1156.00
95.7048 1187.00
96.0091 1193.00
96.3134 1156.00
96.6176 1152.00
96.9219 1192.00
97.2261 1269.00
97.5304 1277.00
97.8347 1275.00
98.1389 1212.00
98.4432 1153.00
98.7474 1097.00
99.0517 1146.00
99.356 1213.00
99.6602 1217.00
99.9645 1264.00
100.095 1315.00

File: NSC_201.xy
9.903433 2821.00
10.2077 2699.00
10.512 2686.00
10.8162 2659.00
11.1205 2588.00
11.4247 2336.00
11.729 2370.00
12.0333 2273.00
12.3375 2258.00
12.6418 2153.00
12.946 2182.00
13.2503 2053.00
13.5546 2121.00
13.8588 2287.00
14.1631 2431.00
14.4673 2060.00
14.7716 2161.00
15.0759 2479.00
15.3801 2042.00
15.6844 2054.00
15.9886 1847.00
16.2929 1952.00
16.5972 1809.00
16.9014 1895.00
17.2057 1753.00
17.5099 1834.00
17.8142 2236.00
18.1185 1840.00
18.4227 1773.00
18.727 1754.00
19.0312 1797.00
19.3355 2048.00
19.6398 4353.00
19.944 3825.00
20.2483 1944.00
20.5525 1898.00
20.8568 1929.00
21.1611 1992.00
21.4653 2478.00
21.7696 2459.00
22.0738 1770.00
22.3781 1921.00
22.6824 2730.00
22.9866 1784.00
23.2909 2215.00
23.5951 1683.00
23.8994 1615.00
24.2037 2147.00
24.5079 2947.00
24.8122 2347.00
25.1164 1914.00
25.4207 1440.00
25.725 1531.00
26.0292 1582.00
26.3335 1548.00
26.6378 1552.00
26.942 1505.00
27.2463 1534.00
27.5505 1521.00
27.8548 2544.00
28.1591 2133.00
28.4633 4775.00
28.7676 9070.00
29.0718 2070.00
29.3761 1568.00
29.6804 1582.00
29.9846 1576.00
30.2889 1488.00
30.5931 1786.00
30.8974 2857.00
31.2017 4062.00
31.5059 2271.00
31.8102 5148.00
32.1144 5794.00
32.4187 1929.00
32.723 1635.00
33.0272 1553.00
33.3315 1904.00
33.6357 1805.00
33.94 2052.00
34.2443 3147.00
34.5485 5623.00
34.8528 3231.00
35.157 2075.00
35.4613 1523.00
35.7656 2597.00
36.0698 1801.00
36.3741 1774.00
36.6783 1289.00
36.9826 1254.00
37.2869 1243.00
37.5911 1168.00
37.8954 1182.00
38.1996 1127.00
38.5039 1144.00
38.8082 1195.00
39.1124 1722.00
39.4167 1268.00
39.7209 1314.00
40.0252 1309.00
40.3295 1212.00
40.6337 1249.00
40.938 1399.00
41.2422 2336.00
41.5465 1962.00
41.8508 1787.00
42.155 1527.00
42.4593 1302.00
42.7635 1118.00
43.0678 1103.00
43.3721 1141.00
43.6763 1305.00
43.9806 1073.00
44.2849 1170.00
44.5891 1499.00
44.8934 1580.00
45.1976 1457.00
45.5019 1498.00
45.8062 1542.00
46.1104 1645.00
46.4147 1391.00
46.7189 1388.00
47.0232 1876.00
47.3275 1458.00
47.6317 1245.00
47.936 1129.00
48.2402 1133.00
48.5445 1192.00
48.8488 1185.00
49.153 1304.00
49.4573 1657.00
49.7615 2058.00
50.0658 1991.00
50.3701 1495.00
50.6743 2496.00
50.9786 2747.00
51.2828 2023.00
51.5871 1391.00
51.8914 1497.00
52.1956 1220.00
52.4999 1152.00
52.8041 1135.00
53.1084 1193.00
53.4127 1383.00
53.7169 1647.00
54.0212 1416.00
54.3254 1471.00
54.6297 1758.00
54.934 1562.00
55.2382 1262.00
55.5425 1433.00
55.8467 1859.00
56.151 2065.00
56.4553 1634.00
56.7595 1540.00
57.0638 1115.00
57.368 1286.00
57.6723 1451.00
57.9766 1588.00
58.2808 1377.00
58.5851 1574.00
58.8893 1605.00
59.1936 1627.00
59.4979 1509.00
59.8021 1241.00
60.1064 1375.00
60.4106 1743.00
60.7149 1995.00
61.0192 1409.00
61.3234 1460.00
61.6277 1405.00
61.932 1468.00
62.2362 1534.00
62.5405 1608.00
62.8447 1434.00
63.149 1369.00
63.4533 1397.00
63.7575 1388.00
64.0618 950.00
64.366 1082.00
64.6703 1149.00
64.9745 1242.00
65.2788 1219.00
65.5831 1142.00
65.8873 1272.00
66.1916 1473.00
66.4959 1697.00
66.8001 1163.00
67.1044 1016.00
67.4086 1006.00
67.7129 983.00
68.0172 946.00
68.3214 917.00
68.6257 961.00
68.9299 958.00
69.2342 1020.00
69.5385 982.00
69.8427 1069.00
70.147 945.00
70.4512 980.00
70.7555 944.00
71.0598 919.00
71.364 1038.00
71.6683 1136.00
71.9725 1410.00
72.2768 1200.00
72.5811 1114.00
72.8853 1161.00
73.1896 1107.00
73.4938 1090.00
73.7981 846.00
74.1024 957.00
74.4066 937.00
74.7109 901.00
75.0151 932.00
75.3194 1068.00
75.6237 1119.00
75.9279 1201.00
76.2322 1051.00
76.5364 970.00
76.8407 1011.00
77.145 1034.00
77.4492 991.00
77.7535 926.00
78.0577 956.00
78.362 1028.00
78.6663 970.00
78.9705 841.00
79.2748 965.00
79.579 937.00
79.8833 1030.00
80.1876 1012.00
80.4918 836.00
80.7961 897.00
81.1003 923.00
81.4046 843.00
81.7089 886.00
82.0131 980.00
82.3174 1034.00
82.6217 949.00
82.9259 969.00
83.2302 997.00
83.5344 1036.00
83.8387 1046.00
84.143 1086.00
84.4472 988.00
84.7515 1015.00
85.0557 1082.00
85.36 891.00
85.6643 963.00
85.9685 962.00
86.2728 969.00
86.577 923.00
86.8813 1032.00
87.1856 937.00
87.4898 928.00
87.7941 969.00
88.0983 961.00
88.4026 1134.00
88.7069 1028.00
89.0111 1102.00
89.3154 1160.00
89.6196 1037.00
89.9239 1001.00
90.2282 1030.00
90.5324 1025.00
90.8367 1028.00
91.1409 940.00
91.4452 946.00
91.7495 864.00
92.0537 868.00
92.358 877.00
92.6622 936.00
92.9665 834.00
93.2708 913.00
93.575 822.00
93.8793 939.00
94.1835 933.00
94.4878 894.00
94.7921 933.00
95.0963 927.00
95.4006 971.00
95.7048 980.00
96.0091 1060.00
96.3134 1059.00
96.6176 910.00
96.9219 1060.00
97.2261 1103.00
97.5304 1114.00
97.8347 1132.00
98.1389 1019.00
98.4432 923.00
98.7474 877.00
99.0517 1049.00
99.356 1046.00
99.6602 1020.00
99.9645 1167.00
100.095 1164.00