Folder: alab-pipeline/data/xrd_creation/results (part 28)

File: Na_280.xy
9.903433 2757.00
10.2077 2514.00
10.512 2481.00
10.8162 2355.00
11.1205 2300.00
11.4247 2289.00
11.729 2213.00
12.0333 2064.00
12.3375 2065.00
12.6418 1956.00
12.946 1889.00
13.2503 1835.00
13.5546 1782.00
13.8588 1750.00
14.1631 1775.00
14.4673 1620.00
14.7716 1700.00
15.0759 1595.00
15.3801 1623.00
15.6844 1517.00
15.9886 1549.00
16.2929 1591.00
16.5972 1555.00
16.9014 1549.00
17.2057 1459.00
17.5099 1410.00
17.8142 1445.00
18.1185 1487.00
18.4227 1411.00
18.727 1416.00
19.0312 1773.00
19.3355 1349.00
19.6398 1365.00
19.944 3274.00
20.2483 3345.00
20.5525 1314.00
20.8568 1232.00
21.1611 1246.00
21.4653 1203.00
21.7696 1212.00
22.0738 1249.00
22.3781 1123.00
22.6824 1124.00
22.9866 1329.00
23.2909 1188.00
23.5951 1140.00
23.8994 1078.00
24.2037 1169.00
24.5079 2914.00
24.8122 1087.00
25.1164 1038.00
25.4207 997.00
25.725 1048.00
26.0292 1122.00
26.3335 2265.00
26.6378 1205.00
26.942 931.00
27.2463 944.00
27.5505 1136.00
27.8548 897.00
28.1591 905.00
28.4633 916.00
28.7676 851.00
29.0718 855.00
29.3761 922.00
29.6804 820.00
29.9846 895.00
30.2889 837.00
30.5931 850.00
30.8974 926.00
31.2017 830.00
31.5059 809.00
31.8102 869.00
32.1144 844.00
32.4187 1022.00
32.723 5222.00
33.0272 2619.00
33.3315 3180.00
33.6357 3873.00
33.94 1600.00
34.2443 848.00
34.5485 1016.00
34.8528 877.00
35.157 865.00
35.4613 787.00
35.7656 1057.00
36.0698 1696.00
36.3741 1920.00
36.6783 948.00
36.9826 1031.00
37.2869 1068.00
37.5911 781.00
37.8954 724.00
38.1996 786.00
38.5039 2503.00
38.8082 860.00
39.1124 869.00
39.4167 916.00
39.7209 870.00
40.0252 813.00
40.3295 698.00
40.6337 669.00
40.938 657.00
41.2422 782.00
41.5465 1531.00
41.8508 717.00
42.155 665.00
42.4593 674.00
42.7635 829.00
43.0678 712.00
43.3721 645.00
43.6763 1511.00
43.9806 809.00
44.2849 868.00
44.5891 809.00
44.8934 1036.00
45.1976 641.00
45.5019 614.00
45.8062 601.00
46.1104 586.00
46.4147 625.00
46.7189 630.00
47.0232 741.00
47.3275 2180.00
47.6317 815.00
47.936 750.00
48.2402 590.00
48.5445 621.00
48.8488 708.00
49.153 675.00
49.4573 574.00
49.7615 593.00
50.0658 875.00
50.3701 1330.00
50.6743 646.00
50.9786 605.00
51.2828 627.00
51.5871 842.00
51.8914 792.00
52.1956 964.00
52.4999 602.00
52.8041 575.00
53.1084 644.00
53.4127 646.00
53.7169 719.00
54.0212 613.00
54.3254 785.00
54.6297 1059.00
54.934 2811.00
55.2382 859.00
55.5425 609.00
55.8467 792.00
56.151 642.00
56.4553 687.00
56.7595 815.00
57.0638 662.00
57.368 648.00
57.6723 570.00
57.9766 572.00
58.2808 706.00
58.5851 776.00
58.8893 1181.00
59.1936 1413.00
59.4979 853.00
59.8021 864.00
60.1064 591.00
60.4106 535.00
60.7149 562.00
61.0192 575.00
61.3234 589.00
61.6277 608.00
61.932 564.00
62.2362 623.00
62.5405 682.00
62.8447 1272.00
63.149 737.00
63.4533 1345.00
63.7575 781.00
64.0618 587.00
64.366 592.00
64.6703 576.00
64.9745 1075.00
65.2788 1979.00
65.5831 785.00
65.8873 635.00
66.1916 586.00
66.4959 568.00
66.8001 601.00
67.1044 560.00
67.4086 611.00
67.7129 502.00
68.0172 514.00
68.3214 508.00
68.6257 523.00
68.9299 533.00
69.2342 517.00
69.5385 737.00
69.8427 728.00
70.147 660.00
70.4512 578.00
70.7555 521.00
71.0598 512.00
71.364 492.00
71.6683 536.00
71.9725 584.00
72.2768 543.00
72.5811 624.00
72.8853 966.00
73.1896 862.00
73.4938 633.00
73.7981 481.00
74.1024 540.00
74.4066 627.00
74.7109 560.00
75.0151 522.00
75.3194 654.00
75.6237 620.00
75.9279 559.00
76.2322 523.00
76.5364 576.00
76.8407 670.00
77.145 574.00
77.4492 504.00
77.7535 518.00
78.0577 558.00
78.362 504.00
78.6663 553.00
78.9705 759.00
79.2748 859.00
79.579 546.00
79.8833 522.00
80.1876 573.00
80.4918 597.00
80.7961 521.00
81.1003 506.00
81.4046 486.00
81.7089 530.00
82.0131 569.00
82.3174 629.00
82.6217 646.00
82.9259 551.00
83.2302 549.00
83.5344 520.00
83.8387 516.00
84.143 665.00
84.4472 794.00
84.7515 853.00
85.0557 638.00
85.36 559.00
85.6643 551.00
85.9685 602.00
86.2728 587.00
86.577 816.00
86.8813 693.00
87.1856 553.00
87.4898 503.00
87.7941 475.00
88.0983 500.00
88.4026 631.00
88.7069 613.00
89.0111 498.00
89.3154 553.00
89.6196 504.00
89.9239 576.00
90.2282 862.00
90.5324 692.00
90.8367 563.00
91.1409 530.00
91.4452 555.00
91.7495 678.00
92.0537 654.00
92.358 545.00
92.6622 552.00
92.9665 478.00
93.2708 523.00
93.575 530.00
93.8793 585.00
94.1835 547.00
94.4878 486.00
94.7921 504.00
95.0963 661.00
95.4006 766.00
95.7048 655.00
96.0091 578.00
96.3134 509.00
96.6176 498.00
96.9219 497.00
97.2261 566.00
97.5304 579.00
97.8347 645.00
98.1389 688.00
98.4432 663.00
98.7474 624.00
99.0517 576.00
99.356 563.00
99.6602 541.00
99.9645 497.00
100.095 528.00

File: Na_281.xy
9.903433 5486.00
10.2077 5337.00
10.512 5452.00
10.8162 5317.00
11.1205 5243.00
11.4247 5518.00
11.729 5565.00
12.0333 5435.00
12.3375 5442.00
12.6418 5474.00
12.946 5645.00
13.2503 5714.00
13.5546 5609.00
13.8588 5772.00
14.1631 5838.00
14.4673 5868.00
14.7716 5754.00
15.0759 5798.00
15.3801 6002.00
15.6844 6038.00
15.9886 6021.00
16.2929 6165.00
16.5972 6123.00
16.9014 6207.00
17.2057 6247.00
17.5099 6181.00
17.8142 6155.00
18.1185 6235.00
18.4227 6287.00
18.727 6329.00
19.0312 6571.00
19.3355 6524.00
19.6398 6458.00
19.944 6507.00
20.2483 6510.00
20.5525 6793.00
20.8568 8137.00
21.1611 14852.00
21.4653 6760.00
21.7696 6772.00
22.0738 6596.00
22.3781 6948.00
22.6824 6729.00
22.9866 6791.00
23.2909 7035.00
23.5951 6787.00
23.8994 6838.00
24.2037 6818.00
24.5079 6870.00
24.8122 6823.00
25.1164 7025.00
25.4207 6830.00
25.725 6862.00
26.0292 6726.00
26.3335 6823.00
26.6378 6916.00
26.942 6833.00
27.2463 6753.00
27.5505 6716.00
27.8548 6668.00
28.1591 6793.00
28.4633 6895.00
28.7676 6896.00
29.0718 6866.00
29.3761 6706.00
29.6804 6872.00
29.9846 6870.00
30.2889 6832.00
30.5931 6857.00
30.8974 6635.00
31.2017 6858.00
31.5059 6847.00
31.8102 6711.00
32.1144 6764.00
32.4187 6655.00
32.723 6805.00
33.0272 6788.00
33.3315 6870.00
33.6357 6900.00
33.94 7046.00
34.2443 7408.00
34.5485 24087.00
34.8528 7417.00
35.157 7139.00
35.4613 6824.00
35.7656 6770.00
36.0698 7213.00
36.3741 7182.00
36.6783 6838.00
36.9826 6872.00
37.2869 7002.00
37.5911 6976.00
37.8954 6760.00
38.1996 6811.00
38.5039 6746.00
38.8082 6916.00
39.1124 6799.00
39.4167 6924.00
39.7209 7050.00
40.0252 6797.00
40.3295 6866.00
40.6337 6819.00
40.938 6719.00
41.2422 6946.00
41.5465 6884.00
41.8508 6781.00
42.155 6640.00
42.4593 6836.00
42.7635 7048.00
43.0678 6881.00
43.3721 6763.00
43.6763 7008.00
43.9806 6820.00
44.2849 6704.00
44.5891 6773.00
44.8934 6786.00
45.1976 6807.00
45.5019 6684.00
45.8062 6797.00
46.1104 6665.00
46.4147 6725.00
46.7189 6709.00
47.0232 6687.00
47.3275 6811.00
47.6317 6691.00
47.936 6755.00
48.2402 6684.00
48.5445 6757.00
48.8488 6791.00
49.153 6700.00
49.4573 7986.00
49.7615 7587.00
50.0658 6970.00
50.3701 6766.00
50.6743 6806.00
50.9786 6589.00
51.2828 6848.00
51.5871 6623.00
51.8914 6701.00
52.1956 6689.00
52.4999 6681.00
52.8041 6756.00
53.1084 6755.00
53.4127 6768.00
53.7169 6737.00
54.0212 6915.00
54.3254 6771.00
54.6297 6648.00
54.934 6726.00
55.2382 6732.00
55.5425 6731.00
55.8467 7045.00
56.151 6870.00
56.4553 6749.00
56.7595 6833.00
57.0638 6668.00
57.368 6745.00
57.6723 6725.00
57.9766 6815.00
58.2808 6638.00
58.5851 6694.00
58.8893 6649.00
59.1936 6824.00
59.4979 6818.00
59.8021 6664.00
60.1064 6727.00
60.4106 6620.00
60.7149 6770.00
61.0192 6616.00
61.3234 6660.00
61.6277 9652.00
61.932 7813.00
62.2362 6622.00
62.5405 6831.00
62.8447 6630.00
63.149 6579.00
63.4533 6761.00
63.7575 6816.00
64.0618 6814.00
64.366 6663.00
64.6703 6882.00
64.9745 6767.00
65.2788 6883.00
65.5831 6656.00
65.8873 6964.00
66.1916 6864.00
66.4959 6612.00
66.8001 6656.00
67.1044 6757.00
67.4086 6622.00
67.7129 6757.00
68.0172 6719.00
68.3214 6646.00
68.6257 6705.00
68.9299 6555.00
69.2342 6647.00
69.5385 6658.00
69.8427 6687.00
70.147 6578.00
70.4512 6763.00
70.7555 6673.00
71.0598 6641.00
71.364 6557.00
71.6683 6617.00
71.9725 6788.00
72.2768 6634.00
72.5811 7260.00
72.8853 6737.00
73.1896 6579.00
73.4938 6571.00
73.7981 6619.00
74.1024 6677.00
74.4066 6644.00
74.7109 6605.00
75.0151 6609.00
75.3194 6623.00
75.6237 6596.00
75.9279 6609.00
76.2322 6717.00
76.5364 6869.00
76.8407 6493.00
77.145 6716.00
77.4492 6558.00
77.7535 6609.00
78.0577 6572.00
78.362 6589.00
78.6663 6592.00
78.9705 6434.00
79.2748 6653.00
79.579 6605.00
79.8833 6471.00
80.1876 6608.00
80.4918 6585.00
80.7961 6683.00
81.1003 6555.00
81.4046 6710.00
81.7089 6657.00
82.0131 6680.00
82.3174 6424.00
82.6217 7113.00
82.9259 7125.00
83.2302 6760.00
83.5344 6561.00
83.8387 6484.00
84.143 6401.00
84.4472 6529.00
84.7515 6586.00
85.0557 6534.00
85.36 6439.00
85.6643 6534.00
85.9685 6654.00
86.2728 6547.00
86.577 6661.00
86.8813 6562.00
87.1856 6376.00
87.4898 6532.00
87.7941 6517.00
88.0983 6448.00
88.4026 6390.00
88.7069 6433.00
89.0111 6476.00
89.3154 6566.00
89.6196 6599.00
89.9239 6573.00
90.2282 6552.00
90.5324 6764.00
90.8367 6756.00
91.1409 6504.00
91.4452 6412.00
91.7495 6563.00
92.0537 6497.00
92.358 6500.00
92.6622 6488.00
92.9665 6544.00
93.2708 6557.00
93.575 6501.00
93.8793 6485.00
94.1835 6550.00
94.4878 6486.00
94.7921 6562.00
95.0963 6418.00
95.4006 6524.00
95.7048 6435.00
96.0091 6351.00
96.3134 6478.00
96.6176 6395.00
96.9219 6408.00
97.2261 6559.00
97.5304 6528.00
97.8347 6549.00
98.1389 6486.00
98.4432 6426.00
98.7474 6512.00
99.0517 6537.00
99.356 6533.00
99.6602 6559.00
99.9645 6468.00
100.095 6507.00

File: Na_283.xy
9.903433 3021.00
10.2077 2906.00
10.512 2717.00
10.8162 2760.00
11.1205 2780.00
11.4247 2620.00
11.729 2589.00
12.0333 2449.00
12.3375 2367.00
12.6418 2453.00
12.946 2550.00
13.2503 2535.00
13.5546 2945.00
13.8588 2408.00
14.1631 2304.00
14.4673 2274.00
14.7716 2269.00
15.0759 2254.00
15.3801 2257.00
15.6844 2200.00
15.9886 2185.00
16.2929 2279.00
16.5972 2129.00
16.9014 2252.00
17.2057 1996.00
17.5099 2140.00
17.8142 2043.00
18.1185 2212.00
18.4227 2028.00
18.727 1947.00
19.0312 2097.00
19.3355 2311.00
19.6398 2935.00
19.944 2293.00
20.2483 3502.00
20.5525 3221.00
20.8568 2256.00
21.1611 2089.00
21.4653 2013.00
21.7696 1946.00
22.0738 1942.00
22.3781 1992.00
22.6824 2295.00
22.9866 5439.00
23.2909 6806.00
23.5951 3903.00
23.8994 2504.00
24.2037 2089.00
24.5079 1860.00
24.8122 1855.00
25.1164 1893.00
25.4207 1788.00
25.725 1873.00
26.0292 1925.00
26.3335 2011.00
26.6378 3017.00
26.942 1951.00
27.2463 2156.00
27.5505 1894.00
27.8548 1879.00
28.1591 1653.00
28.4633 1651.00
28.7676 1734.00
29.0718 1791.00
29.3761 1675.00
29.6804 1779.00
29.9846 1655.00
30.2889 1693.00
30.5931 1766.00
30.8974 1651.00
31.2017 1668.00
31.5059 1729.00
31.8102 1804.00
32.1144 1968.00
32.4187 4763.00
32.723 7866.00
33.0272 7999.00
33.3315 3004.00
33.6357 2289.00
33.94 2305.00
34.2443 3989.00
34.5485 2085.00
34.8528 1825.00
35.157 1573.00
35.4613 1572.00
35.7656 1562.00
36.0698 1621.00
36.3741 1479.00
36.6783 1466.00
36.9826 1728.00
37.2869 1446.00
37.5911 1610.00
37.8954 1413.00
38.1996 1452.00
38.5039 1509.00
38.8082 2358.00
39.1124 1632.00
39.4167 1442.00
39.7209 1497.00
40.0252 1329.00
40.3295 1555.00
40.6337 1590.00
40.938 1411.00
41.2422 1302.00
41.5465 1328.00
41.8508 1438.00
42.155 1453.00
42.4593 1481.00
42.7635 1341.00
43.0678 1480.00
43.3721 1341.00
43.6763 1424.00
43.9806 1690.00
44.2849 1507.00
44.5891 1458.00
44.8934 1413.00
45.1976 1476.00
45.5019 1546.00
45.8062 1412.00
46.1104 1321.00
46.4147 1398.00
46.7189 1973.00
47.0232 3793.00
47.3275 2209.00
47.6317 2886.00
47.936 2525.00
48.2402 1513.00
48.5445 1340.00
48.8488 1371.00
49.153 1302.00
49.4573 1276.00
49.7615 1337.00
50.0658 1250.00
50.3701 1428.00
50.6743 1320.00
50.9786 1250.00
51.2828 1343.00
51.5871 1427.00
51.8914 1433.00
52.1956 1530.00
52.4999 1915.00
52.8041 2965.00
53.1084 2887.00
53.4127 1720.00
53.7169 1541.00
54.0212 1513.00
54.3254 1254.00
54.6297 1420.00
54.934 1334.00
55.2382 1250.00
55.5425 1272.00
55.8467 1289.00
56.151 1367.00
56.4553 1323.00
56.7595 1453.00
57.0638 1422.00
57.368 1317.00
57.6723 1411.00
57.9766 1787.00
58.2808 2831.00
58.5851 2839.00
58.8893 1619.00
59.1936 1699.00
59.4979 1771.00
59.8021 2062.00
60.1064 1959.00
60.4106 1423.00
60.7149 1339.00
61.0192 1394.00
61.3234 1298.00
61.6277 1285.00
61.932 1135.00
62.2362 1130.00
62.5405 1153.00
62.8447 1292.00
63.149 1488.00
63.4533 1178.00
63.7575 1251.00
64.0618 1450.00
64.366 1604.00
64.6703 1250.00
64.9745 1199.00
65.2788 1290.00
65.5831 1481.00
65.8873 1188.00
66.1916 1101.00
66.4959 1174.00
66.8001 1218.00
67.1044 1227.00
67.4086 1230.00
67.7129 1423.00
68.0172 1358.00
68.3214 1673.00
68.6257 1823.00
68.9299 1329.00
69.2342 1139.00
69.5385 1188.00
69.8427 1284.00
70.147 1230.00
70.4512 1166.00
70.7555 1197.00
71.0598 1266.00
71.364 1224.00
71.6683 1244.00
71.9725 1333.00
72.2768 1177.00
72.5811 1145.00
72.8853 1292.00
73.1896 1585.00
73.4938 1615.00
73.7981 1164.00
74.1024 1109.00
74.4066 1087.00
74.7109 1119.00
75.0151 1110.00
75.3194 1150.00
75.6237 1137.00
75.9279 1101.00
76.2322 1149.00
76.5364 1170.00
76.8407 1149.00
77.145 1175.00
77.4492 1180.00
77.7535 1417.00
78.0577 1501.00
78.362 1280.00
78.6663 1111.00
78.9705 1027.00
79.2748 1129.00
79.579 1106.00
79.8833 1105.00
80.1876 1069.00
80.4918 1140.00
80.7961 1156.00
81.1003 1178.00
81.4046 1192.00
81.7089 1097.00
82.0131 1097.00
82.3174 1192.00
82.6217 1329.00
82.9259 1147.00
83.2302 1086.00
83.5344 1100.00
83.8387 1110.00
84.143 1100.00
84.4472 1104.00
84.7515 1222.00
85.0557 1203.00
85.36 1111.00
85.6643 1046.00
85.9685 1085.00
86.2728 1061.00
86.577 1141.00
86.8813 1280.00
87.1856 1264.00
87.4898 1184.00
87.7941 1120.00
88.0983 1001.00
88.4026 1089.00
88.7069 1121.00
89.0111 1060.00
89.3154 1106.00
89.6196 1001.00
89.9239 1055.00
90.2282 1061.00
90.5324 1081.00
90.8367 1084.00
91.1409 1185.00
91.4452 1171.00
91.7495 1185.00
92.0537 1178.00
92.358 1122.00
92.6622 1040.00
92.9665 1080.00
93.2708 1020.00
93.575 1055.00
93.8793 1085.00
94.1835 1131.00
94.4878 1124.00
94.7921 1091.00
95.0963 1108.00
95.4006 1178.00
95.7048 1389.00
96.0091 1535.00
96.3134 1452.00
96.6176 1238.00
96.9219 1171.00
97.2261 1058.00
97.5304 1067.00
97.8347 1047.00
98.1389 1060.00
98.4432 1082.00
98.7474 1078.00
99.0517 1017.00
99.356 1017.00
99.6602 1101.00
99.9645 1050.00
100.095 978.00

File: Na_284.xy
9.903433 2740.00
10.2077 2724.00
10.512 2559.00
10.8162 2584.00
11.1205 2412.00
11.4247 2406.00
11.729 2300.00
12.0333 2244.00
12.3375 2257.00
12.6418 2051.00
12.946 2243.00
13.2503 3005.00
13.5546 2035.00
13.8588 2481.00
14.1631 2027.00
14.4673 2041.00
14.7716 1827.00
15.0759 1893.00
15.3801 1932.00
15.6844 2353.00
15.9886 3563.00
16.2929 2095.00
16.5972 1715.00
16.9014 1766.00
17.2057 1689.00
17.5099 1606.00
17.8142 1691.00
18.1185 1596.00
18.4227 1604.00
18.727 1529.00
19.0312 1477.00
19.3355 1858.00
19.6398 1651.00
19.944 1557.00
20.2483 1687.00
20.5525 1495.00
20.8568 1813.00
21.1611 2816.00
21.4653 1453.00
21.7696 1597.00
22.0738 1376.00
22.3781 1363.00
22.6824 1751.00
22.9866 2294.00
23.2909 1574.00
23.5951 1371.00
23.8994 1248.00
24.2037 1339.00
24.5079 1353.00
24.8122 1238.00
25.1164 1155.00
25.4207 1260.00
25.725 1611.00
26.0292 1270.00
26.3335 1416.00
26.6378 1192.00
26.942 1249.00
27.2463 1520.00
27.5505 2896.00
27.8548 2115.00
28.1591 2510.00
28.4633 2911.00
28.7676 1463.00
29.0718 1428.00
29.3761 4304.00
29.6804 2902.00
29.9846 1202.00
30.2889 1244.00
30.5931 1233.00
30.8974 2400.00
31.2017 2219.00
31.5059 1357.00
31.8102 1496.00
32.1144 2288.00
32.4187 2095.00
32.723 1231.00
33.0272 1060.00
33.3315 1236.00
33.6357 1958.00
33.94 1472.00
34.2443 1264.00
34.5485 3828.00
34.8528 1233.00
35.157 1111.00
35.4613 1047.00
35.7656 904.00
36.0698 934.00
36.3741 1134.00
36.6783 963.00
36.9826 857.00
37.2869 850.00
37.5911 821.00
37.8954 851.00
38.1996 1005.00
38.5039 869.00
38.8082 836.00
39.1124 1047.00
39.4167 1268.00
39.7209 2847.00
40.0252 1871.00
40.3295 1083.00
40.6337 975.00
40.938 1771.00
41.2422 932.00
41.5465 922.00
41.8508 921.00
42.155 769.00
42.4593 1134.00
42.7635 969.00
43.0678 786.00
43.3721 759.00
43.6763 747.00
43.9806 1108.00
44.2849 1316.00
44.5891 1043.00
44.8934 903.00
45.1976 805.00
45.5019 893.00
45.8062 966.00
46.1104 843.00
46.4147 903.00
46.7189 857.00
47.0232 914.00
47.3275 1103.00
47.6317 971.00
47.936 835.00
48.2402 919.00
48.5445 1342.00
48.8488 1797.00
49.153 1544.00
49.4573 1371.00
49.7615 767.00
50.0658 903.00
50.3701 883.00
50.6743 833.00
50.9786 1580.00
51.2828 897.00
51.5871 656.00
51.8914 921.00
52.1956 844.00
52.4999 768.00
52.8041 668.00
53.1084 666.00
53.4127 711.00
53.7169 1213.00
54.0212 1622.00
54.3254 788.00
54.6297 644.00
54.934 610.00
55.2382 644.00
55.5425 893.00
55.8467 815.00
56.151 770.00
56.4553 720.00
56.7595 681.00
57.0638 632.00
57.368 590.00
57.6723 532.00
57.9766 682.00
58.2808 645.00
58.5851 593.00
58.8893 579.00
59.1936 646.00
59.4979 569.00
59.8021 479.00
60.1064 567.00
60.4106 604.00
60.7149 919.00
61.0192 697.00
61.3234 579.00
61.6277 690.00
61.932 511.00
62.2362 507.00
62.5405 433.00
62.8447 506.00
63.149 557.00
63.4533 577.00
63.7575 509.00
64.0618 696.00
64.366 818.00
64.6703 610.00
64.9745 516.00
65.2788 617.00
65.5831 867.00
65.8873 619.00
66.1916 530.00
66.4959 473.00
66.8001 470.00
67.1044 479.00
67.4086 494.00
67.7129 443.00
68.0172 443.00
68.3214 432.00
68.6257 430.00
68.9299 446.00
69.2342 438.00
69.5385 456.00
69.8427 619.00
70.147 738.00
70.4512 644.00
70.7555 540.00
71.0598 519.00
71.364 460.00
71.6683 497.00
71.9725 526.00
72.2768 609.00
72.5811 553.00
72.8853 500.00
73.1896 516.00
73.4938 465.00
73.7981 444.00
74.1024 429.00
74.4066 398.00
74.7109 454.00
75.0151 445.00
75.3194 420.00
75.6237 431.00
75.9279 465.00
76.2322 499.00
76.5364 524.00
76.8407 561.00
77.145 596.00
77.4492 626.00
77.7535 743.00
78.0577 716.00
78.362 589.00
78.6663 511.00
78.9705 514.00
79.2748 491.00
79.579 435.00
79.8833 390.00
80.1876 413.00
80.4918 429.00
80.7961 401.00
81.1003 376.00
81.4046 388.00
81.7089 436.00
82.0131 513.00
82.3174 636.00
82.6217 578.00
82.9259 482.00
83.2302 426.00
83.5344 418.00
83.8387 367.00
84.143 418.00
84.4472 400.00
84.7515 467.00
85.0557 442.00
85.36 496.00
85.6643 531.00
85.9685 566.00
86.2728 565.00
86.577 457.00
86.8813 420.00
87.1856 353.00
87.4898 363.00
87.7941 421.00
88.0983 489.00
88.4026 513.00
88.7069 516.00
89.0111 517.00
89.3154 449.00
89.6196 454.00
89.9239 425.00
90.2282 424.00
90.5324 449.00
90.8367 416.00
91.1409 401.00
91.4452 413.00
91.7495 381.00
92.0537 418.00
92.358 391.00
92.6622 410.00
92.9665 426.00
93.2708 392.00
93.575 365.00
93.8793 370.00
94.1835 403.00
94.4878 377.00
94.7921 339.00
95.0963 380.00
95.4006 409.00
95.7048 442.00
96.0091 491.00
96.3134 467.00
96.6176 409.00
96.9219 452.00
97.2261 439.00
97.5304 431.00
97.8347 407.00
98.1389 436.00
98.4432 435.00
98.7474 397.00
99.0517 405.00
99.356 377.00
99.6602 352.00
99.9645 330.00
100.095 370.00

File: Na_285.xy
9.903433 2623.00
10.2077 2447.00
10.512 2332.00
10.8162 2282.00
11.1205 2225.00
11.4247 2147.00
11.729 2112.00
12.0333 1887.00
12.3375 1916.00
12.6418 1818.00
12.946 1778.00
13.2503 1696.00
13.5546 1640.00
13.8588 1656.00
14.1631 1615.00
14.4673 1522.00
14.7716 1477.00
15.0759 1490.00
15.3801 1359.00
15.6844 1357.00
15.9886 1401.00
16.2929 1345.00
16.5972 1304.00
16.9014 1344.00
17.2057 1304.00
17.5099 1256.00
17.8142 1203.00
18.1185 1145.00
18.4227 1246.00
18.727 1145.00
19.0312 1145.00
19.3355 1156.00
19.6398 1090.00
19.944 1054.00
20.2483 1065.00
20.5525 1075.00
20.8568 1015.00
21.1611 1024.00
21.4653 1028.00
21.7696 1024.00
22.0738 944.00
22.3781 942.00
22.6824 983.00
22.9866 945.00
23.2909 929.00
23.5951 925.00
23.8994 851.00
24.2037 858.00
24.5079 843.00
24.8122 847.00
25.1164 860.00
25.4207 829.00
25.725 817.00
26.0292 747.00
26.3335 857.00
26.6378 826.00
26.942 778.00
27.2463 768.00
27.5505 776.00
27.8548 1286.00
28.1591 776.00
28.4633 734.00
28.7676 684.00
29.0718 731.00
29.3761 741.00
29.6804 735.00
29.9846 696.00
30.2889 690.00
30.5931 684.00
30.8974 660.00
31.2017 684.00
31.5059 725.00
31.8102 594.00
32.1144 614.00
32.4187 662.00
32.723 609.00
33.0272 588.00
33.3315 617.00
33.6357 599.00
33.94 537.00
34.2443 537.00
34.5485 540.00
34.8528 523.00
35.157 521.00
35.4613 565.00
35.7656 524.00
36.0698 502.00
36.3741 449.00
36.6783 446.00
36.9826 476.00
37.2869 467.00
37.5911 476.00
37.8954 444.00
38.1996 481.00
38.5039 458.00
38.8082 403.00
39.1124 420.00
39.4167 446.00
39.7209 422.00
40.0252 400.00
40.3295 435.00
40.6337 372.00
40.938 420.00
41.2422 430.00
41.5465 360.00
41.8508 366.00
42.155 433.00
42.4593 387.00
42.7635 382.00
43.0678 381.00
43.3721 363.00
43.6763 364.00
43.9806 342.00
44.2849 415.00
44.5891 389.00
44.8934 348.00
45.1976 367.00
45.5019 344.00
45.8062 341.00
46.1104 461.00
46.4147 369.00
46.7189 400.00
47.0232 323.00
47.3275 406.00
47.6317 337.00
47.936 361.00
48.2402 329.00
48.5445 345.00
48.8488 351.00
49.153 345.00
49.4573 332.00
49.7615 321.00
50.0658 340.00
50.3701 296.00
50.6743 338.00
50.9786 341.00
51.2828 333.00
51.5871 302.00
51.8914 301.00
52.1956 322.00
52.4999 326.00
52.8041 356.00
53.1084 298.00
53.4127 288.00
53.7169 318.00
54.0212 301.00
54.3254 343.00
54.6297 258.00
54.934 302.00
55.2382 360.00
55.5425 362.00
55.8467 303.00
56.151 316.00
56.4553 298.00
56.7595 300.00
57.0638 280.00
57.368 329.00
57.6723 322.00
57.9766 285.00
58.2808 308.00
58.5851 257.00
58.8893 263.00
59.1936 232.00
59.4979 330.00
59.8021 229.00
60.1064 246.00
60.4106 262.00
60.7149 270.00
61.0192 222.00
61.3234 263.00
61.6277 249.00
61.932 219.00
62.2362 263.00
62.5405 249.00
62.8447 256.00
63.149 242.00
63.4533 243.00
63.7575 234.00
64.0618 221.00
64.366 256.00
64.6703 230.00
64.9745 241.00
65.2788 228.00
65.5831 258.00
65.8873 233.00
66.1916 238.00
66.4959 250.00
66.8001 204.00
67.1044 226.00
67.4086 217.00
67.7129 236.00
68.0172 213.00
68.3214 247.00
68.6257 243.00
68.9299 204.00
69.2342 234.00
69.5385 229.00
69.8427 226.00
70.147 221.00
70.4512 238.00
70.7555 208.00
71.0598 236.00
71.364 235.00
71.6683 233.00
71.9725 229.00
72.2768 211.00
72.5811 236.00
72.8853 205.00
73.1896 234.00
73.4938 208.00
73.7981 237.00
74.1024 228.00
74.4066 278.00
74.7109 247.00
75.0151 206.00
75.3194 213.00
75.6237 222.00
75.9279 263.00
76.2322 240.00
76.5364 200.00
76.8407 257.00
77.145 228.00
77.4492 221.00
77.7535 249.00
78.0577 271.00
78.362 247.00
78.6663 258.00
78.9705 250.00
79.2748 234.00
79.579 262.00
79.8833 274.00
80.1876 242.00
80.4918 284.00
80.7961 237.00
81.1003 271.00
81.4046 263.00
81.7089 293.00
82.0131 230.00
82.3174 233.00
82.6217 218.00
82.9259 232.00
83.2302 244.00
83.5344 263.00
83.8387 247.00
84.143 245.00
84.4472 226.00
84.7515 225.00
85.0557 258.00
85.36 250.00
85.6643 248.00
85.9685 262.00
86.2728 217.00
86.577 233.00
86.8813 218.00
87.1856 214.00
87.4898 237.00
87.7941 235.00
88.0983 197.00
88.4026 220.00
88.7069 203.00
89.0111 193.00
89.3154 208.00
89.6196 217.00
89.9239 208.00
90.2282 211.00
90.5324 216.00
90.8367 190.00
91.1409 178.00
91.4452 216.00
91.7495 181.00
92.0537 217.00
92.358 226.00
92.6622 192.00
92.9665 189.00
93.2708 193.00
93.575 228.00
93.8793 200.00
94.1835 224.00
94.4878 215.00
94.7921 181.00
95.0963 217.00
95.4006 216.00
95.7048 174.00
96.0091 193.00
96.3134 213.00
96.6176 197.00
96.9219 234.00
97.2261 214.00
97.5304 205.00
97.8347 207.00
98.1389 183.00
98.4432 196.00
98.7474 199.00
99.0517 215.00
99.356 224.00
99.6602 197.00
99.9645 199.00
100.095 182.00