Folder: alab-pipeline/data/xrd_creation/results (part 56)

File: NSC_116.xy
9.903433 2828.00
10.2077 2714.00
10.512 2585.00
10.8162 2491.00
11.1205 2719.00
11.4247 3974.00
11.729 11637.00
12.0333 2437.00
12.3375 2202.00
12.6418 2113.00
12.946 2084.00
13.2503 2028.00
13.5546 1996.00
13.8588 1878.00
14.1631 1837.00
14.4673 1848.00
14.7716 2147.00
15.0759 1837.00
15.3801 2141.00
15.6844 1815.00
15.9886 1768.00
16.2929 2813.00
16.5972 4452.00
16.9014 1776.00
17.2057 1672.00
17.5099 1607.00
17.8142 1645.00
18.1185 2423.00
18.4227 1669.00
18.727 1428.00
19.0312 1420.00
19.3355 1442.00
19.6398 1335.00
19.944 1455.00
20.2483 1648.00
20.5525 1461.00
20.8568 1525.00
21.1611 1694.00
21.4653 1247.00
21.7696 1351.00
22.0738 1527.00
22.3781 1308.00
22.6824 1253.00
22.9866 1230.00
23.2909 1294.00
23.5951 1401.00
23.8994 1184.00
24.2037 1231.00
24.5079 1893.00
24.8122 1699.00
25.1164 1208.00
25.4207 1344.00
25.725 1453.00
26.0292 7089.00
26.3335 1572.00
26.6378 1537.00
26.942 2548.00
27.2463 1491.00
27.5505 1270.00
27.8548 4756.00
28.1591 3708.00
28.4633 1233.00
28.7676 975.00
29.0718 1015.00
29.3761 976.00
29.6804 1084.00
29.9846 1124.00
30.2889 2193.00
30.5931 1226.00
30.8974 962.00
31.2017 977.00
31.5059 2176.00
31.8102 1533.00
32.1144 1410.00
32.4187 1399.00
32.723 1075.00
33.0272 7775.00
33.3315 1414.00
33.6357 1048.00
33.94 1369.00
34.2443 2609.00
34.5485 7895.00
34.8528 2695.00
35.157 1095.00
35.4613 926.00
35.7656 781.00
36.0698 835.00
36.3741 1265.00
36.6783 1097.00
36.9826 1217.00
37.2869 1359.00
37.5911 835.00
37.8954 995.00
38.1996 929.00
38.5039 806.00
38.8082 947.00
39.1124 913.00
39.4167 741.00
39.7209 760.00
40.0252 706.00
40.3295 736.00
40.6337 920.00
40.938 728.00
41.2422 765.00
41.5465 774.00
41.8508 1284.00
42.155 1462.00
42.4593 1664.00
42.7635 769.00
43.0678 717.00
43.3721 784.00
43.6763 1147.00
43.9806 821.00
44.2849 711.00
44.5891 634.00
44.8934 876.00
45.1976 1209.00
45.5019 938.00
45.8062 755.00
46.1104 706.00
46.4147 741.00
46.7189 709.00
47.0232 1192.00
47.3275 1571.00
47.6317 2483.00
47.936 761.00
48.2402 647.00
48.5445 840.00
48.8488 703.00
49.153 1138.00
49.4573 797.00
49.7615 1675.00
50.0658 1559.00
50.3701 1633.00
50.6743 688.00
50.9786 584.00
51.2828 781.00
51.5871 679.00
51.8914 1581.00
52.1956 1413.00
52.4999 936.00
52.8041 608.00
53.1084 1217.00
53.4127 989.00
53.7169 730.00
54.0212 769.00
54.3254 703.00
54.6297 690.00
54.934 853.00
55.2382 732.00
55.5425 1217.00
55.8467 635.00
56.151 764.00
56.4553 844.00
56.7595 759.00
57.0638 996.00
57.368 987.00
57.6723 684.00
57.9766 860.00
58.2808 927.00
58.5851 1504.00
58.8893 1026.00
59.1936 1021.00
59.4979 1734.00
59.8021 1675.00
60.1064 1248.00
60.4106 1181.00
60.7149 735.00
61.0192 753.00
61.3234 531.00
61.6277 732.00
61.932 757.00
62.2362 746.00
62.5405 867.00
62.8447 665.00
63.149 975.00
63.4533 543.00
63.7575 651.00
64.0618 729.00
64.366 682.00
64.6703 612.00
64.9745 920.00
65.2788 752.00
65.5831 847.00
65.8873 922.00
66.1916 951.00
66.4959 666.00
66.8001 676.00
67.1044 655.00
67.4086 684.00
67.7129 546.00
68.0172 736.00
68.3214 553.00
68.6257 631.00
68.9299 740.00
69.2342 588.00
69.5385 479.00
69.8427 518.00
70.147 473.00
70.4512 481.00
70.7555 503.00
71.0598 517.00
71.364 496.00
71.6683 533.00
71.9725 502.00
72.2768 630.00
72.5811 558.00
72.8853 439.00
73.1896 555.00
73.4938 713.00
73.7981 421.00
74.1024 478.00
74.4066 552.00
74.7109 569.00
75.0151 532.00
75.3194 647.00
75.6237 558.00
75.9279 444.00
76.2322 493.00
76.5364 532.00
76.8407 573.00
77.145 560.00
77.4492 681.00
77.7535 469.00
78.0577 519.00
78.362 510.00
78.6663 598.00
78.9705 753.00
79.2748 642.00
79.579 519.00
79.8833 446.00
80.1876 595.00
80.4918 544.00
80.7961 464.00
81.1003 468.00
81.4046 447.00
81.7089 484.00
82.0131 494.00
82.3174 426.00
82.6217 518.00
82.9259 489.00
83.2302 442.00
83.5344 443.00
83.8387 515.00
84.143 571.00
84.4472 471.00
84.7515 610.00
85.0557 526.00
85.36 482.00
85.6643 448.00
85.9685 465.00
86.2728 457.00
86.577 557.00
86.8813 511.00
87.1856 568.00
87.4898 486.00
87.7941 446.00
88.0983 434.00
88.4026 509.00
88.7069 571.00
89.0111 533.00
89.3154 529.00
89.6196 533.00
89.9239 474.00
90.2282 543.00
90.5324 560.00
90.8367 538.00
91.1409 537.00
91.4452 539.00
91.7495 545.00
92.0537 536.00
92.358 443.00
92.6622 478.00
92.9665 490.00
93.2708 430.00
93.575 439.00
93.8793 424.00
94.1835 437.00
94.4878 439.00
94.7921 434.00
95.0963 462.00
95.4006 475.00
95.7048 484.00
96.0091 530.00
96.3134 541.00
96.6176 432.00
96.9219 563.00
97.2261 578.00
97.5304 638.00
97.8347 475.00
98.1389 446.00
98.4432 470.00
98.7474 466.00
99.0517 480.00
99.356 494.00
99.6602 535.00
99.9645 513.00
100.095 515.00

File: NSC_117.xy
9.903433 2792.00
10.2077 2743.00
10.512 2490.00
10.8162 2467.00
11.1205 2545.00
11.4247 3435.00
11.729 8375.00
12.0333 2497.00
12.3375 2107.00
12.6418 2141.00
12.946 2017.00
13.2503 1790.00
13.5546 1901.00
13.8588 1853.00
14.1631 1798.00
14.4673 1842.00
14.7716 2612.00
15.0759 2168.00
15.3801 2812.00
15.6844 1875.00
15.9886 1789.00
16.2929 2351.00
16.5972 3287.00
16.9014 1672.00
17.2057 1604.00
17.5099 1559.00
17.8142 1655.00
18.1185 2035.00
18.4227 1551.00
18.727 1384.00
19.0312 1501.00
19.3355 1440.00
19.6398 1405.00
19.944 1444.00
20.2483 1949.00
20.5525 1435.00
20.8568 1569.00
21.1611 2111.00
21.4653 1389.00
21.7696 1420.00
22.0738 2170.00
22.3781 1297.00
22.6824 1312.00
22.9866 1408.00
23.2909 1260.00
23.5951 1576.00
23.8994 1164.00
24.2037 1195.00
24.5079 1660.00
24.8122 1335.00
25.1164 1213.00
25.4207 1297.00
25.725 1539.00
26.0292 5091.00
26.3335 1420.00
26.6378 1686.00
26.942 2220.00
27.2463 1323.00
27.5505 1233.00
27.8548 3817.00
28.1591 4643.00
28.4633 1265.00
28.7676 989.00
29.0718 999.00
29.3761 980.00
29.6804 1216.00
29.9846 1274.00
30.2889 3019.00
30.5931 1035.00
30.8974 1049.00
31.2017 1042.00
31.5059 2130.00
31.8102 1997.00
32.1144 2043.00
32.4187 2009.00
32.723 1234.00
33.0272 6632.00
33.3315 1567.00
33.6357 1047.00
33.94 1333.00
34.2443 2338.00
34.5485 4991.00
34.8528 2533.00
35.157 1007.00
35.4613 929.00
35.7656 793.00
36.0698 866.00
36.3741 1269.00
36.6783 1007.00
36.9826 1149.00
37.2869 1345.00
37.5911 812.00
37.8954 889.00
38.1996 965.00
38.5039 798.00
38.8082 1206.00
39.1124 1013.00
39.4167 761.00
39.7209 698.00
40.0252 831.00
40.3295 918.00
40.6337 1146.00
40.938 725.00
41.2422 713.00
41.5465 676.00
41.8508 1083.00
42.155 1262.00
42.4593 1540.00
42.7635 837.00
43.0678 826.00
43.3721 1028.00
43.6763 1054.00
43.9806 855.00
44.2849 831.00
44.5891 693.00
44.8934 1099.00
45.1976 1173.00
45.5019 871.00
45.8062 746.00
46.1104 803.00
46.4147 802.00
46.7189 678.00
47.0232 1085.00
47.3275 1426.00
47.6317 1849.00
47.936 758.00
48.2402 579.00
48.5445 751.00
48.8488 731.00
49.153 935.00
49.4573 763.00
49.7615 1394.00
50.0658 1355.00
50.3701 1239.00
50.6743 613.00
50.9786 588.00
51.2828 728.00
51.5871 823.00
51.8914 1571.00
52.1956 1335.00
52.4999 1285.00
52.8041 710.00
53.1084 1331.00
53.4127 886.00
53.7169 768.00
54.0212 671.00
54.3254 733.00
54.6297 804.00
54.934 813.00
55.2382 757.00
55.5425 1095.00
55.8467 650.00
56.151 802.00
56.4553 725.00
56.7595 868.00
57.0638 867.00
57.368 824.00
57.6723 632.00
57.9766 867.00
58.2808 1197.00
58.5851 1311.00
58.8893 892.00
59.1936 1059.00
59.4979 1660.00
59.8021 1393.00
60.1064 1126.00
60.4106 962.00
60.7149 770.00
61.0192 781.00
61.3234 647.00
61.6277 697.00
61.932 716.00
62.2362 737.00
62.5405 697.00
62.8447 693.00
63.149 886.00
63.4533 634.00
63.7575 746.00
64.0618 712.00
64.366 638.00
64.6703 554.00
64.9745 854.00
65.2788 756.00
65.5831 836.00
65.8873 1012.00
66.1916 888.00
66.4959 731.00
66.8001 681.00
67.1044 628.00
67.4086 694.00
67.7129 603.00
68.0172 625.00
68.3214 524.00
68.6257 599.00
68.9299 663.00
69.2342 500.00
69.5385 507.00
69.8427 519.00
70.147 437.00
70.4512 491.00
70.7555 483.00
71.0598 516.00
71.364 526.00
71.6683 558.00
71.9725 484.00
72.2768 601.00
72.5811 510.00
72.8853 499.00
73.1896 575.00
73.4938 615.00
73.7981 460.00
74.1024 433.00
74.4066 552.00
74.7109 565.00
75.0151 592.00
75.3194 652.00
75.6237 489.00
75.9279 530.00
76.2322 497.00
76.5364 530.00
76.8407 537.00
77.145 559.00
77.4492 577.00
77.7535 482.00
78.0577 536.00
78.362 513.00
78.6663 625.00
78.9705 707.00
79.2748 618.00
79.579 502.00
79.8833 423.00
80.1876 509.00
80.4918 507.00
80.7961 492.00
81.1003 467.00
81.4046 464.00
81.7089 511.00
82.0131 506.00
82.3174 407.00
82.6217 460.00
82.9259 438.00
83.2302 427.00
83.5344 486.00
83.8387 559.00
84.143 462.00
84.4472 488.00
84.7515 533.00
85.0557 500.00
85.36 502.00
85.6643 379.00
85.9685 444.00
86.2728 450.00
86.577 479.00
86.8813 487.00
87.1856 504.00
87.4898 467.00
87.7941 421.00
88.0983 410.00
88.4026 560.00
88.7069 532.00
89.0111 507.00
89.3154 474.00
89.6196 511.00
89.9239 486.00
90.2282 466.00
90.5324 528.00
90.8367 461.00
91.1409 562.00
91.4452 481.00
91.7495 499.00
92.0537 526.00
92.358 511.00
92.6622 486.00
92.9665 455.00
93.2708 471.00
93.575 462.00
93.8793 432.00
94.1835 445.00
94.4878 431.00
94.7921 479.00
95.0963 432.00
95.4006 490.00
95.7048 466.00
96.0091 442.00
96.3134 454.00
96.6176 442.00
96.9219 471.00
97.2261 584.00
97.5304 535.00
97.8347 454.00
98.1389 481.00
98.4432 541.00
98.7474 529.00
99.0517 456.00
99.356 468.00
99.6602 549.00
99.9645 484.00
100.095 472.00

File: NSC_120.xy
9.903433 2629.00
10.2077 2555.00
10.512 2442.00
10.8162 2392.00
11.1205 2323.00
11.4247 2301.00
11.729 2127.00
12.0333 1927.00
12.3375 1924.00
12.6418 1875.00
12.946 1799.00
13.2503 1821.00
13.5546 1760.00
13.8588 1680.00
14.1631 1649.00
14.4673 1914.00
14.7716 2884.00
15.0759 1541.00
15.3801 1541.00
15.6844 1510.00
15.9886 1502.00
16.2929 1431.00
16.5972 1379.00
16.9014 1369.00
17.2057 1349.00
17.5099 1400.00
17.8142 1297.00
18.1185 1328.00
18.4227 1282.00
18.727 1228.00
19.0312 1156.00
19.3355 1272.00
19.6398 1136.00
19.944 1222.00
20.2483 1475.00
20.5525 4703.00
20.8568 1520.00
21.1611 4540.00
21.4653 1392.00
21.7696 1227.00
22.0738 1788.00
22.3781 1048.00
22.6824 1145.00
22.9866 1155.00
23.2909 1034.00
23.5951 1006.00
23.8994 1141.00
24.2037 1841.00
24.5079 11681.00
24.8122 2280.00
25.1164 1045.00
25.4207 1101.00
25.725 1183.00
26.0292 1040.00
26.3335 857.00
26.6378 819.00
26.942 841.00
27.2463 841.00
27.5505 824.00
27.8548 870.00
28.1591 936.00
28.4633 804.00
28.7676 793.00
29.0718 772.00
29.3761 1234.00
29.6804 4084.00
29.9846 731.00
30.2889 698.00
30.5931 670.00
30.8974 660.00
31.2017 736.00
31.5059 756.00
31.8102 683.00
32.1144 749.00
32.4187 1270.00
32.723 12573.00
33.0272 1160.00
33.3315 671.00
33.6357 865.00
33.94 598.00
34.2443 591.00
34.5485 595.00
34.8528 592.00
35.157 540.00
35.4613 798.00
35.7656 606.00
36.0698 669.00
36.3741 628.00
36.6783 819.00
36.9826 3596.00
37.2869 558.00
37.5911 466.00
37.8954 523.00
38.1996 625.00
38.5039 465.00
38.8082 466.00
39.1124 439.00
39.4167 467.00
39.7209 473.00
40.0252 447.00
40.3295 449.00
40.6337 437.00
40.938 412.00
41.2422 498.00
41.5465 883.00
41.8508 436.00
42.155 395.00
42.4593 400.00
42.7635 442.00
43.0678 695.00
43.3721 1160.00
43.6763 635.00
43.9806 857.00
44.2849 393.00
44.5891 515.00
44.8934 1379.00
45.1976 458.00
45.5019 515.00
45.8062 394.00
46.1104 356.00
46.4147 409.00
46.7189 653.00
47.0232 2021.00
47.3275 401.00
47.6317 397.00
47.936 799.00
48.2402 368.00
48.5445 432.00
48.8488 624.00
49.153 368.00
49.4573 429.00
49.7615 703.00
50.0658 2896.00
50.3701 728.00
50.6743 990.00
50.9786 385.00
51.2828 370.00
51.5871 351.00
51.8914 352.00
52.1956 379.00
52.4999 321.00
52.8041 571.00
53.1084 384.00
53.4127 488.00
53.7169 1847.00
54.0212 1634.00
54.3254 382.00
54.6297 341.00
54.934 384.00
55.2382 396.00
55.5425 358.00
55.8467 353.00
56.151 325.00
56.4553 581.00
56.7595 946.00
57.0638 399.00
57.368 954.00
57.6723 2817.00
57.9766 1015.00
58.2808 402.00
58.5851 327.00
58.8893 562.00
59.1936 1035.00
59.4979 391.00
59.8021 310.00
60.1064 291.00
60.4106 322.00
60.7149 346.00
61.0192 1241.00
61.3234 503.00
61.6277 311.00
61.932 284.00
62.2362 366.00
62.5405 1014.00
62.8447 747.00
63.149 367.00
63.4533 459.00
63.7575 1086.00
64.0618 602.00
64.366 308.00
64.6703 298.00
64.9745 409.00
65.2788 1198.00
65.5831 441.00
65.8873 594.00
66.1916 837.00
66.4959 478.00
66.8001 746.00
67.1044 301.00
67.4086 293.00
67.7129 378.00
68.0172 350.00
68.3214 549.00
68.6257 686.00
68.9299 343.00
69.2342 451.00
69.5385 489.00
69.8427 259.00
70.147 339.00
70.4512 332.00
70.7555 386.00
71.0598 333.00
71.364 356.00
71.6683 421.00
71.9725 529.00
72.2768 312.00
72.5811 268.00
72.8853 258.00
73.1896 276.00
73.4938 296.00
73.7981 320.00
74.1024 760.00
74.4066 414.00
74.7109 264.00
75.0151 281.00
75.3194 394.00
75.6237 406.00
75.9279 206.00
76.2322 242.00
76.5364 276.00
76.8407 266.00
77.145 414.00
77.4492 437.00
77.7535 289.00
78.0577 459.00
78.362 712.00
78.6663 417.00
78.9705 583.00
79.2748 612.00
79.579 336.00
79.8833 232.00
80.1876 300.00
80.4918 261.00
80.7961 269.00
81.1003 328.00
81.4046 198.00
81.7089 250.00
82.0131 399.00
82.3174 303.00
82.6217 301.00
82.9259 284.00
83.2302 329.00
83.5344 275.00
83.8387 192.00
84.143 192.00
84.4472 246.00
84.7515 337.00
85.0557 356.00
85.36 224.00
85.6643 223.00
85.9685 214.00
86.2728 268.00
86.577 297.00
86.8813 319.00
87.1856 624.00
87.4898 430.00
87.7941 261.00
88.0983 222.00
88.4026 278.00
88.7069 542.00
89.0111 405.00
89.3154 517.00
89.6196 347.00
89.9239 258.00
90.2282 224.00
90.5324 256.00
90.8367 273.00
91.1409 225.00
91.4452 455.00
91.7495 335.00
92.0537 230.00
92.358 392.00
92.6622 273.00
92.9665 230.00
93.2708 291.00
93.575 364.00
93.8793 555.00
94.1835 384.00
94.4878 290.00
94.7921 270.00
95.0963 275.00
95.4006 305.00
95.7048 247.00
96.0091 295.00
96.3134 338.00
96.6176 324.00
96.9219 313.00
97.2261 280.00
97.5304 230.00
97.8347 205.00
98.1389 235.00
98.4432 277.00
98.7474 298.00
99.0517 362.00
99.356 287.00
99.6602 292.00
99.9645 523.00
100.095 605.00

File: NSC_121.xy
9.903433 2780.00
10.2077 2580.00
10.512 2434.00
10.8162 2332.00
11.1205 2290.00
11.4247 2246.00
11.729 2238.00
12.0333 2108.00
12.3375 2044.00
12.6418 1947.00
12.946 1910.00
13.2503 1839.00
13.5546 1932.00
13.8588 2873.00
14.1631 2467.00
14.4673 1687.00
14.7716 1726.00
15.0759 1707.00
15.3801 1640.00
15.6844 1668.00
15.9886 1606.00
16.2929 1623.00
16.5972 1521.00
16.9014 1537.00
17.2057 1507.00
17.5099 1498.00
17.8142 1495.00
18.1185 1477.00
18.4227 1587.00
18.727 1876.00
19.0312 1838.00
19.3355 6462.00
19.6398 6308.00
19.944 3767.00
20.2483 14650.00
20.5525 1984.00
20.8568 1554.00
21.1611 1549.00
21.4653 1943.00
21.7696 1868.00
22.0738 1366.00
22.3781 1298.00
22.6824 1314.00
22.9866 1506.00
23.2909 4066.00
23.5951 2705.00
23.8994 1332.00
24.2037 1411.00
24.5079 1320.00
24.8122 1263.00
25.1164 1158.00
25.4207 1166.00
25.725 1169.00
26.0292 1150.00
26.3335 1190.00
26.6378 1156.00
26.942 1069.00
27.2463 1095.00
27.5505 1170.00
27.8548 1344.00
28.1591 6861.00
28.4633 2549.00
28.7676 1203.00
29.0718 1112.00
29.3761 1064.00
29.6804 1024.00
29.9846 1064.00
30.2889 1119.00
30.5931 1363.00
30.8974 2307.00
31.2017 11837.00
31.5059 2325.00
31.8102 1311.00
32.1144 1264.00
32.4187 1027.00
32.723 999.00
33.0272 947.00
33.3315 1036.00
33.6357 1641.00
33.94 1134.00
34.2443 1134.00
34.5485 1247.00
34.8528 3243.00
35.157 3921.00
35.4613 6935.00
35.7656 1450.00
36.0698 1198.00
36.3741 1138.00
36.6783 963.00
36.9826 904.00
37.2869 896.00
37.5911 880.00
37.8954 953.00
38.1996 876.00
38.5039 845.00
38.8082 931.00
39.1124 866.00
39.4167 1092.00
39.7209 1672.00
40.0252 875.00
40.3295 868.00
40.6337 877.00
40.938 1341.00
41.2422 2408.00
41.5465 2105.00
41.8508 1000.00
42.155 943.00
42.4593 866.00
42.7635 1485.00
43.0678 2458.00
43.3721 966.00
43.6763 1216.00
43.9806 913.00
44.2849 852.00
44.5891 1160.00
44.8934 3289.00
45.1976 1175.00
45.5019 1038.00
45.8062 2590.00
46.1104 2024.00
46.4147 1502.00
46.7189 2059.00
47.0232 938.00
47.3275 948.00
47.6317 1256.00
47.936 4467.00
48.2402 1486.00
48.5445 1368.00
48.8488 949.00
49.153 916.00
49.4573 996.00
49.7615 977.00
50.0658 881.00
50.3701 918.00
50.6743 1431.00
50.9786 1488.00
51.2828 4156.00
51.5871 1508.00
51.8914 929.00
52.1956 811.00
52.4999 859.00
52.8041 819.00
53.1084 856.00
53.4127 784.00
53.7169 827.00
54.0212 1300.00
54.3254 1823.00
54.6297 1159.00
54.934 1902.00
55.2382 3700.00
55.5425 3271.00
55.8467 1137.00
56.151 889.00
56.4553 922.00
56.7595 982.00
57.0638 869.00
57.368 800.00
57.6723 928.00
57.9766 1207.00
58.2808 1880.00
58.5851 1400.00
58.8893 911.00
59.1936 858.00
59.4979 936.00
59.8021 2510.00
60.1064 1602.00
60.4106 1024.00
60.7149 1185.00
61.0192 2894.00
61.3234 1292.00
61.6277 954.00
61.932 1081.00
62.2362 1865.00
62.5405 1509.00
62.8447 977.00
63.149 1231.00
63.4533 1819.00
63.7575 1865.00
64.0618 1368.00
64.366 892.00
64.6703 785.00
64.9745 901.00
65.2788 915.00
65.5831 949.00
65.8873 1086.00
66.1916 2057.00
66.4959 1164.00
66.8001 857.00
67.1044 1404.00
67.4086 1583.00
67.7129 1688.00
68.0172 1161.00
68.3214 866.00
68.6257 988.00
68.9299 1165.00
69.2342 851.00
69.5385 811.00
69.8427 800.00
70.147 805.00
70.4512 847.00
70.7555 1085.00
71.0598 1732.00
71.364 948.00
71.6683 788.00
71.9725 817.00
72.2768 794.00
72.5811 789.00
72.8853 793.00
73.1896 809.00
73.4938 1079.00
73.7981 1497.00
74.1024 1074.00
74.4066 869.00
74.7109 1071.00
75.0151 1550.00
75.3194 1262.00
75.6237 1019.00
75.9279 790.00
76.2322 792.00
76.5364 774.00
76.8407 849.00
77.145 862.00
77.4492 990.00
77.7535 902.00
78.0577 867.00
78.362 1274.00
78.6663 1577.00
78.9705 1470.00
79.2748 1027.00
79.579 869.00
79.8833 995.00
80.1876 811.00
80.4918 840.00
80.7961 1079.00
81.1003 1276.00
81.4046 854.00
81.7089 795.00
82.0131 769.00
82.3174 940.00
82.6217 948.00
82.9259 797.00
83.2302 1111.00
83.5344 1288.00
83.8387 999.00
84.143 802.00
84.4472 809.00
84.7515 1117.00
85.0557 1040.00
85.36 1099.00
85.6643 1006.00
85.9685 1011.00
86.2728 1024.00
86.577 966.00
86.8813 1001.00
87.1856 768.00
87.4898 770.00
87.7941 870.00
88.0983 999.00
88.4026 934.00
88.7069 880.00
89.0111 1066.00
89.3154 1346.00
89.6196 1350.00
89.9239 1025.00
90.2282 901.00
90.5324 870.00
90.8367 877.00
91.1409 881.00
91.4452 1055.00
91.7495 1209.00
92.0537 1049.00
92.358 957.00
92.6622 924.00
92.9665 834.00
93.2708 797.00
93.575 860.00
93.8793 1116.00
94.1835 1039.00
94.4878 887.00
94.7921 896.00
95.0963 1383.00
95.4006 1109.00
95.7048 926.00
96.0091 1208.00
96.3134 1118.00
96.6176 1218.00
96.9219 1031.00
97.2261 881.00
97.5304 802.00
97.8347 725.00
98.1389 752.00
98.4432 790.00
98.7474 885.00
99.0517 929.00
99.356 999.00
99.6602 1010.00
99.9645 1140.00
100.095 1155.00

File: NSC_122.xy
9.903433 2651.00
10.2077 2705.00
10.512 2516.00
10.8162 2479.00
11.1205 2350.00
11.4247 2254.00
11.729 2223.00
12.0333 2195.00
12.3375 2083.00
12.6418 2045.00
12.946 1929.00
13.2503 1953.00
13.5546 1982.00
13.8588 1857.00
14.1631 1836.00
14.4673 1832.00
14.7716 2406.00
15.0759 7270.00
15.3801 3156.00
15.6844 1845.00
15.9886 1703.00
16.2929 1725.00
16.5972 1721.00
16.9014 1722.00
17.2057 1592.00
17.5099 1687.00
17.8142 2228.00
18.1185 1595.00
18.4227 1795.00
18.727 1544.00
19.0312 1460.00
19.3355 1481.00
19.6398 1489.00
19.944 1542.00
20.2483 1718.00
20.5525 2422.00
20.8568 18144.00
21.1611 3366.00
21.4653 3197.00
21.7696 8667.00
22.0738 7519.00
22.3781 1762.00
22.6824 1553.00
22.9866 1454.00
23.2909 1433.00
23.5951 1589.00
23.8994 1597.00
24.2037 1444.00
24.5079 1964.00
24.8122 3335.00
25.1164 12110.00
25.4207 8128.00
25.725 1614.00
26.0292 1356.00
26.3335 1389.00
26.6378 1399.00
26.942 1301.00
27.2463 1359.00
27.5505 1222.00
27.8548 1181.00
28.1591 1187.00
28.4633 1106.00
28.7676 1260.00
29.0718 1221.00
29.3761 1320.00
29.6804 1654.00
29.9846 3850.00
30.2889 9789.00
30.5931 4642.00
30.8974 1510.00
31.2017 1281.00
31.5059 1214.00
31.8102 1284.00
32.1144 1426.00
32.4187 1165.00
32.723 1302.00
33.0272 2701.00
33.3315 12056.00
33.6357 5151.00
33.94 2223.00
34.2443 1690.00
34.5485 1119.00
34.8528 1094.00
35.157 1038.00
35.4613 1034.00
35.7656 1854.00
36.0698 1175.00
36.3741 1103.00
36.6783 1068.00
36.9826 1407.00
37.2869 2204.00
37.5911 3421.00
37.8954 2880.00
38.1996 3000.00
38.5039 2119.00
38.8082 1443.00
39.1124 1001.00
39.4167 1058.00
39.7209 1025.00
40.0252 1136.00
40.3295 1459.00
40.6337 1266.00
40.938 1012.00
41.2422 860.00
41.5465 940.00
41.8508 953.00
42.155 1447.00
42.4593 1248.00
42.7635 1033.00
43.0678 907.00
43.3721 841.00
43.6763 1180.00
43.9806 2173.00
44.2849 1359.00
44.5891 1102.00
44.8934 1265.00
45.1976 1056.00
45.5019 1107.00
45.8062 1309.00
46.1104 1761.00
46.4147 1456.00
46.7189 1228.00
47.0232 1122.00
47.3275 1086.00
47.6317 1741.00
47.936 2817.00
48.2402 1860.00
48.5445 1300.00
48.8488 1362.00
49.153 1787.00
49.4573 2748.00
49.7615 2059.00
50.0658 1217.00
50.3701 958.00
50.6743 1207.00
50.9786 1879.00
51.2828 2370.00
51.5871 2320.00
51.8914 1834.00
52.1956 1256.00
52.4999 1001.00
52.8041 955.00
53.1084 914.00
53.4127 825.00
53.7169 846.00
54.0212 987.00
54.3254 1590.00
54.6297 3049.00
54.934 2128.00
55.2382 1351.00
55.5425 1199.00
55.8467 1203.00
56.151 1078.00
56.4553 896.00
56.7595 934.00
57.0638 980.00
57.368 1066.00
57.6723 1233.00
57.9766 1707.00
58.2808 1674.00
58.5851 1639.00
58.8893 1737.00
59.1936 2161.00
59.4979 2417.00
59.8021 2178.00
60.1064 1812.00
60.4106 1398.00
60.7149 1233.00
61.0192 1070.00
61.3234 1099.00
61.6277 1419.00
61.932 1285.00
62.2362 1155.00
62.5405 1226.00
62.8447 1167.00
63.149 1103.00
63.4533 1215.00
63.7575 1634.00
64.0618 1950.00
64.366 1621.00
64.6703 1356.00
64.9745 1172.00
65.2788 1265.00
65.5831 1539.00
65.8873 1649.00
66.1916 2310.00
66.4959 1749.00
66.8001 1036.00
67.1044 1018.00
67.4086 1110.00
67.7129 1113.00
68.0172 1380.00
68.3214 1536.00
68.6257 1647.00
68.9299 1399.00
69.2342 1479.00
69.5385 1358.00
69.8427 1037.00
70.147 1128.00
70.4512 1617.00
70.7555 1378.00
71.0598 1122.00
71.364 972.00
71.6683 879.00
71.9725 958.00
72.2768 1074.00
72.5811 1143.00
72.8853 1193.00
73.1896 1105.00
73.4938 903.00
73.7981 937.00
74.1024 982.00
74.4066 872.00
74.7109 942.00
75.0151 913.00
75.3194 966.00
75.6237 1031.00
75.9279 1008.00
76.2322 1057.00
76.5364 1099.00
76.8407 1176.00
77.145 1009.00
77.4492 1034.00
77.7535 974.00
78.0577 994.00
78.362 988.00
78.6663 1127.00
78.9705 1280.00
79.2748 1066.00
79.579 1055.00
79.8833 1073.00
80.1876 1123.00
80.4918 982.00
80.7961 991.00
81.1003 949.00
81.4046 979.00
81.7089 954.00
82.0131 954.00
82.3174 939.00
82.6217 953.00
82.9259 1013.00
83.2302 927.00
83.5344 912.00
83.8387 872.00
84.143 1067.00
84.4472 1022.00
84.7515 995.00
85.0557 1028.00
85.36 979.00
85.6643 880.00
85.9685 861.00
86.2728 952.00
86.577 1007.00
86.8813 1133.00
87.1856 1008.00
87.4898 980.00
87.7941 892.00
88.0983 821.00
88.4026 782.00
88.7069 820.00
89.0111 764.00
89.3154 824.00
89.6196 795.00
89.9239 909.00
90.2282 865.00
90.5324 994.00
90.8367 945.00
91.1409 917.00
91.4452 1031.00
91.7495 1106.00
92.0537 1238.00
92.358 1226.00
92.6622 1192.00
92.9665 989.00
93.2708 925.00
93.575 837.00
93.8793 774.00
94.1835 805.00
94.4878 775.00
94.7921 843.00
95.0963 909.00
95.4006 888.00
95.7048 890.00
96.0091 913.00
96.3134 959.00
96.6176 982.00
96.9219 1000.00
97.2261 1072.00
97.5304 964.00
97.8347 928.00
98.1389 928.00
98.4432 933.00
98.7474 931.00
99.0517 917.00
99.356 922.00
99.6602 865.00
99.9645 874.00
100.095 877.00