Folder: alab-pipeline/data/xrd_creation/results (part 62)

File: NSC_150.xy
9.903433 2471.00
10.2077 2483.00
10.512 2404.00
10.8162 2244.00
11.1205 2181.00
11.4247 2049.00
11.729 2036.00
12.0333 1936.00
12.3375 1816.00
12.6418 1809.00
12.946 1718.00
13.2503 1690.00
13.5546 1636.00
13.8588 1710.00
14.1631 1566.00
14.4673 1582.00
14.7716 1481.00
15.0759 1495.00
15.3801 1488.00
15.6844 1403.00
15.9886 1435.00
16.2929 1402.00
16.5972 1317.00
16.9014 1361.00
17.2057 1335.00
17.5099 1338.00
17.8142 1307.00
18.1185 1296.00
18.4227 1305.00
18.727 1309.00
19.0312 1267.00
19.3355 1290.00
19.6398 1272.00
19.944 1182.00
20.2483 1169.00
20.5525 1215.00
20.8568 1245.00
21.1611 1207.00
21.4653 1139.00
21.7696 1076.00
22.0738 1138.00
22.3781 1403.00
22.6824 6208.00
22.9866 6765.00
23.2909 2564.00
23.5951 1172.00
23.8994 1117.00
24.2037 1052.00
24.5079 1123.00
24.8122 1038.00
25.1164 1080.00
25.4207 1030.00
25.725 1052.00
26.0292 1029.00
26.3335 1037.00
26.6378 1011.00
26.942 1012.00
27.2463 988.00
27.5505 970.00
27.8548 968.00
28.1591 962.00
28.4633 907.00
28.7676 902.00
29.0718 924.00
29.3761 883.00
29.6804 878.00
29.9846 890.00
30.2889 951.00
30.5931 843.00
30.8974 905.00
31.2017 887.00
31.5059 911.00
31.8102 1029.00
32.1144 1329.00
32.4187 8928.00
32.723 10672.00
33.0272 2118.00
33.3315 1005.00
33.6357 822.00
33.94 788.00
34.2443 818.00
34.5485 801.00
34.8528 861.00
35.157 760.00
35.4613 801.00
35.7656 778.00
36.0698 759.00
36.3741 743.00
36.6783 765.00
36.9826 753.00
37.2869 781.00
37.5911 709.00
37.8954 693.00
38.1996 696.00
38.5039 788.00
38.8082 723.00
39.1124 670.00
39.4167 731.00
39.7209 754.00
40.0252 1678.00
40.3295 2026.00
40.6337 988.00
40.938 686.00
41.2422 652.00
41.5465 703.00
41.8508 662.00
42.155 681.00
42.4593 620.00
42.7635 640.00
43.0678 655.00
43.3721 677.00
43.6763 690.00
43.9806 637.00
44.2849 716.00
44.5891 640.00
44.8934 639.00
45.1976 645.00
45.5019 688.00
45.8062 727.00
46.1104 715.00
46.4147 1323.00
46.7189 4104.00
47.0232 2975.00
47.3275 736.00
47.6317 719.00
47.936 689.00
48.2402 680.00
48.5445 685.00
48.8488 641.00
49.153 682.00
49.4573 658.00
49.7615 633.00
50.0658 691.00
50.3701 665.00
50.6743 673.00
50.9786 698.00
51.2828 704.00
51.5871 706.00
51.8914 744.00
52.1956 1103.00
52.4999 4744.00
52.8041 6017.00
53.1084 1281.00
53.4127 712.00
53.7169 702.00
54.0212 652.00
54.3254 682.00
54.6297 636.00
54.934 669.00
55.2382 627.00
55.5425 639.00
55.8467 637.00
56.151 650.00
56.4553 641.00
56.7595 693.00
57.0638 667.00
57.368 799.00
57.6723 1317.00
57.9766 4686.00
58.2808 5150.00
58.5851 1468.00
58.8893 701.00
59.1936 655.00
59.4979 624.00
59.8021 658.00
60.1064 658.00
60.4106 656.00
60.7149 688.00
61.0192 683.00
61.3234 624.00
61.6277 617.00
61.932 609.00
62.2362 629.00
62.5405 650.00
62.8447 652.00
63.149 700.00
63.4533 663.00
63.7575 672.00
64.0618 650.00
64.366 596.00
64.6703 633.00
64.9745 630.00
65.2788 630.00
65.5831 615.00
65.8873 641.00
66.1916 634.00
66.4959 655.00
66.8001 694.00
67.1044 613.00
67.4086 638.00
67.7129 877.00
68.0172 2225.00
68.3214 2771.00
68.6257 1122.00
68.9299 695.00
69.2342 649.00
69.5385 597.00
69.8427 610.00
70.147 675.00
70.4512 599.00
70.7555 661.00
71.0598 666.00
71.364 640.00
71.6683 684.00
71.9725 667.00
72.2768 742.00
72.5811 1332.00
72.8853 2878.00
73.1896 2327.00
73.4938 1001.00
73.7981 671.00
74.1024 639.00
74.4066 665.00
74.7109 643.00
75.0151 694.00
75.3194 670.00
75.6237 677.00
75.9279 661.00
76.2322 671.00
76.5364 623.00
76.8407 645.00
77.145 839.00
77.4492 2303.00
77.7535 2585.00
78.0577 1100.00
78.362 678.00
78.6663 652.00
78.9705 696.00
79.2748 643.00
79.579 633.00
79.8833 587.00
80.1876 599.00
80.4918 622.00
80.7961 677.00
81.1003 655.00
81.4046 682.00
81.7089 803.00
82.0131 1460.00
82.3174 1516.00
82.6217 962.00
82.9259 737.00
83.2302 668.00
83.5344 641.00
83.8387 655.00
84.143 630.00
84.4472 624.00
84.7515 648.00
85.0557 677.00
85.36 644.00
85.6643 627.00
85.9685 750.00
86.2728 926.00
86.577 1071.00
86.8813 1073.00
87.1856 852.00
87.4898 673.00
87.7941 593.00
88.0983 632.00
88.4026 622.00
88.7069 659.00
89.0111 658.00
89.3154 639.00
89.6196 622.00
89.9239 697.00
90.2282 635.00
90.5324 727.00
90.8367 1074.00
91.1409 1753.00
91.4452 1226.00
91.7495 883.00
92.0537 665.00
92.358 693.00
92.6622 714.00
92.9665 614.00
93.2708 638.00
93.575 666.00
93.8793 663.00
94.1835 617.00
94.4878 635.00
94.7921 794.00
95.0963 1096.00
95.4006 2254.00
95.7048 2750.00
96.0091 2124.00
96.3134 1182.00
96.6176 822.00
96.9219 693.00
97.2261 702.00
97.5304 654.00
97.8347 696.00
98.1389 662.00
98.4432 634.00
98.7474 616.00
99.0517 689.00
99.356 642.00
99.6602 691.00
99.9645 693.00
100.095 665.00

File: NSC_151.xy
9.903433 2589.00
10.2077 2434.00
10.512 2281.00
10.8162 2188.00
11.1205 2126.00
11.4247 2090.00
11.729 1900.00
12.0333 1845.00
12.3375 1748.00
12.6418 1743.00
12.946 1679.00
13.2503 1709.00
13.5546 1574.00
13.8588 1444.00
14.1631 1516.00
14.4673 1393.00
14.7716 1446.00
15.0759 1313.00
15.3801 1253.00
15.6844 1251.00
15.9886 1303.00
16.2929 1316.00
16.5972 1219.00
16.9014 1233.00
17.2057 1194.00
17.5099 1197.00
17.8142 1148.00
18.1185 1021.00
18.4227 1095.00
18.727 1076.00
19.0312 1022.00
19.3355 923.00
19.6398 944.00
19.944 1026.00
20.2483 1166.00
20.5525 947.00
20.8568 843.00
21.1611 860.00
21.4653 861.00
21.7696 841.00
22.0738 787.00
22.3781 837.00
22.6824 827.00
22.9866 813.00
23.2909 814.00
23.5951 706.00
23.8994 713.00
24.2037 700.00
24.5079 703.00
24.8122 641.00
25.1164 697.00
25.4207 659.00
25.725 640.00
26.0292 671.00
26.3335 686.00
26.6378 577.00
26.942 637.00
27.2463 644.00
27.5505 633.00
27.8548 626.00
28.1591 634.00
28.4633 595.00
28.7676 584.00
29.0718 581.00
29.3761 560.00
29.6804 551.00
29.9846 568.00
30.2889 555.00
30.5931 542.00
30.8974 513.00
31.2017 518.00
31.5059 511.00
31.8102 483.00
32.1144 473.00
32.4187 599.00
32.723 512.00
33.0272 619.00
33.3315 1021.00
33.6357 516.00
33.94 449.00
34.2443 499.00
34.5485 483.00
34.8528 417.00
35.157 447.00
35.4613 413.00
35.7656 420.00
36.0698 479.00
36.3741 384.00
36.6783 423.00
36.9826 390.00
37.2869 425.00
37.5911 403.00
37.8954 379.00
38.1996 414.00
38.5039 397.00
38.8082 355.00
39.1124 385.00
39.4167 401.00
39.7209 401.00
40.0252 349.00
40.3295 331.00
40.6337 327.00
40.938 341.00
41.2422 369.00
41.5465 306.00
41.8508 297.00
42.155 330.00
42.4593 320.00
42.7635 311.00
43.0678 346.00
43.3721 305.00
43.6763 324.00
43.9806 366.00
44.2849 290.00
44.5891 295.00
44.8934 250.00
45.1976 294.00
45.5019 297.00
45.8062 310.00
46.1104 292.00
46.4147 274.00
46.7189 286.00
47.0232 243.00
47.3275 256.00
47.6317 372.00
47.936 341.00
48.2402 316.00
48.5445 281.00
48.8488 287.00
49.153 242.00
49.4573 279.00
49.7615 280.00
50.0658 292.00
50.3701 257.00
50.6743 281.00
50.9786 244.00
51.2828 260.00
51.5871 246.00
51.8914 257.00
52.1956 275.00
52.4999 281.00
52.8041 239.00
53.1084 245.00
53.4127 246.00
53.7169 285.00
54.0212 261.00
54.3254 211.00
54.6297 210.00
54.934 250.00
55.2382 234.00
55.5425 246.00
55.8467 236.00
56.151 286.00
56.4553 240.00
56.7595 228.00
57.0638 229.00
57.368 249.00
57.6723 237.00
57.9766 225.00
58.2808 218.00
58.5851 202.00
58.8893 241.00
59.1936 233.00
59.4979 297.00
59.8021 232.00
60.1064 197.00
60.4106 193.00
60.7149 197.00
61.0192 200.00
61.3234 208.00
61.6277 189.00
61.932 186.00
62.2362 203.00
62.5405 215.00
62.8447 202.00
63.149 190.00
63.4533 204.00
63.7575 197.00
64.0618 211.00
64.366 205.00
64.6703 167.00
64.9745 188.00
65.2788 207.00
65.5831 178.00
65.8873 197.00
66.1916 212.00
66.4959 203.00
66.8001 204.00
67.1044 190.00
67.4086 200.00
67.7129 205.00
68.0172 201.00
68.3214 207.00
68.6257 198.00
68.9299 222.00
69.2342 198.00
69.5385 213.00
69.8427 187.00
70.147 196.00
70.4512 184.00
70.7555 206.00
71.0598 164.00
71.364 193.00
71.6683 190.00
71.9725 206.00
72.2768 184.00
72.5811 201.00
72.8853 187.00
73.1896 205.00
73.4938 186.00
73.7981 199.00
74.1024 186.00
74.4066 213.00
74.7109 214.00
75.0151 210.00
75.3194 198.00
75.6237 211.00
75.9279 206.00
76.2322 190.00
76.5364 205.00
76.8407 208.00
77.145 190.00
77.4492 197.00
77.7535 195.00
78.0577 228.00
78.362 224.00
78.6663 221.00
78.9705 227.00
79.2748 247.00
79.579 259.00
79.8833 256.00
80.1876 219.00
80.4918 222.00
80.7961 219.00
81.1003 221.00
81.4046 200.00
81.7089 226.00
82.0131 225.00
82.3174 186.00
82.6217 234.00
82.9259 242.00
83.2302 229.00
83.5344 217.00
83.8387 205.00
84.143 218.00
84.4472 221.00
84.7515 200.00
85.0557 201.00
85.36 192.00
85.6643 195.00
85.9685 200.00
86.2728 210.00
86.577 191.00
86.8813 226.00
87.1856 185.00
87.4898 195.00
87.7941 169.00
88.0983 178.00
88.4026 182.00
88.7069 192.00
89.0111 175.00
89.3154 214.00
89.6196 189.00
89.9239 190.00
90.2282 169.00
90.5324 173.00
90.8367 172.00
91.1409 180.00
91.4452 189.00
91.7495 200.00
92.0537 198.00
92.358 180.00
92.6622 186.00
92.9665 192.00
93.2708 169.00
93.575 184.00
93.8793 181.00
94.1835 174.00
94.4878 192.00
94.7921 175.00
95.0963 184.00
95.4006 176.00
95.7048 194.00
96.0091 187.00
96.3134 185.00
96.6176 167.00
96.9219 185.00
97.2261 183.00
97.5304 156.00
97.8347 186.00
98.1389 201.00
98.4432 194.00
98.7474 159.00
99.0517 192.00
99.356 161.00
99.6602 192.00
99.9645 173.00
100.095 164.00

File: NSC_153.xy
9.903433 2612.00
10.2077 2326.00
10.512 2272.00
10.8162 2199.00
11.1205 2117.00
11.4247 2032.00
11.729 1964.00
12.0333 1854.00
12.3375 1853.00
12.6418 1702.00
12.946 1565.00
13.2503 1561.00
13.5546 1555.00
13.8588 1522.00
14.1631 1364.00
14.4673 1403.00
14.7716 1334.00
15.0759 1319.00
15.3801 1333.00
15.6844 1225.00
15.9886 1218.00
16.2929 1249.00
16.5972 1182.00
16.9014 1123.00
17.2057 1173.00
17.5099 1122.00
17.8142 1116.00
18.1185 1031.00
18.4227 1074.00
18.727 1023.00
19.0312 964.00
19.3355 974.00
19.6398 908.00
19.944 916.00
20.2483 901.00
20.5525 890.00
20.8568 877.00
21.1611 799.00
21.4653 861.00
21.7696 788.00
22.0738 830.00
22.3781 815.00
22.6824 775.00
22.9866 746.00
23.2909 761.00
23.5951 779.00
23.8994 707.00
24.2037 700.00
24.5079 677.00
24.8122 674.00
25.1164 693.00
25.4207 674.00
25.725 692.00
26.0292 619.00
26.3335 651.00
26.6378 622.00
26.942 619.00
27.2463 639.00
27.5505 613.00
27.8548 577.00
28.1591 582.00
28.4633 580.00
28.7676 573.00
29.0718 535.00
29.3761 575.00
29.6804 547.00
29.9846 548.00
30.2889 562.00
30.5931 546.00
30.8974 516.00
31.2017 503.00
31.5059 471.00
31.8102 504.00
32.1144 479.00
32.4187 506.00
32.723 460.00
33.0272 526.00
33.3315 459.00
33.6357 452.00
33.94 437.00
34.2443 439.00
34.5485 422.00
34.8528 420.00
35.157 421.00
35.4613 456.00
35.7656 374.00
36.0698 410.00
36.3741 412.00
36.6783 367.00
36.9826 391.00
37.2869 339.00
37.5911 372.00
37.8954 361.00
38.1996 340.00
38.5039 384.00
38.8082 391.00
39.1124 418.00
39.4167 373.00
39.7209 325.00
40.0252 315.00
40.3295 344.00
40.6337 361.00
40.938 359.00
41.2422 337.00
41.5465 331.00
41.8508 331.00
42.155 322.00
42.4593 292.00
42.7635 291.00
43.0678 313.00
43.3721 287.00
43.6763 314.00
43.9806 298.00
44.2849 305.00
44.5891 289.00
44.8934 308.00
45.1976 278.00
45.5019 357.00
45.8062 243.00
46.1104 310.00
46.4147 274.00
46.7189 289.00
47.0232 249.00
47.3275 276.00
47.6317 273.00
47.936 272.00
48.2402 282.00
48.5445 276.00
48.8488 256.00
49.153 295.00
49.4573 289.00
49.7615 217.00
50.0658 269.00
50.3701 233.00
50.6743 266.00
50.9786 236.00
51.2828 270.00
51.5871 240.00
51.8914 272.00
52.1956 259.00
52.4999 240.00
52.8041 257.00
53.1084 233.00
53.4127 241.00
53.7169 233.00
54.0212 235.00
54.3254 238.00
54.6297 214.00
54.934 222.00
55.2382 257.00
55.5425 234.00
55.8467 216.00
56.151 210.00
56.4553 226.00
56.7595 211.00
57.0638 216.00
57.368 217.00
57.6723 208.00
57.9766 180.00
58.2808 206.00
58.5851 225.00
58.8893 211.00
59.1936 194.00
59.4979 190.00
59.8021 192.00
60.1064 217.00
60.4106 193.00
60.7149 196.00
61.0192 206.00
61.3234 180.00
61.6277 197.00
61.932 206.00
62.2362 217.00
62.5405 223.00
62.8447 188.00
63.149 193.00
63.4533 204.00
63.7575 211.00
64.0618 159.00
64.366 169.00
64.6703 170.00
64.9745 202.00
65.2788 186.00
65.5831 184.00
65.8873 194.00
66.1916 180.00
66.4959 168.00
66.8001 189.00
67.1044 196.00
67.4086 193.00
67.7129 193.00
68.0172 174.00
68.3214 164.00
68.6257 186.00
68.9299 187.00
69.2342 194.00
69.5385 183.00
69.8427 199.00
70.147 178.00
70.4512 192.00
70.7555 202.00
71.0598 193.00
71.364 191.00
71.6683 203.00
71.9725 188.00
72.2768 203.00
72.5811 173.00
72.8853 205.00
73.1896 184.00
73.4938 202.00
73.7981 193.00
74.1024 207.00
74.4066 199.00
74.7109 186.00
75.0151 224.00
75.3194 227.00
75.6237 190.00
75.9279 190.00
76.2322 205.00
76.5364 170.00
76.8407 212.00
77.145 204.00
77.4492 196.00
77.7535 218.00
78.0577 232.00
78.362 203.00
78.6663 231.00
78.9705 196.00
79.2748 221.00
79.579 210.00
79.8833 193.00
80.1876 203.00
80.4918 196.00
80.7961 204.00
81.1003 244.00
81.4046 215.00
81.7089 208.00
82.0131 232.00
82.3174 240.00
82.6217 172.00
82.9259 208.00
83.2302 221.00
83.5344 222.00
83.8387 186.00
84.143 206.00
84.4472 197.00
84.7515 207.00
85.0557 199.00
85.36 179.00
85.6643 202.00
85.9685 213.00
86.2728 209.00
86.577 204.00
86.8813 197.00
87.1856 189.00
87.4898 202.00
87.7941 205.00
88.0983 200.00
88.4026 189.00
88.7069 186.00
89.0111 177.00
89.3154 197.00
89.6196 186.00
89.9239 184.00
90.2282 174.00
90.5324 176.00
90.8367 192.00
91.1409 153.00
91.4452 188.00
91.7495 189.00
92.0537 193.00
92.358 204.00
92.6622 182.00
92.9665 174.00
93.2708 171.00
93.575 161.00
93.8793 158.00
94.1835 189.00
94.4878 191.00
94.7921 177.00
95.0963 200.00
95.4006 185.00
95.7048 186.00
96.0091 178.00
96.3134 185.00
96.6176 183.00
96.9219 189.00
97.2261 162.00
97.5304 206.00
97.8347 148.00
98.1389 189.00
98.4432 151.00
98.7474 156.00
99.0517 170.00
99.356 175.00
99.6602 171.00
99.9645 178.00
100.095 187.00

File: NSC_154.xy
9.903433 2564.00
10.2077 2414.00
10.512 2312.00
10.8162 2207.00
11.1205 2117.00
11.4247 2042.00
11.729 2253.00
12.0333 1874.00
12.3375 1836.00
12.6418 1793.00
12.946 1657.00
13.2503 1561.00
13.5546 1517.00
13.8588 1488.00
14.1631 1512.00
14.4673 1332.00
14.7716 1336.00
15.0759 1248.00
15.3801 1319.00
15.6844 1288.00
15.9886 1242.00
16.2929 1281.00
16.5972 1235.00
16.9014 1183.00
17.2057 1145.00
17.5099 1151.00
17.8142 1105.00
18.1185 1060.00
18.4227 1060.00
18.727 1029.00
19.0312 977.00
19.3355 985.00
19.6398 995.00
19.944 898.00
20.2483 938.00
20.5525 921.00
20.8568 886.00
21.1611 876.00
21.4653 863.00
21.7696 869.00
22.0738 812.00
22.3781 791.00
22.6824 799.00
22.9866 825.00
23.2909 776.00
23.5951 779.00
23.8994 761.00
24.2037 722.00
24.5079 766.00
24.8122 719.00
25.1164 682.00
25.4207 675.00
25.725 687.00
26.0292 708.00
26.3335 645.00
26.6378 662.00
26.942 672.00
27.2463 681.00
27.5505 667.00
27.8548 632.00
28.1591 613.00
28.4633 643.00
28.7676 581.00
29.0718 604.00
29.3761 623.00
29.6804 630.00
29.9846 782.00
30.2889 608.00
30.5931 591.00
30.8974 572.00
31.2017 563.00
31.5059 568.00
31.8102 557.00
32.1144 573.00
32.4187 537.00
32.723 499.00
33.0272 498.00
33.3315 626.00
33.6357 496.00
33.94 506.00
34.2443 495.00
34.5485 420.00
34.8528 429.00
35.157 404.00
35.4613 418.00
35.7656 457.00
36.0698 408.00
36.3741 397.00
36.6783 422.00
36.9826 388.00
37.2869 373.00
37.5911 347.00
37.8954 400.00
38.1996 446.00
38.5039 376.00
38.8082 411.00
39.1124 384.00
39.4167 376.00
39.7209 342.00
40.0252 367.00
40.3295 370.00
40.6337 338.00
40.938 337.00
41.2422 388.00
41.5465 324.00
41.8508 337.00
42.155 349.00
42.4593 314.00
42.7635 312.00
43.0678 307.00
43.3721 379.00
43.6763 345.00
43.9806 331.00
44.2849 357.00
44.5891 340.00
44.8934 308.00
45.1976 294.00
45.5019 296.00
45.8062 288.00
46.1104 334.00
46.4147 293.00
46.7189 330.00
47.0232 276.00
47.3275 257.00
47.6317 298.00
47.936 291.00
48.2402 330.00
48.5445 360.00
48.8488 296.00
49.153 272.00
49.4573 265.00
49.7615 289.00
50.0658 311.00
50.3701 234.00
50.6743 249.00
50.9786 270.00
51.2828 260.00
51.5871 265.00
51.8914 298.00
52.1956 303.00
52.4999 297.00
52.8041 270.00
53.1084 268.00
53.4127 266.00
53.7169 236.00
54.0212 220.00
54.3254 239.00
54.6297 256.00
54.934 268.00
55.2382 224.00
55.5425 237.00
55.8467 242.00
56.151 236.00
56.4553 241.00
56.7595 262.00
57.0638 219.00
57.368 229.00
57.6723 231.00
57.9766 269.00
58.2808 225.00
58.5851 236.00
58.8893 214.00
59.1936 222.00
59.4979 205.00
59.8021 209.00
60.1064 224.00
60.4106 221.00
60.7149 248.00
61.0192 217.00
61.3234 224.00
61.6277 180.00
61.932 195.00
62.2362 209.00
62.5405 241.00
62.8447 184.00
63.149 206.00
63.4533 180.00
63.7575 210.00
64.0618 204.00
64.366 181.00
64.6703 203.00
64.9745 193.00
65.2788 199.00
65.5831 193.00
65.8873 201.00
66.1916 196.00
66.4959 217.00
66.8001 239.00
67.1044 206.00
67.4086 205.00
67.7129 212.00
68.0172 177.00
68.3214 172.00
68.6257 167.00
68.9299 176.00
69.2342 190.00
69.5385 215.00
69.8427 197.00
70.147 206.00
70.4512 198.00
70.7555 177.00
71.0598 205.00
71.364 173.00
71.6683 199.00
71.9725 167.00
72.2768 192.00
72.5811 212.00
72.8853 199.00
73.1896 206.00
73.4938 207.00
73.7981 177.00
74.1024 197.00
74.4066 189.00
74.7109 187.00
75.0151 205.00
75.3194 209.00
75.6237 218.00
75.9279 218.00
76.2322 231.00
76.5364 223.00
76.8407 225.00
77.145 229.00
77.4492 224.00
77.7535 185.00
78.0577 208.00
78.362 220.00
78.6663 196.00
78.9705 230.00
79.2748 232.00
79.579 258.00
79.8833 202.00
80.1876 212.00
80.4918 224.00
80.7961 221.00
81.1003 248.00
81.4046 214.00
81.7089 206.00
82.0131 226.00
82.3174 241.00
82.6217 235.00
82.9259 212.00
83.2302 208.00
83.5344 194.00
83.8387 225.00
84.143 221.00
84.4472 210.00
84.7515 213.00
85.0557 219.00
85.36 196.00
85.6643 183.00
85.9685 203.00
86.2728 192.00
86.577 206.00
86.8813 210.00
87.1856 198.00
87.4898 190.00
87.7941 200.00
88.0983 212.00
88.4026 178.00
88.7069 204.00
89.0111 192.00
89.3154 187.00
89.6196 171.00
89.9239 205.00
90.2282 178.00
90.5324 188.00
90.8367 171.00
91.1409 191.00
91.4452 190.00
91.7495 177.00
92.0537 192.00
92.358 185.00
92.6622 172.00
92.9665 193.00
93.2708 168.00
93.575 191.00
93.8793 200.00
94.1835 167.00
94.4878 194.00
94.7921 224.00
95.0963 173.00
95.4006 185.00
95.7048 155.00
96.0091 167.00
96.3134 173.00
96.6176 174.00
96.9219 170.00
97.2261 191.00
97.5304 190.00
97.8347 182.00
98.1389 178.00
98.4432 170.00
98.7474 187.00
99.0517 177.00
99.356 162.00
99.6602 175.00
99.9645 197.00
100.095 190.00

File: NSC_155.xy
9.903433 2604.00
10.2077 2434.00
10.512 2356.00
10.8162 2212.00
11.1205 2139.00
11.4247 2105.00
11.729 2094.00
12.0333 2057.00
12.3375 1966.00
12.6418 1854.00
12.946 1864.00
13.2503 1840.00
13.5546 1781.00
13.8588 1665.00
14.1631 1656.00
14.4673 1524.00
14.7716 1609.00
15.0759 1589.00
15.3801 1526.00
15.6844 1596.00
15.9886 1912.00
16.2929 2547.00
16.5972 3382.00
16.9014 1568.00
17.2057 1602.00
17.5099 1435.00
17.8142 1373.00
18.1185 1342.00
18.4227 1336.00
18.727 1321.00
19.0312 1349.00
19.3355 1374.00
19.6398 1283.00
19.944 1211.00
20.2483 1295.00
20.5525 1376.00
20.8568 1882.00
21.1611 1876.00
21.4653 1444.00
21.7696 1267.00
22.0738 1208.00
22.3781 1151.00
22.6824 1140.00
22.9866 1192.00
23.2909 1170.00
23.5951 1107.00
23.8994 1092.00
24.2037 1027.00
24.5079 988.00
24.8122 1040.00
25.1164 1016.00
25.4207 1072.00
25.725 968.00
26.0292 999.00
26.3335 923.00
26.6378 959.00
26.942 925.00
27.2463 932.00
27.5505 873.00
27.8548 909.00
28.1591 920.00
28.4633 896.00
28.7676 943.00
29.0718 936.00
29.3761 1156.00
29.6804 1217.00
29.9846 1035.00
30.2889 1011.00
30.5931 2128.00
30.8974 2510.00
31.2017 988.00
31.5059 888.00
31.8102 829.00
32.1144 1029.00
32.4187 1879.00
32.723 2738.00
33.0272 1734.00
33.3315 1327.00
33.6357 1670.00
33.94 2241.00
34.2443 2775.00
34.5485 2215.00
34.8528 2297.00
35.157 1140.00
35.4613 1226.00
35.7656 1293.00
36.0698 839.00
36.3741 769.00
36.6783 748.00
36.9826 844.00
37.2869 951.00
37.5911 908.00
37.8954 835.00
38.1996 832.00
38.5039 876.00
38.8082 2243.00
39.1124 3042.00
39.4167 2183.00
39.7209 828.00
40.0252 790.00
40.3295 689.00
40.6337 694.00
40.938 713.00
41.2422 732.00
41.5465 689.00
41.8508 722.00
42.155 797.00
42.4593 1084.00
42.7635 1394.00
43.0678 710.00
43.3721 665.00
43.6763 625.00
43.9806 656.00
44.2849 647.00
44.5891 563.00
44.8934 612.00
45.1976 637.00
45.5019 611.00
45.8062 756.00
46.1104 714.00
46.4147 587.00
46.7189 598.00
47.0232 541.00
47.3275 551.00
47.6317 589.00
47.936 699.00
48.2402 753.00
48.5445 658.00
48.8488 577.00
49.153 599.00
49.4573 770.00
49.7615 808.00
50.0658 773.00
50.3701 789.00
50.6743 873.00
50.9786 1437.00
51.2828 1608.00
51.5871 763.00
51.8914 593.00
52.1956 637.00
52.4999 724.00
52.8041 626.00
53.1084 579.00
53.4127 495.00
53.7169 501.00
54.0212 562.00
54.3254 562.00
54.6297 669.00
54.934 566.00
55.2382 626.00
55.5425 1300.00
55.8467 1759.00
56.151 802.00
56.4553 715.00
56.7595 856.00
57.0638 1400.00
57.368 1146.00
57.6723 627.00
57.9766 562.00
58.2808 455.00
58.5851 512.00
58.8893 556.00
59.1936 646.00
59.4979 900.00
59.8021 1211.00
60.1064 835.00
60.4106 559.00
60.7149 901.00
61.0192 1081.00
61.3234 661.00
61.6277 700.00
61.932 876.00
62.2362 775.00
62.5405 605.00
62.8447 518.00
63.149 487.00
63.4533 464.00
63.7575 560.00
64.0618 559.00
64.366 517.00
64.6703 476.00
64.9745 514.00
65.2788 585.00
65.5831 576.00
65.8873 822.00
66.1916 937.00
66.4959 754.00
66.8001 636.00
67.1044 829.00
67.4086 1122.00
67.7129 908.00
68.0172 751.00
68.3214 748.00
68.6257 600.00
68.9299 618.00
69.2342 478.00
69.5385 480.00
69.8427 485.00
70.147 440.00
70.4512 432.00
70.7555 500.00
71.0598 636.00
71.364 989.00
71.6683 738.00
71.9725 689.00
72.2768 483.00
72.5811 453.00
72.8853 473.00
73.1896 447.00
73.4938 529.00
73.7981 612.00
74.1024 468.00
74.4066 435.00
74.7109 421.00
75.0151 468.00
75.3194 473.00
75.6237 394.00
75.9279 375.00
76.2322 400.00
76.5364 455.00
76.8407 420.00
77.145 393.00
77.4492 428.00
77.7535 387.00
78.0577 425.00
78.362 422.00
78.6663 363.00
78.9705 434.00
79.2748 597.00
79.579 565.00
79.8833 559.00
80.1876 508.00
80.4918 407.00
80.7961 378.00
81.1003 404.00
81.4046 398.00
81.7089 375.00
82.0131 445.00
82.3174 393.00
82.6217 386.00
82.9259 453.00
83.2302 502.00
83.5344 663.00
83.8387 765.00
84.143 567.00
84.4472 454.00
84.7515 429.00
85.0557 369.00
85.36 358.00
85.6643 382.00
85.9685 480.00
86.2728 397.00
86.577 359.00
86.8813 385.00
87.1856 382.00
87.4898 418.00
87.7941 386.00
88.0983 410.00
88.4026 401.00
88.7069 406.00
89.0111 394.00
89.3154 385.00
89.6196 391.00
89.9239 433.00
90.2282 367.00
90.5324 384.00
90.8367 432.00
91.1409 560.00
91.4452 404.00
91.7495 367.00
92.0537 380.00
92.358 378.00
92.6622 475.00
92.9665 484.00
93.2708 460.00
93.575 440.00
93.8793 543.00
94.1835 506.00
94.4878 550.00
94.7921 606.00
95.0963 622.00
95.4006 760.00
95.7048 606.00
96.0091 424.00
96.3134 436.00
96.6176 490.00
96.9219 420.00
97.2261 458.00
97.5304 642.00
97.8347 713.00
98.1389 611.00
98.4432 495.00
98.7474 389.00
99.0517 351.00
99.356 380.00
99.6602 453.00
99.9645 505.00
100.095 443.00