Folder: alab-pipeline/data/xrd_creation/results (part 34)

File: Na_-4.xy
9.903433 2797.00
10.2077 2622.00
10.512 2637.00
10.8162 2566.00
11.1205 2477.00
11.4247 2438.00
11.729 2712.00
12.0333 2227.00
12.3375 2174.00
12.6418 2110.00
12.946 2140.00
13.2503 1959.00
13.5546 1945.00
13.8588 1933.00
14.1631 1965.00
14.4673 1818.00
14.7716 1859.00
15.0759 1783.00
15.3801 1666.00
15.6844 1649.00
15.9886 1655.00
16.2929 1689.00
16.5972 1629.00
16.9014 1594.00
17.2057 1549.00
17.5099 1784.00
17.8142 3271.00
18.1185 1450.00
18.4227 1503.00
18.727 1648.00
19.0312 1543.00
19.3355 1659.00
19.6398 1494.00
19.944 1492.00
20.2483 3285.00
20.5525 1926.00
20.8568 1333.00
21.1611 1643.00
21.4653 1578.00
21.7696 1610.00
22.0738 1355.00
22.3781 1434.00
22.6824 4234.00
22.9866 1540.00
23.2909 3900.00
23.5951 2469.00
23.8994 1257.00
24.2037 1176.00
24.5079 1179.00
24.8122 1073.00
25.1164 1066.00
25.4207 3184.00
25.725 2112.00
26.0292 1178.00
26.3335 1166.00
26.6378 1494.00
26.942 1880.00
27.2463 950.00
27.5505 1028.00
27.8548 893.00
28.1591 1338.00
28.4633 1014.00
28.7676 1036.00
29.0718 1807.00
29.3761 1356.00
29.6804 6194.00
29.9846 1167.00
30.2889 1091.00
30.5931 872.00
30.8974 1183.00
31.2017 2103.00
31.5059 1600.00
31.8102 3795.00
32.1144 1842.00
32.4187 3417.00
32.723 3174.00
33.0272 2915.00
33.3315 3980.00
33.6357 1680.00
33.94 1433.00
34.2443 2129.00
34.5485 1720.00
34.8528 1202.00
35.157 1086.00
35.4613 1115.00
35.7656 1087.00
36.0698 927.00
36.3741 1375.00
36.6783 785.00
36.9826 927.00
37.2869 821.00
37.5911 1252.00
37.8954 641.00
38.1996 652.00
38.5039 810.00
38.8082 1034.00
39.1124 799.00
39.4167 868.00
39.7209 1404.00
40.0252 722.00
40.3295 1097.00
40.6337 672.00
40.938 978.00
41.2422 1188.00
41.5465 740.00
41.8508 1313.00
42.155 682.00
42.4593 864.00
42.7635 687.00
43.0678 722.00
43.3721 1258.00
43.6763 1295.00
43.9806 1631.00
44.2849 785.00
44.5891 631.00
44.8934 641.00
45.1976 627.00
45.5019 792.00
45.8062 916.00
46.1104 1231.00
46.4147 746.00
46.7189 688.00
47.0232 1168.00
47.3275 1919.00
47.6317 1863.00
47.936 1468.00
48.2402 692.00
48.5445 665.00
48.8488 1052.00
49.153 577.00
49.4573 574.00
49.7615 818.00
50.0658 640.00
50.3701 573.00
50.6743 477.00
50.9786 642.00
51.2828 555.00
51.5871 552.00
51.8914 855.00
52.1956 785.00
52.4999 902.00
52.8041 1360.00
53.1084 720.00
53.4127 939.00
53.7169 806.00
54.0212 682.00
54.3254 651.00
54.6297 868.00
54.934 752.00
55.2382 638.00
55.5425 448.00
55.8467 511.00
56.151 639.00
56.4553 701.00
56.7595 824.00
57.0638 886.00
57.368 1085.00
57.6723 996.00
57.9766 758.00
58.2808 558.00
58.5851 580.00
58.8893 744.00
59.1936 755.00
59.4979 710.00
59.8021 948.00
60.1064 709.00
60.4106 654.00
60.7149 759.00
61.0192 803.00
61.3234 607.00
61.6277 573.00
61.932 495.00
62.2362 479.00
62.5405 555.00
62.8447 538.00
63.149 640.00
63.4533 637.00
63.7575 636.00
64.0618 545.00
64.366 530.00
64.6703 515.00
64.9745 630.00
65.2788 536.00
65.5831 660.00
65.8873 733.00
66.1916 654.00
66.4959 602.00
66.8001 571.00
67.1044 483.00
67.4086 456.00
67.7129 634.00
68.0172 537.00
68.3214 396.00
68.6257 349.00
68.9299 366.00
69.2342 596.00
69.5385 627.00
69.8427 522.00
70.147 514.00
70.4512 564.00
70.7555 524.00
71.0598 473.00
71.364 369.00
71.6683 472.00
71.9725 688.00
72.2768 460.00
72.5811 426.00
72.8853 588.00
73.1896 508.00
73.4938 435.00
73.7981 406.00
74.1024 411.00
74.4066 347.00
74.7109 410.00
75.0151 367.00
75.3194 465.00
75.6237 424.00
75.9279 396.00
76.2322 469.00
76.5364 454.00
76.8407 397.00
77.145 415.00
77.4492 412.00
77.7535 418.00
78.0577 445.00
78.362 441.00
78.6663 398.00
78.9705 372.00
79.2748 404.00
79.579 437.00
79.8833 386.00
80.1876 421.00
80.4918 458.00
80.7961 391.00
81.1003 488.00
81.4046 527.00
81.7089 548.00
82.0131 418.00
82.3174 401.00
82.6217 365.00
82.9259 308.00
83.2302 345.00
83.5344 442.00
83.8387 415.00
84.143 452.00
84.4472 415.00
84.7515 405.00
85.0557 419.00
85.36 356.00
85.6643 392.00
85.9685 377.00
86.2728 420.00
86.577 430.00
86.8813 439.00
87.1856 391.00
87.4898 436.00
87.7941 386.00
88.0983 400.00
88.4026 454.00
88.7069 459.00
89.0111 405.00
89.3154 380.00
89.6196 322.00
89.9239 340.00
90.2282 378.00
90.5324 433.00
90.8367 383.00
91.1409 321.00
91.4452 344.00
91.7495 369.00
92.0537 417.00
92.358 322.00
92.6622 361.00
92.9665 389.00
93.2708 375.00
93.575 405.00
93.8793 403.00
94.1835 350.00
94.4878 375.00
94.7921 444.00
95.0963 434.00
95.4006 477.00
95.7048 453.00
96.0091 415.00
96.3134 420.00
96.6176 364.00
96.9219 349.00
97.2261 353.00
97.5304 325.00
97.8347 380.00
98.1389 349.00
98.4432 346.00
98.7474 362.00
99.0517 379.00
99.356 373.00
99.6602 391.00
99.9645 431.00
100.095 390.00

File: Na_-6.xy
9.903433 2535.00
10.2077 2465.00
10.512 2394.00
10.8162 2247.00
11.1205 2177.00
11.4247 2095.00
11.729 1973.00
12.0333 1941.00
12.3375 1808.00
12.6418 1767.00
12.946 1737.00
13.2503 1563.00
13.5546 1545.00
13.8588 1562.00
14.1631 1455.00
14.4673 1419.00
14.7716 1412.00
15.0759 1362.00
15.3801 1308.00
15.6844 1250.00
15.9886 1294.00
16.2929 1222.00
16.5972 1254.00
16.9014 1304.00
17.2057 1244.00
17.5099 1192.00
17.8142 1109.00
18.1185 1157.00
18.4227 1079.00
18.727 978.00
19.0312 1077.00
19.3355 1028.00
19.6398 972.00
19.944 953.00
20.2483 908.00
20.5525 960.00
20.8568 915.00
21.1611 857.00
21.4653 858.00
21.7696 819.00
22.0738 828.00
22.3781 793.00
22.6824 841.00
22.9866 765.00
23.2909 804.00
23.5951 740.00
23.8994 779.00
24.2037 704.00
24.5079 796.00
24.8122 686.00
25.1164 668.00
25.4207 718.00
25.725 662.00
26.0292 642.00
26.3335 792.00
26.6378 661.00
26.942 668.00
27.2463 637.00
27.5505 650.00
27.8548 590.00
28.1591 614.00
28.4633 599.00
28.7676 623.00
29.0718 611.00
29.3761 561.00
29.6804 550.00
29.9846 586.00
30.2889 593.00
30.5931 539.00
30.8974 572.00
31.2017 542.00
31.5059 513.00
31.8102 523.00
32.1144 481.00
32.4187 487.00
32.723 489.00
33.0272 550.00
33.3315 448.00
33.6357 559.00
33.94 504.00
34.2443 451.00
34.5485 433.00
34.8528 492.00
35.157 422.00
35.4613 415.00
35.7656 367.00
36.0698 417.00
36.3741 428.00
36.6783 409.00
36.9826 400.00
37.2869 361.00
37.5911 372.00
37.8954 402.00
38.1996 367.00
38.5039 389.00
38.8082 343.00
39.1124 382.00
39.4167 374.00
39.7209 338.00
40.0252 376.00
40.3295 342.00
40.6337 363.00
40.938 355.00
41.2422 365.00
41.5465 345.00
41.8508 308.00
42.155 353.00
42.4593 334.00
42.7635 347.00
43.0678 336.00
43.3721 346.00
43.6763 326.00
43.9806 318.00
44.2849 311.00
44.5891 305.00
44.8934 286.00
45.1976 289.00
45.5019 303.00
45.8062 317.00
46.1104 299.00
46.4147 306.00
46.7189 265.00
47.0232 310.00
47.3275 300.00
47.6317 298.00
47.936 301.00
48.2402 277.00
48.5445 266.00
48.8488 292.00
49.153 286.00
49.4573 276.00
49.7615 244.00
50.0658 257.00
50.3701 271.00
50.6743 306.00
50.9786 233.00
51.2828 239.00
51.5871 326.00
51.8914 275.00
52.1956 275.00
52.4999 276.00
52.8041 217.00
53.1084 233.00
53.4127 239.00
53.7169 257.00
54.0212 277.00
54.3254 260.00
54.6297 278.00
54.934 266.00
55.2382 226.00
55.5425 243.00
55.8467 226.00
56.151 239.00
56.4553 221.00
56.7595 238.00
57.0638 200.00
57.368 205.00
57.6723 217.00
57.9766 250.00
58.2808 215.00
58.5851 211.00
58.8893 223.00
59.1936 206.00
59.4979 224.00
59.8021 206.00
60.1064 208.00
60.4106 205.00
60.7149 194.00
61.0192 207.00
61.3234 223.00
61.6277 207.00
61.932 190.00
62.2362 211.00
62.5405 210.00
62.8447 199.00
63.149 205.00
63.4533 183.00
63.7575 173.00
64.0618 197.00
64.366 213.00
64.6703 201.00
64.9745 216.00
65.2788 203.00
65.5831 203.00
65.8873 196.00
66.1916 181.00
66.4959 203.00
66.8001 185.00
67.1044 191.00
67.4086 194.00
67.7129 203.00
68.0172 215.00
68.3214 184.00
68.6257 199.00
68.9299 181.00
69.2342 185.00
69.5385 170.00
69.8427 189.00
70.147 187.00
70.4512 182.00
70.7555 191.00
71.0598 206.00
71.364 187.00
71.6683 211.00
71.9725 191.00
72.2768 191.00
72.5811 192.00
72.8853 204.00
73.1896 199.00
73.4938 180.00
73.7981 196.00
74.1024 180.00
74.4066 184.00
74.7109 204.00
75.0151 197.00
75.3194 212.00
75.6237 204.00
75.9279 220.00
76.2322 221.00
76.5364 211.00
76.8407 229.00
77.145 218.00
77.4492 214.00
77.7535 219.00
78.0577 222.00
78.362 232.00
78.6663 237.00
78.9705 215.00
79.2748 178.00
79.579 233.00
79.8833 218.00
80.1876 209.00
80.4918 238.00
80.7961 236.00
81.1003 232.00
81.4046 210.00
81.7089 265.00
82.0131 269.00
82.3174 267.00
82.6217 200.00
82.9259 238.00
83.2302 231.00
83.5344 225.00
83.8387 230.00
84.143 208.00
84.4472 208.00
84.7515 210.00
85.0557 222.00
85.36 213.00
85.6643 234.00
85.9685 222.00
86.2728 195.00
86.577 228.00
86.8813 191.00
87.1856 205.00
87.4898 190.00
87.7941 174.00
88.0983 174.00
88.4026 213.00
88.7069 193.00
89.0111 181.00
89.3154 222.00
89.6196 212.00
89.9239 185.00
90.2282 179.00
90.5324 181.00
90.8367 174.00
91.1409 188.00
91.4452 186.00
91.7495 202.00
92.0537 186.00
92.358 190.00
92.6622 171.00
92.9665 165.00
93.2708 230.00
93.575 189.00
93.8793 180.00
94.1835 190.00
94.4878 176.00
94.7921 171.00
95.0963 175.00
95.4006 166.00
95.7048 195.00
96.0091 187.00
96.3134 170.00
96.6176 204.00
96.9219 170.00
97.2261 206.00
97.5304 195.00
97.8347 186.00
98.1389 200.00
98.4432 187.00
98.7474 165.00
99.0517 175.00
99.356 182.00
99.6602 186.00
99.9645 184.00
100.095 175.00

File: Na_-9.xy
9.903433 2679.00
10.2077 2566.00
10.512 2531.00
10.8162 2371.00
11.1205 2217.00
11.4247 2186.00
11.729 2088.00
12.0333 1976.00
12.3375 1858.00
12.6418 1781.00
12.946 1698.00
13.2503 1702.00
13.5546 1647.00
13.8588 1551.00
14.1631 1524.00
14.4673 1483.00
14.7716 1552.00
15.0759 1431.00
15.3801 1378.00
15.6844 1387.00
15.9886 1341.00
16.2929 1394.00
16.5972 1328.00
16.9014 1247.00
17.2057 1248.00
17.5099 1228.00
17.8142 1245.00
18.1185 1199.00
18.4227 1121.00
18.727 1148.00
19.0312 1113.00
19.3355 1133.00
19.6398 1047.00
19.944 1156.00
20.2483 1088.00
20.5525 1014.00
20.8568 1048.00
21.1611 962.00
21.4653 945.00
21.7696 975.00
22.0738 994.00
22.3781 970.00
22.6824 880.00
22.9866 881.00
23.2909 858.00
23.5951 881.00
23.8994 905.00
24.2037 885.00
24.5079 823.00
24.8122 754.00
25.1164 821.00
25.4207 801.00
25.725 858.00
26.0292 803.00
26.3335 907.00
26.6378 786.00
26.942 725.00
27.2463 740.00
27.5505 742.00
27.8548 806.00
28.1591 815.00
28.4633 754.00
28.7676 731.00
29.0718 752.00
29.3761 667.00
29.6804 691.00
29.9846 725.00
30.2889 699.00
30.5931 743.00
30.8974 654.00
31.2017 652.00
31.5059 672.00
31.8102 593.00
32.1144 644.00
32.4187 620.00
32.723 634.00
33.0272 615.00
33.3315 637.00
33.6357 670.00
33.94 629.00
34.2443 576.00
34.5485 560.00
34.8528 595.00
35.157 531.00
35.4613 507.00
35.7656 530.00
36.0698 506.00
36.3741 500.00
36.6783 534.00
36.9826 533.00
37.2869 495.00
37.5911 464.00
37.8954 518.00
38.1996 472.00
38.5039 417.00
38.8082 442.00
39.1124 441.00
39.4167 426.00
39.7209 429.00
40.0252 389.00
40.3295 406.00
40.6337 395.00
40.938 400.00
41.2422 389.00
41.5465 378.00
41.8508 436.00
42.155 409.00
42.4593 414.00
42.7635 451.00
43.0678 582.00
43.3721 426.00
43.6763 369.00
43.9806 392.00
44.2849 376.00
44.5891 346.00
44.8934 362.00
45.1976 347.00
45.5019 427.00
45.8062 385.00
46.1104 332.00
46.4147 388.00
46.7189 347.00
47.0232 363.00
47.3275 349.00
47.6317 324.00
47.936 313.00
48.2402 344.00
48.5445 360.00
48.8488 369.00
49.153 365.00
49.4573 307.00
49.7615 315.00
50.0658 320.00
50.3701 332.00
50.6743 316.00
50.9786 349.00
51.2828 359.00
51.5871 438.00
51.8914 336.00
52.1956 322.00
52.4999 314.00
52.8041 354.00
53.1084 331.00
53.4127 350.00
53.7169 313.00
54.0212 303.00
54.3254 311.00
54.6297 330.00
54.934 267.00
55.2382 322.00
55.5425 288.00
55.8467 283.00
56.151 295.00
56.4553 306.00
56.7595 274.00
57.0638 241.00
57.368 301.00
57.6723 296.00
57.9766 278.00
58.2808 283.00
58.5851 248.00
58.8893 298.00
59.1936 246.00
59.4979 267.00
59.8021 256.00
60.1064 302.00
60.4106 283.00
60.7149 224.00
61.0192 247.00
61.3234 241.00
61.6277 259.00
61.932 264.00
62.2362 266.00
62.5405 291.00
62.8447 300.00
63.149 283.00
63.4533 265.00
63.7575 234.00
64.0618 206.00
64.366 243.00
64.6703 285.00
64.9745 267.00
65.2788 245.00
65.5831 269.00
65.8873 256.00
66.1916 244.00
66.4959 213.00
66.8001 220.00
67.1044 246.00
67.4086 239.00
67.7129 216.00
68.0172 227.00
68.3214 232.00
68.6257 226.00
68.9299 229.00
69.2342 245.00
69.5385 232.00
69.8427 221.00
70.147 230.00
70.4512 279.00
70.7555 216.00
71.0598 237.00
71.364 223.00
71.6683 211.00
71.9725 248.00
72.2768 234.00
72.5811 243.00
72.8853 258.00
73.1896 240.00
73.4938 235.00
73.7981 247.00
74.1024 212.00
74.4066 236.00
74.7109 240.00
75.0151 245.00
75.3194 292.00
75.6237 265.00
75.9279 273.00
76.2322 243.00
76.5364 239.00
76.8407 271.00
77.145 260.00
77.4492 290.00
77.7535 226.00
78.0577 231.00
78.362 270.00
78.6663 294.00
78.9705 302.00
79.2748 275.00
79.579 258.00
79.8833 234.00
80.1876 246.00
80.4918 261.00
80.7961 300.00
81.1003 242.00
81.4046 299.00
81.7089 268.00
82.0131 227.00
82.3174 249.00
82.6217 276.00
82.9259 280.00
83.2302 264.00
83.5344 275.00
83.8387 259.00
84.143 275.00
84.4472 227.00
84.7515 256.00
85.0557 212.00
85.36 230.00
85.6643 269.00
85.9685 249.00
86.2728 240.00
86.577 231.00
86.8813 237.00
87.1856 259.00
87.4898 239.00
87.7941 264.00
88.0983 227.00
88.4026 232.00
88.7069 259.00
89.0111 236.00
89.3154 249.00
89.6196 263.00
89.9239 225.00
90.2282 238.00
90.5324 240.00
90.8367 245.00
91.1409 219.00
91.4452 213.00
91.7495 215.00
92.0537 239.00
92.358 216.00
92.6622 220.00
92.9665 202.00
93.2708 238.00
93.575 209.00
93.8793 225.00
94.1835 237.00
94.4878 222.00
94.7921 206.00
95.0963 222.00
95.4006 257.00
95.7048 235.00
96.0091 216.00
96.3134 259.00
96.6176 207.00
96.9219 212.00
97.2261 228.00
97.5304 213.00
97.8347 200.00
98.1389 223.00
98.4432 205.00
98.7474 222.00
99.0517 199.00
99.356 256.00
99.6602 216.00
99.9645 211.00
100.095 226.00

File: Na_-10.xy
9.903433 2718.00
10.2077 2567.00
10.512 2364.00
10.8162 2275.00
11.1205 2204.00
11.4247 2101.00
11.729 2017.00
12.0333 1916.00
12.3375 1801.00
12.6418 1743.00
12.946 1716.00
13.2503 1644.00
13.5546 1586.00
13.8588 1576.00
14.1631 1508.00
14.4673 1467.00
14.7716 1472.00
15.0759 1464.00
15.3801 1377.00
15.6844 1313.00
15.9886 1352.00
16.2929 1344.00
16.5972 1252.00
16.9014 1204.00
17.2057 1237.00
17.5099 1214.00
17.8142 1188.00
18.1185 1132.00
18.4227 1096.00
18.727 1119.00
19.0312 1056.00
19.3355 968.00
19.6398 999.00
19.944 1314.00
20.2483 933.00
20.5525 956.00
20.8568 969.00
21.1611 902.00
21.4653 930.00
21.7696 877.00
22.0738 835.00
22.3781 871.00
22.6824 797.00
22.9866 826.00
23.2909 820.00
23.5951 760.00
23.8994 774.00
24.2037 710.00
24.5079 723.00
24.8122 720.00
25.1164 738.00
25.4207 708.00
25.725 783.00
26.0292 768.00
26.3335 2060.00
26.6378 1257.00
26.942 780.00
27.2463 662.00
27.5505 717.00
27.8548 705.00
28.1591 664.00
28.4633 724.00
28.7676 875.00
29.0718 735.00
29.3761 628.00
29.6804 646.00
29.9846 639.00
30.2889 640.00
30.5931 562.00
30.8974 553.00
31.2017 600.00
31.5059 547.00
31.8102 561.00
32.1144 540.00
32.4187 594.00
32.723 778.00
33.0272 939.00
33.3315 736.00
33.6357 1632.00
33.94 1054.00
34.2443 566.00
34.5485 466.00
34.8528 491.00
35.157 471.00
35.4613 481.00
35.7656 438.00
36.0698 475.00
36.3741 442.00
36.6783 470.00
36.9826 448.00
37.2869 481.00
37.5911 492.00
37.8954 995.00
38.1996 466.00
38.5039 434.00
38.8082 536.00
39.1124 406.00
39.4167 385.00
39.7209 373.00
40.0252 376.00
40.3295 342.00
40.6337 383.00
40.938 346.00
41.2422 336.00
41.5465 381.00
41.8508 338.00
42.155 338.00
42.4593 398.00
42.7635 370.00
43.0678 379.00
43.3721 383.00
43.6763 390.00
43.9806 362.00
44.2849 350.00
44.5891 351.00
44.8934 335.00
45.1976 354.00
45.5019 325.00
45.8062 332.00
46.1104 292.00
46.4147 333.00
46.7189 332.00
47.0232 315.00
47.3275 363.00
47.6317 316.00
47.936 316.00
48.2402 348.00
48.5445 315.00
48.8488 318.00
49.153 261.00
49.4573 244.00
49.7615 295.00
50.0658 306.00
50.3701 271.00
50.6743 290.00
50.9786 322.00
51.2828 375.00
51.5871 1550.00
51.8914 746.00
52.1956 368.00
52.4999 311.00
52.8041 306.00
53.1084 303.00
53.4127 260.00
53.7169 265.00
54.0212 296.00
54.3254 309.00
54.6297 726.00
54.934 333.00
55.2382 273.00
55.5425 272.00
55.8467 247.00
56.151 224.00
56.4553 258.00
56.7595 274.00
57.0638 300.00
57.368 294.00
57.6723 462.00
57.9766 269.00
58.2808 225.00
58.5851 202.00
58.8893 283.00
59.1936 268.00
59.4979 249.00
59.8021 226.00
60.1064 247.00
60.4106 245.00
60.7149 223.00
61.0192 220.00
61.3234 261.00
61.6277 330.00
61.932 453.00
62.2362 268.00
62.5405 237.00
62.8447 192.00
63.149 218.00
63.4533 209.00
63.7575 203.00
64.0618 235.00
64.366 312.00
64.6703 561.00
64.9745 275.00
65.2788 267.00
65.5831 275.00
65.8873 619.00
66.1916 308.00
66.4959 241.00
66.8001 209.00
67.1044 192.00
67.4086 224.00
67.7129 223.00
68.0172 176.00
68.3214 209.00
68.6257 217.00
68.9299 194.00
69.2342 212.00
69.5385 208.00
69.8427 181.00
70.147 182.00
70.4512 223.00
70.7555 237.00
71.0598 297.00
71.364 295.00
71.6683 213.00
71.9725 247.00
72.2768 220.00
72.5811 200.00
72.8853 219.00
73.1896 195.00
73.4938 196.00
73.7981 188.00
74.1024 207.00
74.4066 201.00
74.7109 200.00
75.0151 228.00
75.3194 214.00
75.6237 184.00
75.9279 245.00
76.2322 264.00
76.5364 197.00
76.8407 223.00
77.145 216.00
77.4492 218.00
77.7535 221.00
78.0577 259.00
78.362 302.00
78.6663 436.00
78.9705 282.00
79.2748 211.00
79.579 247.00
79.8833 237.00
80.1876 226.00
80.4918 244.00
80.7961 268.00
81.1003 316.00
81.4046 264.00
81.7089 223.00
82.0131 203.00
82.3174 262.00
82.6217 227.00
82.9259 221.00
83.2302 222.00
83.5344 365.00
83.8387 348.00
84.143 242.00
84.4472 218.00
84.7515 223.00
85.0557 211.00
85.36 209.00
85.6643 198.00
85.9685 207.00
86.2728 180.00
86.577 195.00
86.8813 182.00
87.1856 291.00
87.4898 221.00
87.7941 203.00
88.0983 194.00
88.4026 181.00
88.7069 193.00
89.0111 182.00
89.3154 219.00
89.6196 326.00
89.9239 351.00
90.2282 211.00
90.5324 249.00
90.8367 407.00
91.1409 339.00
91.4452 211.00
91.7495 239.00
92.0537 228.00
92.358 198.00
92.6622 185.00
92.9665 226.00
93.2708 318.00
93.575 260.00
93.8793 198.00
94.1835 206.00
94.4878 198.00
94.7921 213.00
95.0963 172.00
95.4006 199.00
95.7048 216.00
96.0091 239.00
96.3134 227.00
96.6176 188.00
96.9219 204.00
97.2261 212.00
97.5304 194.00
97.8347 195.00
98.1389 179.00
98.4432 210.00
98.7474 184.00
99.0517 194.00
99.356 202.00
99.6602 173.00
99.9645 185.00
100.095 205.00

File: Na_-11.xy
9.903433 2444.00
10.2077 2442.00
10.512 2441.00
10.8162 2221.00
11.1205 2155.00
11.4247 2127.00
11.729 1944.00
12.0333 1918.00
12.3375 1718.00
12.6418 1706.00
12.946 1648.00
13.2503 1594.00
13.5546 1591.00
13.8588 1475.00
14.1631 1457.00
14.4673 1437.00
14.7716 1338.00
15.0759 1378.00
15.3801 1353.00
15.6844 1379.00
15.9886 1293.00
16.2929 1250.00
16.5972 1186.00
16.9014 1169.00
17.2057 1199.00
17.5099 1171.00
17.8142 1113.00
18.1185 1025.00
18.4227 1061.00
18.727 1010.00
19.0312 974.00
19.3355 979.00
19.6398 931.00
19.944 948.00
20.2483 879.00
20.5525 923.00
20.8568 860.00
21.1611 877.00
21.4653 848.00
21.7696 787.00
22.0738 776.00
22.3781 777.00
22.6824 806.00
22.9866 727.00
23.2909 704.00
23.5951 768.00
23.8994 734.00
24.2037 685.00
24.5079 692.00
24.8122 686.00
25.1164 729.00
25.4207 672.00
25.725 676.00
26.0292 637.00
26.3335 713.00
26.6378 653.00
26.942 584.00
27.2463 658.00
27.5505 636.00
27.8548 579.00
28.1591 606.00
28.4633 562.00
28.7676 554.00
29.0718 599.00
29.3761 540.00
29.6804 537.00
29.9846 519.00
30.2889 540.00
30.5931 545.00
30.8974 559.00
31.2017 512.00
31.5059 474.00
31.8102 478.00
32.1144 492.00
32.4187 481.00
32.723 436.00
33.0272 469.00
33.3315 475.00
33.6357 495.00
33.94 454.00
34.2443 454.00
34.5485 434.00
34.8528 445.00
35.157 395.00
35.4613 398.00
35.7656 366.00
36.0698 416.00
36.3741 374.00
36.6783 380.00
36.9826 412.00
37.2869 392.00
37.5911 381.00
37.8954 395.00
38.1996 388.00
38.5039 338.00
38.8082 353.00
39.1124 355.00
39.4167 359.00
39.7209 286.00
40.0252 320.00
40.3295 347.00
40.6337 340.00
40.938 300.00
41.2422 291.00
41.5465 312.00
41.8508 309.00
42.155 314.00
42.4593 308.00
42.7635 335.00
43.0678 346.00
43.3721 328.00
43.6763 313.00
43.9806 311.00
44.2849 300.00
44.5891 312.00
44.8934 293.00
45.1976 282.00
45.5019 288.00
45.8062 259.00
46.1104 265.00
46.4147 245.00
46.7189 264.00
47.0232 291.00
47.3275 302.00
47.6317 295.00
47.936 292.00
48.2402 284.00
48.5445 258.00
48.8488 267.00
49.153 264.00
49.4573 278.00
49.7615 256.00
50.0658 287.00
50.3701 271.00
50.6743 262.00
50.9786 272.00
51.2828 247.00
51.5871 324.00
51.8914 236.00
52.1956 236.00
52.4999 236.00
52.8041 259.00
53.1084 227.00
53.4127 242.00
53.7169 248.00
54.0212 244.00
54.3254 241.00
54.6297 244.00
54.934 240.00
55.2382 190.00
55.5425 209.00
55.8467 214.00
56.151 206.00
56.4553 198.00
56.7595 211.00
57.0638 190.00
57.368 209.00
57.6723 219.00
57.9766 221.00
58.2808 184.00
58.5851 198.00
58.8893 195.00
59.1936 214.00
59.4979 219.00
59.8021 179.00
60.1064 166.00
60.4106 189.00
60.7149 201.00
61.0192 207.00
61.3234 226.00
61.6277 198.00
61.932 181.00
62.2362 181.00
62.5405 184.00
62.8447 206.00
63.149 183.00
63.4533 175.00
63.7575 188.00
64.0618 183.00
64.366 171.00
64.6703 192.00
64.9745 180.00
65.2788 200.00
65.5831 185.00
65.8873 209.00
66.1916 173.00
66.4959 198.00
66.8001 152.00
67.1044 207.00
67.4086 202.00
67.7129 163.00
68.0172 185.00
68.3214 187.00
68.6257 172.00
68.9299 180.00
69.2342 179.00
69.5385 152.00
69.8427 167.00
70.147 196.00
70.4512 185.00
70.7555 186.00
71.0598 175.00
71.364 187.00
71.6683 173.00
71.9725 159.00
72.2768 145.00
72.5811 180.00
72.8853 230.00
73.1896 183.00
73.4938 186.00
73.7981 175.00
74.1024 187.00
74.4066 179.00
74.7109 208.00
75.0151 201.00
75.3194 186.00
75.6237 200.00
75.9279 187.00
76.2322 203.00
76.5364 202.00
76.8407 195.00
77.145 225.00
77.4492 203.00
77.7535 181.00
78.0577 190.00
78.362 192.00
78.6663 209.00
78.9705 201.00
79.2748 212.00
79.579 187.00
79.8833 202.00
80.1876 210.00
80.4918 212.00
80.7961 202.00
81.1003 242.00
81.4046 223.00
81.7089 206.00
82.0131 226.00
82.3174 196.00
82.6217 240.00
82.9259 229.00
83.2302 220.00
83.5344 246.00
83.8387 205.00
84.143 208.00
84.4472 216.00
84.7515 203.00
85.0557 218.00
85.36 201.00
85.6643 213.00
85.9685 193.00
86.2728 185.00
86.577 164.00
86.8813 169.00
87.1856 202.00
87.4898 179.00
87.7941 236.00
88.0983 224.00
88.4026 196.00
88.7069 186.00
89.0111 166.00
89.3154 196.00
89.6196 189.00
89.9239 182.00
90.2282 195.00
90.5324 199.00
90.8367 188.00
91.1409 181.00
91.4452 172.00
91.7495 199.00
92.0537 181.00
92.358 166.00
92.6622 197.00
92.9665 174.00
93.2708 173.00
93.575 162.00
93.8793 164.00
94.1835 191.00
94.4878 185.00
94.7921 169.00
95.0963 168.00
95.4006 157.00
95.7048 178.00
96.0091 198.00
96.3134 158.00
96.6176 172.00
96.9219 172.00
97.2261 178.00
97.5304 165.00
97.8347 161.00
98.1389 192.00
98.4432 173.00
98.7474 207.00
99.0517 186.00
99.356 158.00
99.6602 171.00
99.9645 179.00
100.095 191.00