Folder: alab-pipeline/data/xrd_creation/results (part 108)

File: PG_2634-1.xy
9.903433 3101.00
10.2077 2993.00
10.512 2941.00
10.8162 2986.00
11.1205 2896.00
11.4247 2810.00
11.729 2695.00
12.0333 2681.00
12.3375 2683.00
12.6418 2569.00
12.946 2596.00
13.2503 2553.00
13.5546 2504.00
13.8588 2411.00
14.1631 2344.00
14.4673 2316.00
14.7716 2307.00
15.0759 2319.00
15.3801 2290.00
15.6844 2313.00
15.9886 2335.00
16.2929 2429.00
16.5972 3497.00
16.9014 3742.00
17.2057 2264.00
17.5099 2243.00
17.8142 2235.00
18.1185 2280.00
18.4227 2190.00
18.727 2191.00
19.0312 2205.00
19.3355 2240.00
19.6398 2100.00
19.944 2122.00
20.2483 2067.00
20.5525 2096.00
20.8568 2118.00
21.1611 2064.00
21.4653 2048.00
21.7696 2048.00
22.0738 2050.00
22.3781 2069.00
22.6824 2073.00
22.9866 1997.00
23.2909 2014.00
23.5951 2559.00
23.8994 3319.00
24.2037 2098.00
24.5079 2028.00
24.8122 2077.00
25.1164 1982.00
25.4207 1968.00
25.725 1965.00
26.0292 1950.00
26.3335 1994.00
26.6378 2036.00
26.942 1888.00
27.2463 1994.00
27.5505 2028.00
27.8548 1966.00
28.1591 2011.00
28.4633 1915.00
28.7676 2043.00
29.0718 4018.00
29.3761 2934.00
29.6804 1942.00
29.9846 2006.00
30.2889 1914.00
30.5931 1911.00
30.8974 1840.00
31.2017 1916.00
31.5059 1798.00
31.8102 1933.00
32.1144 1886.00
32.4187 1923.00
32.723 1900.00
33.0272 1884.00
33.3315 1933.00
33.6357 1994.00
33.94 2177.00
34.2443 1904.00
34.5485 1936.00
34.8528 2773.00
35.157 3921.00
35.4613 1959.00
35.7656 1859.00
36.0698 1819.00
36.3741 1893.00
36.6783 1904.00
36.9826 1808.00
37.2869 1846.00
37.5911 1697.00
37.8954 1938.00
38.1996 1842.00
38.5039 1733.00
38.8082 1738.00
39.1124 1797.00
39.4167 1769.00
39.7209 1759.00
40.0252 1856.00
40.3295 2268.00
40.6337 5149.00
40.938 3148.00
41.2422 1891.00
41.5465 1853.00
41.8508 1783.00
42.155 1804.00
42.4593 1776.00
42.7635 1742.00
43.0678 1744.00
43.3721 1730.00
43.6763 1828.00
43.9806 1698.00
44.2849 1719.00
44.5891 1740.00
44.8934 1874.00
45.1976 2757.00
45.5019 2059.00
45.8062 1735.00
46.1104 1663.00
46.4147 1766.00
46.7189 1662.00
47.0232 1693.00
47.3275 1667.00
47.6317 1714.00
47.936 1728.00
48.2402 1738.00
48.5445 1737.00
48.8488 1720.00
49.153 1655.00
49.4573 1658.00
49.7615 1735.00
50.0658 1754.00
50.3701 1790.00
50.6743 1771.00
50.9786 1702.00
51.2828 1802.00
51.5871 1847.00
51.8914 1706.00
52.1956 1680.00
52.4999 1769.00
52.8041 1745.00
53.1084 1732.00
53.4127 1697.00
53.7169 1727.00
54.0212 1760.00
54.3254 1660.00
54.6297 1915.00
54.934 1764.00
55.2382 1693.00
55.5425 1646.00
55.8467 1665.00
56.151 1635.00
56.4553 1735.00
56.7595 1682.00
57.0638 1693.00
57.368 1817.00
57.6723 1949.00
57.9766 1785.00
58.2808 1789.00
58.5851 2566.00
58.8893 3615.00
59.1936 2146.00
59.4979 1743.00
59.8021 1630.00
60.1064 1756.00
60.4106 1749.00
60.7149 1677.00
61.0192 1702.00
61.3234 1653.00
61.6277 1755.00
61.932 1713.00
62.2362 1696.00
62.5405 1668.00
62.8447 1708.00
63.149 1857.00
63.4533 1732.00
63.7575 1721.00
64.0618 1660.00
64.366 1718.00
64.6703 1740.00
64.9745 1732.00
65.2788 1642.00
65.5831 1758.00
65.8873 1646.00
66.1916 1703.00
66.4959 1771.00
66.8001 1640.00
67.1044 1609.00
67.4086 1657.00
67.7129 1687.00
68.0172 1745.00
68.3214 1750.00
68.6257 1784.00
68.9299 1656.00
69.2342 1674.00
69.5385 1757.00
69.8427 1789.00
70.147 2263.00
70.4512 2269.00
70.7555 1875.00
71.0598 1839.00
71.364 1767.00
71.6683 1748.00
71.9725 1617.00
72.2768 1633.00
72.5811 1688.00
72.8853 1643.00
73.1896 1675.00
73.4938 1803.00
73.7981 2162.00
74.1024 2008.00
74.4066 1674.00
74.7109 1647.00
75.0151 1635.00
75.3194 1717.00
75.6237 1712.00
75.9279 1777.00
76.2322 1832.00
76.5364 1752.00
76.8407 1720.00
77.145 1699.00
77.4492 1617.00
77.7535 1684.00
78.0577 1665.00
78.362 1775.00
78.6663 1791.00
78.9705 1689.00
79.2748 1629.00
79.579 1693.00
79.8833 1662.00
80.1876 1673.00
80.4918 1691.00
80.7961 1638.00
81.1003 1650.00
81.4046 1630.00
81.7089 1680.00
82.0131 1677.00
82.3174 1657.00
82.6217 1629.00
82.9259 1640.00
83.2302 1749.00
83.5344 1685.00
83.8387 1701.00
84.143 1584.00
84.4472 1717.00
84.7515 1612.00
85.0557 1654.00
85.36 1625.00
85.6643 1643.00
85.9685 1637.00
86.2728 1633.00
86.577 1620.00
86.8813 1562.00
87.1856 1593.00
87.4898 1753.00
87.7941 1913.00
88.0983 1861.00
88.4026 1791.00
88.7069 1654.00
89.0111 1702.00
89.3154 1666.00
89.6196 1639.00
89.9239 1623.00
90.2282 1622.00
90.5324 1672.00
90.8367 1647.00
91.1409 1624.00
91.4452 1643.00
91.7495 1705.00
92.0537 1582.00
92.358 1611.00
92.6622 1651.00
92.9665 1713.00
93.2708 1771.00
93.575 1735.00
93.8793 1704.00
94.1835 1665.00
94.4878 1656.00
94.7921 1619.00
95.0963 1729.00
95.4006 1714.00
95.7048 1702.00
96.0091 1621.00
96.3134 1652.00
96.6176 1602.00
96.9219 1679.00
97.2261 1701.00
97.5304 1721.00
97.8347 1755.00
98.1389 1922.00
98.4432 1843.00
98.7474 1798.00
99.0517 1737.00
99.356 1741.00
99.6602 1629.00
99.9645 1690.00
100.095 1706.00

File: PG_2635-1.xy
9.903433 4067.00
10.2077 3909.00
10.512 3909.00
10.8162 3994.00
11.1205 3798.00
11.4247 3931.00
11.729 3948.00
12.0333 4080.00
12.3375 4599.00
12.6418 8288.00
12.946 6551.00
13.2503 4283.00
13.5546 3915.00
13.8588 3874.00
14.1631 3891.00
14.4673 3797.00
14.7716 3833.00
15.0759 3809.00
15.3801 3975.00
15.6844 3972.00
15.9886 4580.00
16.2929 4941.00
16.5972 3785.00
16.9014 3844.00
17.2057 3985.00
17.5099 3688.00
17.8142 3615.00
18.1185 3531.00
18.4227 3701.00
18.727 3652.00
19.0312 3639.00
19.3355 3543.00
19.6398 3588.00
19.944 3634.00
20.2483 3511.00
20.5525 3522.00
20.8568 3572.00
21.1611 3515.00
21.4653 3585.00
21.7696 3590.00
22.0738 3504.00
22.3781 3473.00
22.6824 3462.00
22.9866 3531.00
23.2909 3459.00
23.5951 3379.00
23.8994 3559.00
24.2037 3412.00
24.5079 3437.00
24.8122 3550.00
25.1164 4234.00
25.4207 5194.00
25.725 3938.00
26.0292 3451.00
26.3335 3573.00
26.6378 3453.00
26.942 3368.00
27.2463 3369.00
27.5505 3403.00
27.8548 3462.00
28.1591 3253.00
28.4633 3144.00
28.7676 3299.00
29.0718 3281.00
29.3761 3357.00
29.6804 3284.00
29.9846 3256.00
30.2889 3409.00
30.5931 3316.00
30.8974 3269.00
31.2017 3321.00
31.5059 3265.00
31.8102 3283.00
32.1144 3376.00
32.4187 3541.00
32.723 3914.00
33.0272 3308.00
33.3315 3290.00
33.6357 3481.00
33.94 3532.00
34.2443 3241.00
34.5485 3367.00
34.8528 3356.00
35.157 3737.00
35.4613 3528.00
35.7656 3553.00
36.0698 3684.00
36.3741 3665.00
36.6783 3688.00
36.9826 3904.00
37.2869 4471.00
37.5911 3874.00
37.8954 3577.00
38.1996 4236.00
38.5039 3488.00
38.8082 3393.00
39.1124 3262.00
39.4167 3226.00
39.7209 3218.00
40.0252 3343.00
40.3295 3533.00
40.6337 3494.00
40.938 3849.00
41.2422 3466.00
41.5465 3530.00
41.8508 3675.00
42.155 3613.00
42.4593 3721.00
42.7635 3364.00
43.0678 3199.00
43.3721 3218.00
43.6763 3220.00
43.9806 3216.00
44.2849 3194.00
44.5891 3300.00
44.8934 3333.00
45.1976 3246.00
45.5019 3402.00
45.8062 3093.00
46.1104 3143.00
46.4147 3134.00
46.7189 3177.00
47.0232 3230.00
47.3275 3200.00
47.6317 3182.00
47.936 3127.00
48.2402 3082.00
48.5445 3295.00
48.8488 3250.00
49.153 3231.00
49.4573 3279.00
49.7615 3290.00
50.0658 3252.00
50.3701 3368.00
50.6743 3373.00
50.9786 3338.00
51.2828 3233.00
51.5871 3083.00
51.8914 3269.00
52.1956 3086.00
52.4999 3070.00
52.8041 3101.00
53.1084 3112.00
53.4127 3131.00
53.7169 3092.00
54.0212 3083.00
54.3254 3046.00
54.6297 3073.00
54.934 3130.00
55.2382 3094.00
55.5425 3164.00
55.8467 3144.00
56.151 3208.00
56.4553 3181.00
56.7595 3158.00
57.0638 3258.00
57.368 3316.00
57.6723 3139.00
57.9766 3180.00
58.2808 3014.00
58.5851 3146.00
58.8893 3265.00
59.1936 3110.00
59.4979 2972.00
59.8021 3043.00
60.1064 3016.00
60.4106 3039.00
60.7149 3194.00
61.0192 3077.00
61.3234 2989.00
61.6277 3012.00
61.932 2977.00
62.2362 3031.00
62.5405 3035.00
62.8447 3043.00
63.149 3184.00
63.4533 3138.00
63.7575 3103.00
64.0618 3090.00
64.366 3107.00
64.6703 3183.00
64.9745 3140.00
65.2788 3165.00
65.5831 3226.00
65.8873 3296.00
66.1916 3140.00
66.4959 3062.00
66.8001 3183.00
67.1044 3086.00
67.4086 3106.00
67.7129 3080.00
68.0172 3076.00
68.3214 2901.00
68.6257 3007.00
68.9299 3032.00
69.2342 3081.00
69.5385 3057.00
69.8427 3079.00
70.147 3035.00
70.4512 3052.00
70.7555 2948.00
71.0598 2974.00
71.364 2975.00
71.6683 3064.00
71.9725 2964.00
72.2768 2953.00
72.5811 3010.00
72.8853 2932.00
73.1896 2993.00
73.4938 2942.00
73.7981 2988.00
74.1024 3100.00
74.4066 2944.00
74.7109 2910.00
75.0151 2884.00
75.3194 2982.00
75.6237 2819.00
75.9279 2949.00
76.2322 3032.00
76.5364 3006.00
76.8407 2985.00
77.145 3135.00
77.4492 2923.00
77.7535 2875.00
78.0577 2859.00
78.362 2969.00
78.6663 2930.00
78.9705 2967.00
79.2748 2941.00
79.579 2902.00
79.8833 2956.00
80.1876 3030.00
80.4918 3032.00
80.7961 3058.00
81.1003 2922.00
81.4046 2988.00
81.7089 3066.00
82.0131 2948.00
82.3174 2961.00
82.6217 2906.00
82.9259 2984.00
83.2302 2838.00
83.5344 3032.00
83.8387 2944.00
84.143 2961.00
84.4472 3041.00
84.7515 2953.00
85.0557 2915.00
85.36 3003.00
85.6643 2884.00
85.9685 2994.00
86.2728 2990.00
86.577 2898.00
86.8813 2776.00
87.1856 2879.00
87.4898 2895.00
87.7941 2884.00
88.0983 2913.00
88.4026 2884.00
88.7069 2874.00
89.0111 2967.00
89.3154 2919.00
89.6196 2774.00
89.9239 2887.00
90.2282 2973.00
90.5324 2779.00
90.8367 2973.00
91.1409 2932.00
91.4452 2907.00
91.7495 2911.00
92.0537 2850.00
92.358 2842.00
92.6622 2882.00
92.9665 2927.00
93.2708 2888.00
93.575 2967.00
93.8793 2883.00
94.1835 2913.00
94.4878 2919.00
94.7921 2926.00
95.0963 2897.00
95.4006 2925.00
95.7048 2820.00
96.0091 2949.00
96.3134 2887.00
96.6176 2912.00
96.9219 2935.00
97.2261 3020.00
97.5304 2999.00
97.8347 2993.00
98.1389 2994.00
98.4432 2960.00
98.7474 2947.00
99.0517 3018.00
99.356 2913.00
99.6602 2885.00
99.9645 2829.00
100.095 2901.00

File: PG_2638-1.xy
10.0094 2469.00
10.3137 2444.00
10.618 2345.00
10.9222 2267.00
11.2265 2240.00
11.5307 2136.00
11.835 2215.00
12.1393 2198.00
12.4435 2249.00
12.7478 1987.00
13.052 2022.00
13.3563 1951.00
13.6606 1982.00
13.9648 1923.00
14.2691 2091.00
14.5733 1885.00
14.8776 1923.00
15.1819 1886.00
15.4861 1849.00
15.7904 1892.00
16.0946 1798.00
16.3989 1878.00
16.7032 1903.00
17.0074 1779.00
17.3117 1781.00
17.6159 1695.00
17.9202 1733.00
18.2245 1699.00
18.5287 1672.00
18.833 1681.00
19.1372 1638.00
19.4415 1629.00
19.7458 1608.00
20.05 1584.00
20.3543 1632.00
20.6585 1591.00
20.9628 1597.00
21.2671 1593.00
21.5713 1576.00
21.8756 1625.00
22.1798 1530.00
22.4841 1587.00
22.7884 1795.00
23.0926 1614.00
23.3969 1944.00
23.7011 1638.00
24.0054 1895.00
24.3097 4552.00
24.6139 1578.00
24.9182 2092.00
25.2224 1692.00
25.5267 1716.00
25.831 1527.00
26.1352 1570.00
26.4395 1534.00
26.7438 1598.00
27.048 1533.00
27.3523 1442.00
27.6565 1458.00
27.9608 1448.00
28.2651 1449.00
28.5693 1811.00
28.8736 1517.00
29.1778 1608.00
29.4821 1536.00
29.7864 1692.00
30.0906 11594.00
30.3949 1773.00
30.6991 1467.00
31.0034 1532.00
31.3077 2388.00
31.6119 1479.00
31.9162 1448.00
32.2204 1505.00
32.5247 1444.00
32.829 1537.00
33.1332 3171.00
33.4375 1508.00
33.7417 1438.00
34.046 1383.00
34.3503 1377.00
34.6545 1311.00
34.9588 1368.00
35.263 1422.00
35.5673 2731.00
35.8716 1773.00
36.1758 1831.00
36.4801 1473.00
36.7843 1542.00
37.0886 1301.00
37.3929 1425.00
37.6971 1879.00
38.0014 1312.00
38.3056 1447.00
38.6099 1466.00
38.9142 1387.00
39.2184 1323.00
39.5227 1334.00
39.8269 1329.00
40.1312 1399.00
40.4355 1552.00
40.7397 1985.00
41.044 1385.00
41.3482 1319.00
41.6525 1317.00
41.9568 1352.00
42.261 1325.00
42.5653 1301.00
42.8695 1357.00
43.1738 1314.00
43.4781 1858.00
43.7823 1470.00
44.0866 1402.00
44.3909 1422.00
44.6951 1317.00
44.9994 1325.00
45.3036 1371.00
45.6079 1395.00
45.9122 1292.00
46.2164 1341.00
46.5207 1318.00
46.8249 1323.00
47.1292 1330.00
47.4335 1312.00
47.7377 1595.00
48.042 1857.00
48.3462 1265.00
48.6505 1403.00
48.9548 1405.00
49.259 1339.00
49.5633 2495.00
49.8675 1323.00
50.1718 1370.00
50.4761 1509.00
50.7803 1343.00
51.0846 1437.00
51.3888 3030.00
51.6931 1438.00
51.9974 1317.00
52.3016 1449.00
52.6059 2792.00
52.9101 4235.00
53.2144 1540.00
53.5187 1395.00
53.8229 1341.00
54.1272 1369.00
54.4314 1446.00
54.7357 1643.00
55.04 1447.00
55.3442 2237.00
55.6485 1443.00
55.9527 1339.00
56.257 1289.00
56.5613 1384.00
56.8655 1292.00
57.1698 1453.00
57.474 1300.00
57.7783 1435.00
58.0826 1318.00
58.3868 1292.00
58.6911 1415.00
58.9953 1349.00
59.2996 1300.00
59.6039 1411.00
59.9081 1453.00
60.2124 3226.00
60.5166 1523.00
60.8209 1496.00
61.1252 1404.00
61.4294 1295.00
61.7337 1357.00
62.0379 1346.00
62.3422 1728.00
62.6465 1342.00
62.9507 2199.00
63.255 1770.00
63.5592 1420.00
63.8635 3868.00
64.1678 1687.00
64.472 1479.00
64.7763 1348.00
65.0806 1366.00
65.3848 1426.00
65.6891 1343.00
65.9933 1702.00
66.2976 1410.00
66.6019 1405.00
66.9061 1504.00
67.2104 1325.00
67.5146 1448.00
67.8189 1710.00
68.1232 1363.00
68.4274 1331.00
68.7317 1359.00
69.0359 1355.00
69.3402 1404.00
69.6445 1399.00
69.9487 1321.00
70.253 1336.00
70.5572 1332.00
70.8615 1361.00
71.1658 1343.00
71.47 1391.00
71.7743 1477.00
72.0785 1335.00
72.3828 1350.00
72.6871 1354.00
72.9913 1373.00
73.2956 1434.00
73.5998 1342.00
73.9041 1373.00
74.2084 1357.00
74.5126 1452.00
74.8169 1526.00
75.1211 1365.00
75.4254 1314.00
75.7297 1370.00
76.0339 1469.00
76.3382 1636.00
76.6424 1456.00
76.9467 1369.00
77.251 1388.00
77.5552 1489.00
77.8595 1662.00
78.1637 1400.00
78.468 1316.00
78.7723 1336.00
79.0765 1417.00
79.3808 1335.00
79.685 1457.00
79.9893 2051.00
80.2936 1593.00
80.5978 1382.00
80.9021 1291.00
81.2063 1375.00
81.5106 1405.00
81.8149 1340.00
82.1191 1383.00
82.4234 1366.00
82.7277 1365.00
83.0319 1512.00
83.3362 1371.00
83.6404 1415.00
83.9447 1401.00
84.249 1360.00
84.5532 1449.00
84.8575 1386.00
85.1617 1483.00
85.466 1350.00
85.7703 1402.00
86.0745 1384.00
86.3788 1252.00
86.683 1711.00
86.9873 1751.00
87.2916 1420.00
87.5958 1426.00
87.9001 1409.00
88.2043 1973.00
88.5086 1672.00
88.8129 1393.00
89.1171 1487.00
89.4214 1456.00
89.7256 1385.00
90.0299 1449.00
90.3342 1600.00
90.6384 1741.00
90.9427 1511.00
91.2469 1466.00
91.5512 1458.00
91.8555 1375.00
92.1597 1373.00
92.464 1399.00
92.7682 1375.00
93.0725 1384.00
93.3768 1324.00
93.681 1412.00
93.9853 1489.00
94.2895 1486.00
94.5938 1473.00
94.8981 1600.00
95.2023 1473.00
95.5066 1346.00
95.8108 1469.00
96.1151 1400.00
96.4194 1443.00
96.7236 1502.00
97.0279 1363.00
97.3321 1593.00
97.6364 1564.00
97.9407 1460.00
98.2449 1397.00
98.5492 1684.00
98.8534 1573.00
99.1577 1429.00
99.462 1416.00
99.7662 1377.00
99.9944 1439.00

File: PG_2639-1.xy
10.0094 3210.00
10.3137 3053.00
10.618 3161.00
10.9222 3046.00
11.2265 3014.00
11.5307 2915.00
11.835 2845.00
12.1393 2822.00
12.4435 2883.00
12.7478 2911.00
13.052 2779.00
13.3563 2864.00
13.6606 2768.00
13.9648 2790.00
14.2691 2793.00
14.5733 2783.00
14.8776 2731.00
15.1819 2791.00
15.4861 2776.00
15.7904 2780.00
16.0946 2866.00
16.3989 2821.00
16.7032 2762.00
17.0074 2825.00
17.3117 2922.00
17.6159 2896.00
17.9202 2889.00
18.2245 2967.00
18.5287 3670.00
18.833 2972.00
19.1372 2848.00
19.4415 2872.00
19.7458 2893.00
20.05 2845.00
20.3543 2760.00
20.6585 2886.00
20.9628 2905.00
21.2671 2806.00
21.5713 2974.00
21.8756 2825.00
22.1798 2851.00
22.4841 2786.00
22.7884 2916.00
23.0926 2902.00
23.3969 3141.00
23.7011 2915.00
24.0054 2962.00
24.3097 2885.00
24.6139 3009.00
24.9182 2894.00
25.2224 2908.00
25.5267 2976.00
25.831 2963.00
26.1352 2801.00
26.4395 2966.00
26.7438 2955.00
27.048 2841.00
27.3523 2950.00
27.6565 3023.00
27.9608 2995.00
28.2651 2913.00
28.5693 2931.00
28.8736 3022.00
29.1778 2951.00
29.4821 2978.00
29.7864 2992.00
30.0906 3253.00
30.3949 4983.00
30.6991 3085.00
31.0034 2990.00
31.3077 3101.00
31.6119 2987.00
31.9162 2996.00
32.2204 3080.00
32.5247 3079.00
32.829 2942.00
33.1332 3270.00
33.4375 3350.00
33.7417 2951.00
34.046 3132.00
34.3503 2955.00
34.6545 3059.00
34.9588 3008.00
35.263 3216.00
35.5673 6759.00
35.8716 8633.00
36.1758 3229.00
36.4801 3136.00
36.7843 3153.00
37.0886 3121.00
37.3929 5044.00
37.6971 4111.00
38.0014 3112.00
38.3056 3186.00
38.6099 3316.00
38.9142 3057.00
39.2184 2912.00
39.5227 3017.00
39.8269 3172.00
40.1312 3038.00
40.4355 3130.00
40.7397 3117.00
41.044 2954.00
41.3482 2963.00
41.6525 3046.00
41.9568 3169.00
42.261 3132.00
42.5653 3100.00
42.8695 3238.00
43.1738 3983.00
43.4781 9241.00
43.7823 3775.00
44.0866 3184.00
44.3909 3142.00
44.6951 3228.00
44.9994 3098.00
45.3036 3121.00
45.6079 3145.00
45.9122 3019.00
46.2164 3225.00
46.5207 3174.00
46.8249 3067.00
47.1292 3064.00
47.4335 3142.00
47.7377 3137.00
48.042 3036.00
48.3462 3119.00
48.6505 3108.00
48.9548 3161.00
49.259 3222.00
49.5633 3187.00
49.8675 3206.00
50.1718 3145.00
50.4761 3144.00
50.7803 3165.00
51.0846 3157.00
51.3888 3095.00
51.6931 3155.00
51.9974 3166.00
52.3016 3216.00
52.6059 3087.00
52.9101 3180.00
53.2144 3230.00
53.5187 3417.00
53.8229 3596.00
54.1272 3258.00
54.4314 3179.00
54.7357 3093.00
55.04 3215.00
55.3442 3302.00
55.6485 3326.00
55.9527 3151.00
56.257 3141.00
56.5613 3246.00
56.8655 3628.00
57.1698 4520.00
57.474 4769.00
57.7783 3384.00
58.0826 3287.00
58.3868 3309.00
58.6911 3167.00
58.9953 3186.00
59.2996 3277.00
59.6039 3290.00
59.9081 3162.00
60.2124 3365.00
60.5166 3237.00
60.8209 3305.00
61.1252 3224.00
61.4294 3361.00
61.7337 3331.00
62.0379 3260.00
62.3422 3620.00
62.6465 4656.00
62.9507 5852.00
63.255 6102.00
63.5592 3520.00
63.8635 3357.00
64.1678 3297.00
64.472 3446.00
64.7763 3238.00
65.0806 3197.00
65.3848 3244.00
65.6891 3224.00
65.9933 3455.00
66.2976 3470.00
66.6019 3212.00
66.9061 3364.00
67.2104 3164.00
67.5146 3203.00
67.8189 3418.00
68.1232 3247.00
68.4274 3258.00
68.7317 3183.00
69.0359 3328.00
69.3402 3314.00
69.6445 3311.00
69.9487 3316.00
70.253 3433.00
70.5572 3261.00
70.8615 3361.00
71.1658 3441.00
71.47 3320.00
71.7743 3381.00
72.0785 3370.00
72.3828 3113.00
72.6871 3349.00
72.9913 3324.00
73.2956 3235.00
73.5998 3339.00
73.9041 3412.00
74.2084 3575.00
74.5126 3703.00
74.8169 3505.00
75.1211 3500.00
75.4254 3699.00
75.7297 4138.00
76.0339 3445.00
76.3382 3296.00
76.6424 3268.00
76.9467 3290.00
77.251 3245.00
77.5552 3362.00
77.8595 3271.00
78.1637 3278.00
78.468 3337.00
78.7723 3352.00
79.0765 3502.00
79.3808 3525.00
79.685 3912.00
79.9893 3586.00
80.2936 3402.00
80.5978 3325.00
80.9021 3407.00
81.2063 3330.00
81.5106 3367.00
81.8149 3381.00
82.1191 3334.00
82.4234 3398.00
82.7277 3391.00
83.0319 3344.00
83.3362 3446.00
83.6404 3416.00
83.9447 3420.00
84.249 3317.00
84.5532 3354.00
84.8575 3323.00
85.1617 3299.00
85.466 3363.00
85.7703 3328.00
86.0745 3439.00
86.3788 3352.00
86.683 3570.00
86.9873 3536.00
87.2916 3435.00
87.5958 3454.00
87.9001 3407.00
88.2043 3399.00
88.5086 3405.00
88.8129 3381.00
89.1171 3430.00
89.4214 3501.00
89.7256 3650.00
90.0299 3780.00
90.3342 3759.00
90.6384 3522.00
90.9427 3329.00
91.2469 3456.00
91.5512 3476.00
91.8555 3474.00
92.1597 3385.00
92.464 3426.00
92.7682 3419.00
93.0725 3324.00
93.3768 3504.00
93.681 3347.00
93.9853 3388.00
94.2895 3494.00
94.5938 3522.00
94.8981 3552.00
95.2023 3934.00
95.5066 3757.00
95.8108 3497.00
96.1151 3419.00
96.4194 3295.00
96.7236 3550.00
97.0279 3374.00
97.3321 3411.00
97.6364 3461.00
97.9407 3391.00
98.2449 3376.00
98.5492 3376.00
98.8534 3489.00
99.1577 3511.00
99.462 3460.00
99.7662 3363.00
99.9944 3342.00

File: PG_2640-1.xy
9.903433 2561.00
10.2077 2562.00
10.512 2490.00
10.8162 2259.00
11.1205 2196.00
11.4247 2292.00
11.729 2101.00
12.0333 2004.00
12.3375 1927.00
12.6418 1994.00
12.946 1801.00
13.2503 1830.00
13.5546 1748.00
13.8588 1756.00
14.1631 1951.00
14.4673 3145.00
14.7716 1770.00
15.0759 1653.00
15.3801 1727.00
15.6844 1571.00
15.9886 1661.00
16.2929 1505.00
16.5972 1572.00
16.9014 1541.00
17.2057 1519.00
17.5099 1538.00
17.8142 1496.00
18.1185 1450.00
18.4227 1469.00
18.727 1401.00
19.0312 1379.00
19.3355 1383.00
19.6398 1447.00
19.944 1351.00
20.2483 1430.00
20.5525 1426.00
20.8568 1320.00
21.1611 1424.00
21.4653 1319.00
21.7696 1345.00
22.0738 1246.00
22.3781 1288.00
22.6824 1369.00
22.9866 1311.00
23.2909 1310.00
23.5951 1254.00
23.8994 1276.00
24.2037 1267.00
24.5079 1371.00
24.8122 1337.00
25.1164 1265.00
25.4207 1240.00
25.725 1247.00
26.0292 1497.00
26.3335 2746.00
26.6378 18269.00
26.942 3796.00
27.2463 1743.00
27.5505 2173.00
27.8548 1401.00
28.1591 1296.00
28.4633 1329.00
28.7676 1673.00
29.0718 2366.00
29.3761 1633.00
29.6804 1252.00
29.9846 1228.00
30.2889 1193.00
30.5931 1700.00
30.8974 2558.00
31.2017 4829.00
31.5059 1589.00
31.8102 1826.00
32.1144 3249.00
32.4187 7668.00
32.723 2824.00
33.0272 1889.00
33.3315 2272.00
33.6357 1350.00
33.94 1556.00
34.2443 4287.00
34.5485 2514.00
34.8528 1218.00
35.157 1302.00
35.4613 1098.00
35.7656 1139.00
36.0698 1134.00
36.3741 1285.00
36.6783 1187.00
36.9826 1306.00
37.2869 1191.00
37.5911 1028.00
37.8954 972.00
38.1996 1050.00
38.5039 1198.00
38.8082 1011.00
39.1124 981.00
39.4167 1099.00
39.7209 1591.00
40.0252 1270.00
40.3295 1486.00
40.6337 1018.00
40.938 1473.00
41.2422 1081.00
41.5465 992.00
41.8508 1010.00
42.155 955.00
42.4593 1048.00
42.7635 976.00
43.0678 1004.00
43.3721 993.00
43.6763 1107.00
43.9806 1196.00
44.2849 1184.00
44.5891 1660.00
44.8934 2155.00
45.1976 1498.00
45.5019 1275.00
45.8062 1194.00
46.1104 1611.00
46.4147 2291.00
46.7189 1599.00
47.0232 1155.00
47.3275 1160.00
47.6317 1950.00
47.936 3507.00
48.2402 1180.00
48.5445 1135.00
48.8488 1027.00
49.153 1060.00
49.4573 1298.00
49.7615 1733.00
50.0658 3274.00
50.3701 2254.00
50.6743 1510.00
50.9786 1234.00
51.2828 1152.00
51.5871 1039.00
51.8914 1095.00
52.1956 2163.00
52.4999 5327.00
52.8041 1328.00
53.1084 1161.00
53.4127 1316.00
53.7169 1147.00
54.0212 1255.00
54.3254 1123.00
54.6297 1143.00
54.934 1075.00
55.2382 1167.00
55.5425 1309.00
55.8467 1095.00
56.151 1363.00
56.4553 1779.00
56.7595 1174.00
57.0638 1121.00
57.368 1045.00
57.6723 1176.00
57.9766 1432.00
58.2808 2222.00
58.5851 1744.00
58.8893 1569.00
59.1936 1264.00
59.4979 2108.00
59.8021 1404.00
60.1064 1293.00
60.4106 1405.00
60.7149 1980.00
61.0192 1646.00
61.3234 1286.00
61.6277 1255.00
61.932 952.00
62.2362 967.00
62.5405 1024.00
62.8447 1088.00
63.149 1158.00
63.4533 1391.00
63.7575 1321.00
64.0618 1152.00
64.366 1735.00
64.6703 1103.00
64.9745 1006.00
65.2788 1007.00
65.5831 959.00
65.8873 1263.00
66.1916 2419.00
66.4959 2069.00
66.8001 1138.00
67.1044 963.00
67.4086 997.00
67.7129 988.00
68.0172 947.00
68.3214 1039.00
68.6257 1106.00
68.9299 977.00
69.2342 996.00
69.5385 1018.00
69.8427 1135.00
70.147 1336.00
70.4512 1112.00
70.7555 895.00
71.0598 909.00
71.364 958.00
71.6683 1004.00
71.9725 1242.00
72.2768 1433.00
72.5811 1239.00
72.8853 1014.00
73.1896 984.00
73.4938 1062.00
73.7981 1150.00
74.1024 1250.00
74.4066 1138.00
74.7109 972.00
75.0151 1048.00
75.3194 1139.00
75.6237 1446.00
75.9279 1153.00
76.2322 1013.00
76.5364 1345.00
76.8407 1510.00
77.145 996.00
77.4492 909.00
77.7535 861.00
78.0577 908.00
78.362 903.00
78.6663 907.00
78.9705 898.00
79.2748 1016.00
79.579 995.00
79.8833 1059.00
80.1876 1021.00
80.4918 1006.00
80.7961 1069.00
81.1003 1059.00
81.4046 929.00
81.7089 987.00
82.0131 1012.00
82.3174 999.00
82.6217 1117.00
82.9259 1443.00
83.2302 1476.00
83.5344 1431.00
83.8387 1436.00
84.143 1259.00
84.4472 1302.00
84.7515 1640.00
85.0557 1419.00
85.36 1149.00
85.6643 1078.00
85.9685 1024.00
86.2728 1366.00
86.577 1089.00
86.8813 1079.00
87.1856 1119.00
87.4898 1068.00
87.7941 1160.00
88.0983 1175.00
88.4026 1000.00
88.7069 997.00
89.0111 1037.00
89.3154 1043.00
89.6196 1143.00
89.9239 1195.00
90.2282 1120.00
90.5324 1065.00
90.8367 1079.00
91.1409 1064.00
91.4452 1363.00
91.7495 1111.00
92.0537 1029.00
92.358 1005.00
92.6622 951.00
92.9665 1005.00
93.2708 1174.00
93.575 1090.00
93.8793 1066.00
94.1835 917.00
94.4878 943.00
94.7921 916.00
95.0963 911.00
95.4006 893.00
95.7048 884.00
96.0091 1086.00
96.3134 996.00
96.6176 930.00
96.9219 982.00
97.2261 1013.00
97.5304 1032.00
97.8347 1171.00
98.1389 1154.00
98.4432 1041.00
98.7474 1013.00
99.0517 975.00
99.356 945.00
99.6602 914.00
99.9645 923.00
100.095 873.00