Folder: alab-pipeline/data/xrd_creation/results

Note: data/xrd_creation/results/MINES_1_result.json
{
  "experiment_id": "65c59d14c73aef61aef16b95",
  "experiment_name": "MINES_1",
  "success": false,
  "error": "No reference CIFs found",
  "rwp": null,
  "rp": null,
  "rexp": null,
  "num_phases": 0,
  "phases": null,
  "chemical_system": "Fe-Li-O-Si",
  "target_formula": "LiFeSi2O6",
  "analysis_timestamp": "2025-12-06T17:12:08.786413",
  "mode": "phase_search",
  "wmin": 10,
  "wmax": 80
}

Note: data/xrd_creation/results/MINES_10_result.json
{
  "experiment_id": "65bd7fe2ad82b78be321d8c5",
  "experiment_name": "MINES_10",
  "success": false,
  "error": "No reference CIFs found",
  "rwp": null,
  "rp": null,
  "rexp": null,
  "num_phases": 0,
  "phases": null,
  "chemical_system": "Cr-Li-O-Si",
  "target_formula": "LiCrSi2O6",
  "analysis_timestamp": "2025-12-06T17:11:59.053461",
  "mode": "phase_search",
  "wmin": 10,
  "wmax": 80
}

Note: data/xrd_creation/results/MINES_11_result.json
{
  "experiment_id": "65bd7fe2ad82b78be321d8d0",
  "experiment_name": "MINES_11",
  "success": false,
  "error": "No reference CIFs found",
  "rwp": null,
  "rp": null,
  "rexp": null,
  "num_phases": 0,
  "phases": null,
  "chemical_system": "Al-Cr-Li-O-Si",
  "target_formula": "LiAl0.95Cr0.05Si2O6",
  "analysis_timestamp": "2025-12-06T17:08:51.041718",
  "mode": "phase_search",
  "wmin": 10,
  "wmax": 80
}

Note: data/xrd_creation/results/MINES_12_result.json
{
  "experiment_id": "65bd7fe2ad82b78be321d8db",
  "experiment_name": "MINES_12",
  "success": false,
  "error": "No reference CIFs found",
  "rwp": null,
  "rp": null,
  "rexp": null,
  "num_phases": 0,
  "phases": null,
  "chemical_system": "Al-Cr-Li-O-Si",
  "target_formula": "LiAl0.5Cr0.5Si2O6",
  "analysis_timestamp": "2025-12-06T17:03:01.894883",
  "mode": "phase_search",
  "wmin": 10,
  "wmax": 80
}

Note: data/xrd_creation/results/MINES_13_result.json
{
  "experiment_id": "65c59d14c73aef61aef16bb0",
  "experiment_name": "MINES_13",
  "success": false,
  "error": "No reference CIFs found",
  "rwp": null,
  "rp": null,
  "rexp": null,
  "num_phases": 0,
  "phases": null,
  "chemical_system": "Li-Mn-O-Si",
  "target_formula": "LiMnSi2O6",
  "analysis_timestamp": "2025-12-06T17:13:29.685703",
  "mode": "phase_search",
  "wmin": 10,
  "wmax": 80
}

Note: data/xrd_creation/results/MINES_14_result.json
{
  "experiment_id": "65bd7fe2ad82b78be321d8f1",
  "experiment_name": "MINES_14",
  "success": false,
  "error": "No reference CIFs found",
  "rwp": null,
  "rp": null,
  "rexp": null,
  "num_phases": 0,
  "phases": null,
  "chemical_system": "Al-Li-Mn-O-Si",
  "target_formula": "LiAl0.95Mn0.05Si2O6",
  "analysis_timestamp": "2025-12-06T17:10:21.343445",
  "mode": "phase_search",
  "wmin": 10,
  "wmax": 80
}

Note: data/xrd_creation/results/MINES_15_result.json
{
  "experiment_id": "65c59d13c73aef61aef16b7a",
  "experiment_name": "MINES_15",
  "success": false,
  "error": "No reference CIFs found",
  "rwp": null,
  "rp": null,
  "rexp": null,
  "num_phases": 0,
  "phases": null,
  "chemical_system": "Al-Li-Mn-O-Si",
  "target_formula": "LiAl0.5Mn0.5Si2O6",
  "analysis_timestamp": "2025-12-06T17:07:08.632768",
  "mode": "phase_search",
  "wmin": 10,
  "wmax": 80
}

Note: data/xrd_creation/results/MINES_16_result.json
{
  "experiment_id": "65c59d14c73aef61aef16ba7",
  "experiment_name": "MINES_16",
  "success": false,
  "error": "No reference CIFs found",
  "rwp": null,
  "rp": null,
  "rexp": null,
  "num_phases": 0,
  "phases": null,
  "chemical_system": "In-Li-O-Si",
  "target_formula": "LiInSi2O6",
  "analysis_timestamp": "2025-12-06T17:13:02.201381",
  "mode": "phase_search",
  "wmin": 10,
  "wmax": 80
}

Note: data/xrd_creation/results/MINES_17_result.json
{
  "experiment_id": "65bd809e274a3b27b9daa45f",
  "experiment_name": "MINES_17",
  "success": false,
  "error": "No reference CIFs found",
  "rwp": null,
  "rp": null,
  "rexp": null,
  "num_phases": 0,
  "phases": null,
  "chemical_system": "Al-In-Li-O-Si",
  "target_formula": "LiAl0.95In0.05Si2O6",
  "analysis_timestamp": "2025-12-06T17:09:51.917404",
  "mode": "phase_search",
  "wmin": 10,
  "wmax": 80
}

Note: data/xrd_creation/results/MINES_19_result.json
{
  "experiment_id": "65c59d14c73aef61aef16b9e",
  "experiment_name": "MINES_19",
  "success": false,
  "error": "No reference CIFs found",
  "rwp": null,
  "rp": null,
  "rexp": null,
  "num_phases": 0,
  "phases": null,
  "chemical_system": "Ga-Li-O-Si",
  "target_formula": "LiGaSi2O6",
  "analysis_timestamp": "2025-12-06T17:12:46.872303",
  "mode": "phase_search",
  "wmin": 10,
  "wmax": 80
}

Note: data/xrd_creation/results/MINES_20_result.json
{
  "experiment_id": "65c59d13c73aef61aef16b6a",
  "experiment_name": "MINES_20",
  "success": false,
  "error": "No reference CIFs found",
  "rwp": null,
  "rp": null,
  "rexp": null,
  "num_phases": 0,
  "phases": null,
  "chemical_system": "Al-Ga-Li-O-Si",
  "target_formula": "LiAl0.95Ga0.05Si2O6",
  "analysis_timestamp": "2025-12-06T17:09:23.872864",
  "mode": "phase_search",
  "wmin": 10,
  "wmax": 80
}

Note: data/xrd_creation/results/MINES_21_result.json
{
  "experiment_id": "65c524b3e777758f872c3369",
  "experiment_name": "MINES_21",
  "success": false,
  "error": "No reference CIFs found",
  "rwp": null,
  "rp": null,
  "rexp": null,
  "num_phases": 0,
  "phases": null,
  "chemical_system": "Al-Ga-Li-O-Si",
  "target_formula": "LiAl0.5Ga0.5Si2O6",
  "analysis_timestamp": "2025-12-06T17:05:04.970596",
  "mode": "phase_search",
  "wmin": 10,
  "wmax": 80
}

Note: data/xrd_creation/README.md
# DARA XRD Analysis

Automated XRD phase identification and Rietveld refinement using [DARA](https://github.com/idocx/dara).

## Quick Start

```bash
# From project root:
./run_analysis.sh                      # Incremental (skip existing)
./run_analysis.sh --limit 10           # Test with 10 experiments
./run_analysis.sh --experiment NSC_249 # Single experiment
./run_analysis.sh --all                # Rerun all experiments
./run_analysis.sh --all --limit 20     # Rerun first 20 only
./run_analysis.sh --workers 4          # Parallel processing
./run_analysis.sh --export-only        # Consolidate JSON → Parquet only
```

## Output

**JSON results** (per experiment): `results/<experiment>_result.json` (includes success AND failures)

**Parquet files** (aggregated): `../parquet/`

- `xrd_refinements.parquet` - All experiments (success=True/False, error, error_type, Rwp, num_phases)
- `xrd_phases.parquet` - Individual phases from successful analyses only

**Note:** Failed analyses are included in `xrd_refinements.parquet` with `success=False`. Query failures with: `df[df['success'] == False]`

## Files

| File                | Purpose                              |
| ------------------- | ------------------------------------ |
| `analyze_single.py` | Single experiment analysis (CLI)     |
| `analyze_batch.py`  | Batch processing with Parquet export |
| `xrd_utils.py`      | Shared utilities and primitives      |

## Compute Requirements

- ~45 seconds per experiment (first run for a chemical system downloads CIFs)
- 576 experiments × 45 sec = ~7 hours sequential
- With `--workers 4`: ~1.8 hours
- **Tip:** Use `--limit 10` to test on subset first (~7.5 minutes)

**Incremental Processing:** By default, only experiments without existing results are analyzed. Use `--all` to force reanalysis of all experiments.

**Export-Only Mode:** `--export-only` skips all analysis and only aggregates existing JSON results into Parquet files. No new analyses are run.

## Result Schema

**Success:**

```json
{
  "experiment_name": "NSC_249",
  "success": true,
  "rwp": 12.04,
  "num_phases": 3,
  "phases": [
    {
      "phase_name": "Na3Zr2Si2PO12_...",
      "spacegroup": "R-3c",
      "weight_fraction": 0.45
    }
  ]
}
```

**Failure:**

```json
{
  "experiment_name": "NSC_145",
  "success": false,
  "error": "No peaks are detected in the pattern.",
  "error_type": "no_peaks_detected"
}
```

**Error types:** `no_peaks_detected`, `cif_download`, `timeout`, `no_chemical_system`, `dara_internal_error`, `analysis_error`

## Design Decisions

| Question                             | Decision                                                                                                    |
| ------------------------------------ | ----------------------------------------------------------------------------------------------------------- |
| Filter low-quality patterns?         | No pre-filter. Flag post-analysis via `Rwp > 30%`                                            

File: MINES_1.xy
9.903433 3621.00
10.2077 3719.00
10.512 3549.00
10.8162 3571.00
11.1205 3457.00
11.4247 3409.00
11.729 3323.00
12.0333 3356.00
12.3375 3244.00
12.6418 3187.00
12.946 3103.00
13.2503 3201.00
13.5546 3050.00
13.8588 3157.00
14.1631 3422.00
14.4673 3795.00
14.7716 3156.00
15.0759 3088.00
15.3801 3192.00
15.6844 3104.00
15.9886 3027.00
16.2929 3227.00
16.5972 3255.00
16.9014 3065.00
17.2057 3114.00
17.5099 3057.00
17.8142 3057.00
18.1185 3073.00
18.4227 3047.00
18.727 3082.00
19.0312 2980.00
19.3355 3112.00
19.6398 3012.00
19.944 3270.00
20.2483 3594.00
20.5525 3179.00
20.8568 3625.00
21.1611 3363.00
21.4653 3112.00
21.7696 3061.00
22.0738 3005.00
22.3781 2901.00
22.6824 2871.00
22.9866 2951.00
23.2909 3028.00
23.5951 2947.00
23.8994 3319.00
24.2037 3340.00
24.5079 3530.00
24.8122 3234.00
25.1164 3890.00
25.4207 3282.00
25.725 3618.00
26.0292 2961.00
26.3335 2986.00
26.6378 3482.00
26.942 4508.00
27.2463 3009.00
27.5505 2967.00
27.8548 2877.00
28.1591 2890.00
28.4633 2912.00
28.7676 2776.00
29.0718 2777.00
29.3761 2755.00
29.6804 2926.00
29.9846 3840.00
30.2889 3574.00
30.5931 2811.00
30.8974 2868.00
31.2017 2886.00
31.5059 3580.00
31.8102 2903.00
32.1144 2664.00
32.4187 2822.00
32.723 2962.00
33.0272 2863.00
33.3315 3577.00
33.6357 2869.00
33.94 2598.00
34.2443 2667.00
34.5485 2769.00
34.8528 2754.00
35.157 2766.00
35.4613 2779.00
35.7656 3465.00
36.0698 3240.00
36.3741 3350.00
36.6783 2815.00
36.9826 2693.00
37.2869 2626.00
37.5911 3052.00
37.8954 2857.00
38.1996 2761.00
38.5039 2771.00
38.8082 2612.00
39.1124 2568.00
39.4167 2657.00
39.7209 2770.00
40.0252 2532.00
40.3295 2574.00
40.6337 2640.00
40.938 2619.00
41.2422 2763.00
41.5465 2601.00
41.8508 2554.00
42.155 2500.00
42.4593 2899.00
42.7635 2673.00
43.0678 2828.00
43.3721 2672.00
43.6763 2511.00
43.9806 2694.00
44.2849 2462.00
44.5891 2442.00
44.8934 2490.00
45.1976 2513.00
45.5019 2560.00
45.8062 2527.00
46.1104 2544.00
46.4147 2561.00
46.7189 2486.00
47.0232 2350.00
47.3275 2487.00
47.6317 2693.00
47.936 2427.00
48.2402 2420.00
48.5445 2557.00
48.8488 2431.00
49.153 2404.00
49.4573 2530.00
49.7615 2966.00
50.0658 2496.00
50.3701 2523.00
50.6743 2425.00
50.9786 2387.00
51.2828 2402.00
51.5871 2373.00
51.8914 2320.00
52.1956 2345.00
52.4999 2325.00
52.8041 2379.00
53.1084 2354.00
53.4127 2296.00
53.7169 2329.00
54.0212 2540.00
54.3254 2934.00
54.6297 2383.00
54.934 2353.00
55.2382 2369.00
55.5425 2343.00
55.8467 2245.00
56.151 2331.00
56.4553 2745.00
56.7595 2477.00
57.0638 2327.00
57.368 2431.00
57.6723 2455.00
57.9766 2325.00
58.2808 2264.00
58.5851 2159.00
58.8893 2243.00
59.1936 2372.00
59.4979 2295.00
59.8021 2227.00
60.1064 2348.00
60.4106 2310.00
60.7149 2267.00
61.0192 2315.00
61.3234 2362.00
61.6277 2320.00
61.932 2271.00
62.2362 2417.00
62.5405 2546.00
62.8447 2396.00
63.149 2208.00
63.4533 2208.00
63.7575 2261.00
64.0618 2441.00
64.366 2382.00
64.6703 2275.00
64.9745 2284.00
65.2788 2249.00
65.5831 2099.00
65.8873 2261.00
66.1916 2164.00
66.4959 2136.00
66.8001 2189.00
67.1044 2184.00
67.4086 2259.00
67.7129 2257.00
68.0172 2254.00
68.3214 2334.00
68.6257 2393.00
68.9299 2342.00
69.2342 2546.00
69.5385 2231.00
69.8427 2166.00
70.147 2231.00
70.4512 2270.00
70.7555 2086.00
71.0598 2137.00
71.364 2100.00
71.6683 2060.00
71.9725 2255.00
72.2768 2251.00
72.5811 2168.00
72.8853 2169.00
73.1896 2255.00
73.4938 2188.00
73.7981 2118.00
74.1024 2167.00
74.4066 2096.00
74.7109 2046.00
75.0151 1990.00
75.3194 2069.00
75.6237 2209.00
75.9279 2150.00
76.2322 2188.00
76.5364 2117.00
76.8407 2134.00
77.145 2084.00
77.4492 2064.00
77.7535 2118.00
78.0577 2155.00
78.362 2131.00
78.6663 2052.00
78.9705 2061.00
79.2748 1978.00
79.579 2057.00
79.8833 1997.00
80.1876 2089.00
80.4918 2123.00
80.7961 2098.00
81.1003 2052.00
81.4046 2090.00
81.7089 2003.00
82.0131 2047.00
82.3174 2007.00
82.6217 2079.00
82.9259 2007.00
83.2302 2080.00
83.5344 1925.00
83.8387 2134.00
84.143 1982.00
84.4472 1984.00
84.7515 2051.00
85.0557 2005.00
85.36 2052.00
85.6643 2025.00
85.9685 2062.00
86.2728 1990.00
86.577 1976.00
86.8813 1925.00
87.1856 1984.00
87.4898 1960.00
87.7941 2019.00
88.0983 1970.00
88.4026 2022.00
88.7069 1994.00
89.0111 2078.00
89.3154 1910.00
89.6196 1968.00
89.9239 1920.00
90.2282 1936.00
90.5324 2008.00
90.8367 1952.00
91.1409 1956.00
91.4452 2022.00
91.7495 1979.00
92.0537 1947.00
92.358 1917.00
92.6622 1827.00
92.9665 1935.00
93.2708 1892.00
93.575 1985.00
93.8793 2112.00
94.1835 2000.00
94.4878 1991.00
94.7921 1973.00
95.0963 1999.00
95.4006 1987.00
95.7048 1960.00
96.0091 1963.00
96.3134 1979.00
96.6176 1885.00
96.9219 1943.00
97.2261 1832.00
97.5304 1975.00
97.8347 1820.00
98.1389 1925.00
98.4432 1919.00
98.7474 1920.00
99.0517 1922.00
99.356 1925.00
99.6602 1891.00
99.9645 1922.00
100.095 1917.00

File: MINES_2.xy
9.903433 2708.00
10.2077 2553.00
10.512 2464.00
10.8162 2375.00
11.1205 2252.00
11.4247 2202.00
11.729 2053.00
12.0333 2050.00
12.3375 1934.00
12.6418 1808.00
12.946 1799.00
13.2503 1661.00
13.5546 1689.00
13.8588 1626.00
14.1631 1587.00
14.4673 1577.00
14.7716 1463.00
15.0759 1506.00
15.3801 1499.00
15.6844 1353.00
15.9886 1388.00
16.2929 1603.00
16.5972 1366.00
16.9014 1279.00
17.2057 1311.00
17.5099 1249.00
17.8142 1226.00
18.1185 1182.00
18.4227 1152.00
18.727 1219.00
19.0312 1186.00
19.3355 1630.00
19.6398 1121.00
19.944 1052.00
20.2483 1104.00
20.5525 1378.00
20.8568 1146.00
21.1611 1048.00
21.4653 922.00
21.7696 937.00
22.0738 943.00
22.3781 1004.00
22.6824 1585.00
22.9866 1406.00
23.2909 911.00
23.5951 1346.00
23.8994 1141.00
24.2037 1460.00
24.5079 1060.00
24.8122 2704.00
25.1164 2027.00
25.4207 4118.00
25.725 3500.00
26.0292 1209.00
26.3335 2370.00
26.6378 1647.00
26.942 880.00
27.2463 792.00
27.5505 760.00
27.8548 802.00
28.1591 1000.00
28.4633 861.00
28.7676 729.00
29.0718 697.00
29.3761 697.00
29.6804 682.00
29.9846 682.00
30.2889 766.00
30.5931 871.00
30.8974 644.00
31.2017 677.00
31.5059 611.00
31.8102 662.00
32.1144 676.00
32.4187 641.00
32.723 616.00
33.0272 664.00
33.3315 613.00
33.6357 580.00
33.94 648.00
34.2443 624.00
34.5485 557.00
34.8528 487.00
35.157 500.00
35.4613 553.00
35.7656 592.00
36.0698 575.00
36.3741 569.00
36.6783 526.00
36.9826 562.00
37.2869 670.00
37.5911 1012.00
37.8954 720.00
38.1996 756.00
38.5039 528.00
38.8082 533.00
39.1124 707.00
39.4167 787.00
39.7209 559.00
40.0252 550.00
40.3295 476.00
40.6337 433.00
40.938 459.00
41.2422 473.00
41.5465 432.00
41.8508 434.00
42.155 458.00
42.4593 445.00
42.7635 461.00
43.0678 492.00
43.3721 494.00
43.6763 438.00
43.9806 493.00
44.2849 393.00
44.5891 422.00
44.8934 479.00
45.1976 469.00
45.5019 504.00
45.8062 541.00
46.1104 629.00
46.4147 414.00
46.7189 436.00
47.0232 445.00
47.3275 428.00
47.6317 539.00
47.936 585.00
48.2402 532.00
48.5445 618.00
48.8488 475.00
49.153 415.00
49.4573 448.00
49.7615 532.00
50.0658 476.00
50.3701 395.00
50.6743 425.00
50.9786 362.00
51.2828 340.00
51.5871 340.00
51.8914 353.00
52.1956 365.00
52.4999 384.00
52.8041 348.00
53.1084 362.00
53.4127 322.00
53.7169 370.00
54.0212 351.00
54.3254 363.00
54.6297 362.00
54.934 364.00
55.2382 355.00
55.5425 363.00
55.8467 422.00
56.151 424.00
56.4553 351.00
56.7595 322.00
57.0638 317.00
57.368 328.00
57.6723 327.00
57.9766 331.00
58.2808 294.00
58.5851 343.00
58.8893 274.00
59.1936 336.00
59.4979 364.00
59.8021 344.00
60.1064 349.00
60.4106 390.00
60.7149 383.00
61.0192 371.00
61.3234 309.00
61.6277 292.00
61.932 327.00
62.2362 284.00
62.5405 326.00
62.8447 314.00
63.149 323.00
63.4533 337.00
63.7575 350.00
64.0618 363.00
64.366 332.00
64.6703 374.00
64.9745 334.00
65.2788 326.00
65.5831 457.00
65.8873 331.00
66.1916 312.00
66.4959 379.00
66.8001 415.00
67.1044 437.00
67.4086 352.00
67.7129 394.00
68.0172 417.00
68.3214 369.00
68.6257 322.00
68.9299 325.00
69.2342 278.00
69.5385 264.00
69.8427 257.00
70.147 267.00
70.4512 257.00
70.7555 276.00
71.0598 285.00
71.364 291.00
71.6683 279.00
71.9725 306.00
72.2768 294.00
72.5811 289.00
72.8853 296.00
73.1896 292.00
73.4938 288.00
73.7981 283.00
74.1024 248.00
74.4066 303.00
74.7109 267.00
75.0151 282.00
75.3194 298.00
75.6237 300.00
75.9279 330.00
76.2322 309.00
76.5364 288.00
76.8407 306.00
77.145 331.00
77.4492 327.00
77.7535 335.00
78.0577 338.00
78.362 306.00
78.6663 298.00
78.9705 302.00
79.2748 326.00
79.579 303.00
79.8833 315.00
80.1876 287.00
80.4918 302.00
80.7961 348.00
81.1003 325.00
81.4046 291.00
81.7089 280.00
82.0131 290.00
82.3174 296.00
82.6217 303.00
82.9259 249.00
83.2302 291.00
83.5344 306.00
83.8387 246.00
84.143 299.00
84.4472 275.00
84.7515 306.00
85.0557 293.00
85.36 287.00
85.6643 290.00
85.9685 288.00
86.2728 294.00
86.577 275.00
86.8813 271.00
87.1856 240.00
87.4898 250.00
87.7941 275.00
88.0983 268.00
88.4026 271.00
88.7069 221.00
89.0111 229.00
89.3154 289.00
89.6196 265.00
89.9239 232.00
90.2282 238.00
90.5324 274.00
90.8367 273.00
91.1409 224.00
91.4452 229.00
91.7495 274.00
92.0537 271.00
92.358 236.00
92.6622 257.00
92.9665 234.00
93.2708 222.00
93.575 272.00
93.8793 245.00
94.1835 304.00
94.4878 246.00
94.7921 245.00
95.0963 233.00
95.4006 226.00
95.7048 275.00
96.0091 244.00
96.3134 230.00
96.6176 242.00
96.9219 238.00
97.2261 247.00
97.5304 303.00
97.8347 265.00
98.1389 237.00
98.4432 259.00
98.7474 258.00
99.0517 243.00
99.356 236.00
99.6602 234.00
99.9645 226.00
100.095 240.00

File: MINES_3.xy
9.903433 4785.00
10.2077 4727.00
10.512 4743.00
10.8162 4586.00
11.1205 4598.00
11.4247 4308.00
11.729 4421.00
12.0333 4589.00
12.3375 4353.00
12.6418 4414.00
12.946 4445.00
13.2503 4401.00
13.5546 4442.00
13.8588 4346.00
14.1631 4458.00
14.4673 5390.00
14.7716 4147.00
15.0759 4162.00
15.3801 4352.00
15.6844 4324.00
15.9886 4141.00
16.2929 4254.00
16.5972 4477.00
16.9014 4181.00
17.2057 4192.00
17.5099 4103.00
17.8142 4039.00
18.1185 4083.00
18.4227 3993.00
18.727 4025.00
19.0312 4092.00
19.3355 3964.00
19.6398 4439.00
19.944 4221.00
20.2483 4559.00
20.5525 4110.00
20.8568 5180.00
21.1611 4680.00
21.4653 3914.00
21.7696 3839.00
22.0738 3965.00
22.3781 3872.00
22.6824 4003.00
22.9866 4364.00
23.2909 4573.00
23.5951 3785.00
23.8994 4331.00
24.2037 5263.00
24.5079 5597.00
24.8122 4249.00
25.1164 8588.00
25.4207 4658.00
25.725 8227.00
26.0292 6947.00
26.3335 4412.00
26.6378 5335.00
26.942 8901.00
27.2463 3740.00
27.5505 3761.00
27.8548 3781.00
28.1591 3670.00
28.4633 3883.00
28.7676 3875.00
29.0718 3674.00
29.3761 3634.00
29.6804 3709.00
29.9846 3748.00
30.2889 5894.00
30.5931 4139.00
30.8974 4029.00
31.2017 3645.00
31.5059 3877.00
31.8102 4013.00
32.1144 3701.00
32.4187 3716.00
32.723 3615.00
33.0272 3699.00
33.3315 4590.00
33.6357 4103.00
33.94 3515.00
34.2443 3424.00
34.5485 3546.00
34.8528 3484.00
35.157 3440.00
35.4613 3588.00
35.7656 4078.00
36.0698 5547.00
36.3741 4134.00
36.6783 3805.00
36.9826 3419.00
37.2869 3509.00
37.5911 3765.00
37.8954 5137.00
38.1996 3579.00
38.5039 4257.00
38.8082 3522.00
39.1124 3469.00
39.4167 3802.00
39.7209 4102.00
40.0252 3646.00
40.3295 3632.00
40.6337 3559.00
40.938 3589.00
41.2422 3915.00
41.5465 3426.00
41.8508 3306.00
42.155 3544.00
42.4593 3991.00
42.7635 3481.00
43.0678 3718.00
43.3721 3679.00
43.6763 3640.00
43.9806 3323.00
44.2849 3768.00
44.5891 3412.00
44.8934 3408.00
45.1976 3666.00
45.5019 3492.00
45.8062 3570.00
46.1104 3611.00
46.4147 4149.00
46.7189 3391.00
47.0232 3370.00
47.3275 3339.00
47.6317 3645.00
47.936 3685.00
48.2402 3582.00
48.5445 3801.00
48.8488 3666.00
49.153 3647.00
49.4573 3562.00
49.7615 4782.00
50.0658 3701.00
50.3701 3967.00
50.6743 3354.00
50.9786 3400.00
51.2828 3414.00
51.5871 3286.00
51.8914 3380.00
52.1956 3221.00
52.4999 3292.00
52.8041 3446.00
53.1084 3394.00
53.4127 3269.00
53.7169 3291.00
54.0212 3423.00
54.3254 4893.00
54.6297 3511.00
54.934 3413.00
55.2382 3346.00
55.5425 3418.00
55.8467 3261.00
56.151 3452.00
56.4553 3703.00
56.7595 3957.00
57.0638 3337.00
57.368 3243.00
57.6723 4012.00
57.9766 3633.00
58.2808 3302.00
58.5851 3318.00
58.8893 3308.00
59.1936 3356.00
59.4979 3376.00
59.8021 3532.00
60.1064 3653.00
60.4106 3464.00
60.7149 3560.00
61.0192 3485.00
61.3234 3479.00
61.6277 3424.00
61.932 3322.00
62.2362 3391.00
62.5405 3770.00
62.8447 4027.00
63.149 3500.00
63.4533 3807.00
63.7575 3592.00
64.0618 3741.00
64.366 3922.00
64.6703 3491.00
64.9745 3675.00
65.2788 3459.00
65.5831 3395.00
65.8873 3731.00
66.1916 3333.00
66.4959 3327.00
66.8001 3563.00
67.1044 3536.00
67.4086 3677.00
67.7129 3560.00
68.0172 3689.00
68.3214 3683.00
68.6257 3718.00
68.9299 3488.00
69.2342 3777.00
69.5385 3498.00
69.8427 3338.00
70.147 3310.00
70.4512 3416.00
70.7555 3433.00
71.0598 3314.00
71.364 3249.00
71.6683 3316.00
71.9725 3450.00
72.2768 3655.00
72.5811 3508.00
72.8853 3276.00
73.1896 3376.00
73.4938 3442.00
73.7981 3395.00
74.1024 3315.00
74.4066 3326.00
74.7109 3289.00
75.0151 3253.00
75.3194 3215.00
75.6237 3512.00
75.9279 3379.00
76.2322 3354.00
76.5364 3538.00
76.8407 3458.00
77.145 3409.00
77.4492 3332.00
77.7535 3394.00
78.0577 3350.00
78.362 3502.00
78.6663 3281.00
78.9705 3389.00
79.2748 3342.00
79.579 3348.00
79.8833 3511.00
80.1876 3417.00
80.4918 3322.00
80.7961 3455.00
81.1003 3401.00
81.4046 3489.00
81.7089 3240.00
82.0131 3349.00
82.3174 3209.00
82.6217 3246.00
82.9259 3402.00
83.2302 3482.00
83.5344 3268.00
83.8387 3214.00
84.143 3354.00
84.4472 3372.00
84.7515 3309.00
85.0557 3428.00
85.36 3349.00
85.6643 3298.00
85.9685 3347.00
86.2728 3227.00
86.577 3257.00
86.8813 3186.00
87.1856 3202.00
87.4898 3294.00
87.7941 3264.00
88.0983 3241.00
88.4026 3316.00
88.7069 3442.00
89.0111 3318.00
89.3154 3181.00
89.6196 3236.00
89.9239 3254.00
90.2282 3178.00
90.5324 3365.00
90.8367 3369.00
91.1409 3224.00
91.4452 3250.00
91.7495 3285.00
92.0537 3292.00
92.358 3208.00
92.6622 3249.00
92.9665 3269.00
93.2708 3227.00
93.575 3335.00
93.8793 3477.00
94.1835 3388.00
94.4878 3258.00
94.7921 3330.00
95.0963 3371.00
95.4006 3361.00
95.7048 3247.00
96.0091 3371.00
96.3134 3261.00
96.6176 3162.00
96.9219 3203.00
97.2261 3160.00
97.5304 3306.00
97.8347 3234.00
98.1389 3246.00
98.4432 3333.00
98.7474 3271.00
99.0517 3382.00
99.356 3238.00
99.6602 3373.00
99.9645 3186.00
100.095 3185.00