Folder: alab-pipeline/data/xrd_creation/results (part 21)

File: Na_121.xy
9.903433 2658.00
10.2077 2554.00
10.512 2521.00
10.8162 2353.00
11.1205 2313.00
11.4247 2225.00
11.729 2121.00
12.0333 2037.00
12.3375 1961.00
12.6418 1925.00
12.946 1957.00
13.2503 1904.00
13.5546 1754.00
13.8588 1782.00
14.1631 1758.00
14.4673 1611.00
14.7716 1659.00
15.0759 1707.00
15.3801 1631.00
15.6844 1573.00
15.9886 1531.00
16.2929 1543.00
16.5972 1544.00
16.9014 1560.00
17.2057 1567.00
17.5099 1541.00
17.8142 1465.00
18.1185 1398.00
18.4227 1416.00
18.727 1416.00
19.0312 1450.00
19.3355 1641.00
19.6398 4381.00
19.944 2137.00
20.2483 1407.00
20.5525 1301.00
20.8568 1324.00
21.1611 1212.00
21.4653 1318.00
21.7696 1276.00
22.0738 1439.00
22.3781 1920.00
22.6824 8366.00
22.9866 2516.00
23.2909 1348.00
23.5951 1317.00
23.8994 1131.00
24.2037 1118.00
24.5079 1094.00
24.8122 1097.00
25.1164 1373.00
25.4207 2876.00
25.725 1296.00
26.0292 1015.00
26.3335 1023.00
26.6378 1048.00
26.942 2465.00
27.2463 1145.00
27.5505 1257.00
27.8548 2667.00
28.1591 1268.00
28.4633 1035.00
28.7676 1067.00
29.0718 968.00
29.3761 903.00
29.6804 883.00
29.9846 906.00
30.2889 889.00
30.5931 867.00
30.8974 857.00
31.2017 841.00
31.5059 948.00
31.8102 1122.00
32.1144 3157.00
32.4187 1761.00
32.723 891.00
33.0272 794.00
33.3315 751.00
33.6357 791.00
33.94 893.00
34.2443 2435.00
34.5485 974.00
34.8528 836.00
35.157 756.00
35.4613 700.00
35.7656 711.00
36.0698 750.00
36.3741 704.00
36.6783 705.00
36.9826 729.00
37.2869 883.00
37.5911 1531.00
37.8954 5182.00
38.1996 1496.00
38.5039 1019.00
38.8082 741.00
39.1124 741.00
39.4167 1203.00
39.7209 1450.00
40.0252 731.00
40.3295 620.00
40.6337 585.00
40.938 633.00
41.2422 776.00
41.5465 667.00
41.8508 596.00
42.155 591.00
42.4593 590.00
42.7635 621.00
43.0678 610.00
43.3721 640.00
43.6763 672.00
43.9806 672.00
44.2849 585.00
44.5891 564.00
44.8934 523.00
45.1976 596.00
45.5019 535.00
45.8062 643.00
46.1104 818.00
46.4147 588.00
46.7189 574.00
47.0232 536.00
47.3275 593.00
47.6317 689.00
47.936 558.00
48.2402 534.00
48.5445 551.00
48.8488 664.00
49.153 636.00
49.4573 601.00
49.7615 582.00
50.0658 840.00
50.3701 1900.00
50.6743 943.00
50.9786 666.00
51.2828 776.00
51.5871 1565.00
51.8914 1954.00
52.1956 2069.00
52.4999 735.00
52.8041 568.00
53.1084 585.00
53.4127 516.00
53.7169 469.00
54.0212 564.00
54.3254 564.00
54.6297 570.00
54.934 686.00
55.2382 885.00
55.5425 571.00
55.8467 560.00
56.151 530.00
56.4553 603.00
56.7595 884.00
57.0638 1753.00
57.368 908.00
57.6723 599.00
57.9766 540.00
58.2808 634.00
58.5851 504.00
58.8893 484.00
59.1936 491.00
59.4979 528.00
59.8021 462.00
60.1064 578.00
60.4106 751.00
60.7149 1859.00
61.0192 1727.00
61.3234 775.00
61.6277 671.00
61.932 601.00
62.2362 715.00
62.5405 615.00
62.8447 511.00
63.149 537.00
63.4533 522.00
63.7575 466.00
64.0618 483.00
64.366 535.00
64.6703 518.00
64.9745 611.00
65.2788 655.00
65.5831 465.00
65.8873 511.00
66.1916 529.00
66.4959 780.00
66.8001 921.00
67.1044 708.00
67.4086 533.00
67.7129 480.00
68.0172 580.00
68.3214 545.00
68.6257 498.00
68.9299 468.00
69.2342 474.00
69.5385 506.00
69.8427 513.00
70.147 780.00
70.4512 829.00
70.7555 584.00
71.0598 617.00
71.364 902.00
71.6683 872.00
71.9725 543.00
72.2768 498.00
72.5811 483.00
72.8853 430.00
73.1896 416.00
73.4938 475.00
73.7981 504.00
74.1024 455.00
74.4066 467.00
74.7109 471.00
75.0151 459.00
75.3194 452.00
75.6237 482.00
75.9279 603.00
76.2322 552.00
76.5364 404.00
76.8407 399.00
77.145 456.00
77.4492 415.00
77.7535 423.00
78.0577 391.00
78.362 396.00
78.6663 426.00
78.9705 599.00
79.2748 781.00
79.579 554.00
79.8833 495.00
80.1876 538.00
80.4918 597.00
80.7961 453.00
81.1003 408.00
81.4046 464.00
81.7089 473.00
82.0131 368.00
82.3174 408.00
82.6217 402.00
82.9259 339.00
83.2302 404.00
83.5344 380.00
83.8387 390.00
84.143 497.00
84.4472 438.00
84.7515 379.00
85.0557 388.00
85.36 379.00
85.6643 379.00
85.9685 421.00
86.2728 402.00
86.577 431.00
86.8813 441.00
87.1856 403.00
87.4898 492.00
87.7941 543.00
88.0983 592.00
88.4026 497.00
88.7069 549.00
89.0111 649.00
89.3154 508.00
89.6196 462.00
89.9239 462.00
90.2282 543.00
90.5324 468.00
90.8367 458.00
91.1409 580.00
91.4452 621.00
91.7495 514.00
92.0537 409.00
92.358 450.00
92.6622 429.00
92.9665 549.00
93.2708 658.00
93.575 590.00
93.8793 457.00
94.1835 386.00
94.4878 377.00
94.7921 388.00
95.0963 374.00
95.4006 409.00
95.7048 416.00
96.0091 483.00
96.3134 709.00
96.6176 714.00
96.9219 615.00
97.2261 483.00
97.5304 439.00
97.8347 439.00
98.1389 391.00
98.4432 421.00
98.7474 382.00
99.0517 344.00
99.356 359.00
99.6602 389.00
99.9645 434.00
100.095 403.00

File: Na_122.xy
9.903433 2746.00
10.2077 2562.00
10.512 2560.00
10.8162 2482.00
11.1205 2335.00
11.4247 2294.00
11.729 2252.00
12.0333 2170.00
12.3375 2090.00
12.6418 1955.00
12.946 2034.00
13.2503 1891.00
13.5546 1916.00
13.8588 1833.00
14.1631 1807.00
14.4673 1808.00
14.7716 1770.00
15.0759 1746.00
15.3801 1723.00
15.6844 1620.00
15.9886 1624.00
16.2929 1634.00
16.5972 1593.00
16.9014 1648.00
17.2057 1627.00
17.5099 1472.00
17.8142 1533.00
18.1185 1490.00
18.4227 1507.00
18.727 1492.00
19.0312 1599.00
19.3355 2259.00
19.6398 4865.00
19.944 1754.00
20.2483 1454.00
20.5525 1313.00
20.8568 1282.00
21.1611 1326.00
21.4653 1290.00
21.7696 1403.00
22.0738 1503.00
22.3781 2902.00
22.6824 8698.00
22.9866 1862.00
23.2909 1379.00
23.5951 1208.00
23.8994 1227.00
24.2037 1162.00
24.5079 1145.00
24.8122 1217.00
25.1164 1734.00
25.4207 2349.00
25.725 1138.00
26.0292 1148.00
26.3335 1032.00
26.6378 1140.00
26.942 3705.00
27.2463 1229.00
27.5505 1539.00
27.8548 2118.00
28.1591 1165.00
28.4633 1027.00
28.7676 1040.00
29.0718 906.00
29.3761 896.00
29.6804 958.00
29.9846 930.00
30.2889 854.00
30.5931 793.00
30.8974 895.00
31.2017 820.00
31.5059 997.00
31.8102 1325.00
32.1144 3556.00
32.4187 1246.00
32.723 879.00
33.0272 827.00
33.3315 805.00
33.6357 784.00
33.94 1008.00
34.2443 2815.00
34.5485 951.00
34.8528 795.00
35.157 761.00
35.4613 733.00
35.7656 701.00
36.0698 683.00
36.3741 655.00
36.6783 707.00
36.9826 787.00
37.2869 1000.00
37.5911 2193.00
37.8954 3816.00
38.1996 1402.00
38.5039 864.00
38.8082 731.00
39.1124 775.00
39.4167 1410.00
39.7209 1067.00
40.0252 693.00
40.3295 706.00
40.6337 647.00
40.938 628.00
41.2422 759.00
41.5465 614.00
41.8508 583.00
42.155 560.00
42.4593 558.00
42.7635 636.00
43.0678 615.00
43.3721 602.00
43.6763 688.00
43.9806 661.00
44.2849 584.00
44.5891 515.00
44.8934 521.00
45.1976 576.00
45.5019 552.00
45.8062 774.00
46.1104 699.00
46.4147 553.00
46.7189 557.00
47.0232 548.00
47.3275 632.00
47.6317 603.00
47.936 595.00
48.2402 563.00
48.5445 520.00
48.8488 614.00
49.153 556.00
49.4573 580.00
49.7615 654.00
50.0658 1085.00
50.3701 1501.00
50.6743 771.00
50.9786 628.00
51.2828 866.00
51.5871 2023.00
51.8914 1568.00
52.1956 1934.00
52.4999 625.00
52.8041 615.00
53.1084 593.00
53.4127 526.00
53.7169 533.00
54.0212 559.00
54.3254 581.00
54.6297 604.00
54.934 740.00
55.2382 917.00
55.5425 612.00
55.8467 539.00
56.151 574.00
56.4553 621.00
56.7595 1056.00
57.0638 1446.00
57.368 712.00
57.6723 530.00
57.9766 584.00
58.2808 581.00
58.5851 517.00
58.8893 469.00
59.1936 460.00
59.4979 516.00
59.8021 493.00
60.1064 577.00
60.4106 898.00
60.7149 1837.00
61.0192 1165.00
61.3234 682.00
61.6277 584.00
61.932 616.00
62.2362 863.00
62.5405 560.00
62.8447 511.00
63.149 558.00
63.4533 448.00
63.7575 485.00
64.0618 466.00
64.366 523.00
64.6703 518.00
64.9745 806.00
65.2788 620.00
65.5831 412.00
65.8873 473.00
66.1916 751.00
66.4959 905.00
66.8001 878.00
67.1044 594.00
67.4086 488.00
67.7129 504.00
68.0172 505.00
68.3214 540.00
68.6257 457.00
68.9299 453.00
69.2342 481.00
69.5385 481.00
69.8427 584.00
70.147 811.00
70.4512 767.00
70.7555 564.00
71.0598 569.00
71.364 811.00
71.6683 760.00
71.9725 531.00
72.2768 461.00
72.5811 450.00
72.8853 437.00
73.1896 446.00
73.4938 453.00
73.7981 520.00
74.1024 468.00
74.4066 388.00
74.7109 408.00
75.0151 415.00
75.3194 386.00
75.6237 516.00
75.9279 611.00
76.2322 469.00
76.5364 395.00
76.8407 417.00
77.145 438.00
77.4492 432.00
77.7535 398.00
78.0577 390.00
78.362 380.00
78.6663 421.00
78.9705 780.00
79.2748 735.00
79.579 513.00
79.8833 503.00
80.1876 520.00
80.4918 552.00
80.7961 403.00
81.1003 415.00
81.4046 482.00
81.7089 380.00
82.0131 392.00
82.3174 354.00
82.6217 371.00
82.9259 387.00
83.2302 396.00
83.5344 415.00
83.8387 439.00
84.143 493.00
84.4472 383.00
84.7515 397.00
85.0557 363.00
85.36 341.00
85.6643 413.00
85.9685 377.00
86.2728 401.00
86.577 365.00
86.8813 402.00
87.1856 425.00
87.4898 510.00
87.7941 582.00
88.0983 499.00
88.4026 470.00
88.7069 550.00
89.0111 609.00
89.3154 495.00
89.6196 424.00
89.9239 517.00
90.2282 559.00
90.5324 382.00
90.8367 488.00
91.1409 622.00
91.4452 584.00
91.7495 461.00
92.0537 425.00
92.358 425.00
92.6622 469.00
92.9665 537.00
93.2708 559.00
93.575 570.00
93.8793 503.00
94.1835 406.00
94.4878 406.00
94.7921 417.00
95.0963 387.00
95.4006 402.00
95.7048 408.00
96.0091 527.00
96.3134 684.00
96.6176 639.00
96.9219 529.00
97.2261 431.00
97.5304 449.00
97.8347 409.00
98.1389 400.00
98.4432 392.00
98.7474 398.00
99.0517 389.00
99.356 372.00
99.6602 393.00
99.9645 442.00
100.095 420.00

File: Na_123.xy
9.903433 2611.00
10.2077 2512.00
10.512 2405.00
10.8162 2412.00
11.1205 2316.00
11.4247 2208.00
11.729 2147.00
12.0333 2099.00
12.3375 1914.00
12.6418 1843.00
12.946 1873.00
13.2503 1696.00
13.5546 1688.00
13.8588 1581.00
14.1631 1690.00
14.4673 1700.00
14.7716 1716.00
15.0759 1561.00
15.3801 1549.00
15.6844 1448.00
15.9886 1517.00
16.2929 1504.00
16.5972 1355.00
16.9014 1440.00
17.2057 1393.00
17.5099 1481.00
17.8142 1458.00
18.1185 1397.00
18.4227 1311.00
18.727 1358.00
19.0312 1286.00
19.3355 1284.00
19.6398 1485.00
19.944 1415.00
20.2483 1260.00
20.5525 1175.00
20.8568 1276.00
21.1611 1225.00
21.4653 1450.00
21.7696 1227.00
22.0738 1175.00
22.3781 1326.00
22.6824 1636.00
22.9866 1198.00
23.2909 1060.00
23.5951 1056.00
23.8994 1029.00
24.2037 1046.00
24.5079 1210.00
24.8122 1034.00
25.1164 1027.00
25.4207 1057.00
25.725 909.00
26.0292 951.00
26.3335 998.00
26.6378 1472.00
26.942 5218.00
27.2463 1097.00
27.5505 907.00
27.8548 928.00
28.1591 904.00
28.4633 761.00
28.7676 791.00
29.0718 821.00
29.3761 948.00
29.6804 788.00
29.9846 772.00
30.2889 789.00
30.5931 741.00
30.8974 780.00
31.2017 774.00
31.5059 815.00
31.8102 1259.00
32.1144 1060.00
32.4187 749.00
32.723 713.00
33.0272 668.00
33.3315 775.00
33.6357 819.00
33.94 1270.00
34.2443 4611.00
34.5485 939.00
34.8528 689.00
35.157 588.00
35.4613 613.00
35.7656 642.00
36.0698 608.00
36.3741 628.00
36.6783 690.00
36.9826 594.00
37.2869 710.00
37.5911 987.00
37.8954 869.00
38.1996 1436.00
38.5039 902.00
38.8082 612.00
39.1124 591.00
39.4167 782.00
39.7209 611.00
40.0252 572.00
40.3295 553.00
40.6337 485.00
40.938 490.00
41.2422 551.00
41.5465 519.00
41.8508 490.00
42.155 499.00
42.4593 479.00
42.7635 455.00
43.0678 539.00
43.3721 490.00
43.6763 547.00
43.9806 530.00
44.2849 498.00
44.5891 596.00
44.8934 522.00
45.1976 499.00
45.5019 506.00
45.8062 505.00
46.1104 586.00
46.4147 499.00
46.7189 506.00
47.0232 510.00
47.3275 450.00
47.6317 466.00
47.936 443.00
48.2402 442.00
48.5445 442.00
48.8488 459.00
49.153 454.00
49.4573 443.00
49.7615 548.00
50.0658 647.00
50.3701 569.00
50.6743 510.00
50.9786 491.00
51.2828 495.00
51.5871 714.00
51.8914 1472.00
52.1956 3470.00
52.4999 768.00
52.8041 533.00
53.1084 470.00
53.4127 451.00
53.7169 399.00
54.0212 462.00
54.3254 453.00
54.6297 458.00
54.934 849.00
55.2382 1008.00
55.5425 518.00
55.8467 450.00
56.151 479.00
56.4553 437.00
56.7595 469.00
57.0638 512.00
57.368 443.00
57.6723 455.00
57.9766 638.00
58.2808 758.00
58.5851 510.00
58.8893 512.00
59.1936 442.00
59.4979 418.00
59.8021 411.00
60.1064 410.00
60.4106 443.00
60.7149 565.00
61.0192 475.00
61.3234 495.00
61.6277 482.00
61.932 681.00
62.2362 1099.00
62.5405 605.00
62.8447 446.00
63.149 412.00
63.4533 404.00
63.7575 469.00
64.0618 481.00
64.366 454.00
64.6703 549.00
64.9745 1206.00
65.2788 751.00
65.5831 485.00
65.8873 568.00
66.1916 1206.00
66.4959 987.00
66.8001 491.00
67.1044 414.00
67.4086 455.00
67.7129 432.00
68.0172 391.00
68.3214 380.00
68.6257 356.00
68.9299 348.00
69.2342 375.00
69.5385 360.00
69.8427 402.00
70.147 357.00
70.4512 390.00
70.7555 363.00
71.0598 449.00
71.364 551.00
71.6683 728.00
71.9725 421.00
72.2768 378.00
72.5811 341.00
72.8853 332.00
73.1896 339.00
73.4938 323.00
73.7981 322.00
74.1024 362.00
74.4066 359.00
74.7109 418.00
75.0151 361.00
75.3194 355.00
75.6237 323.00
75.9279 325.00
76.2322 355.00
76.5364 319.00
76.8407 331.00
77.145 311.00
77.4492 309.00
77.7535 365.00
78.0577 327.00
78.362 386.00
78.6663 441.00
78.9705 936.00
79.2748 693.00
79.579 371.00
79.8833 395.00
80.1876 350.00
80.4918 344.00
80.7961 314.00
81.1003 402.00
81.4046 496.00
81.7089 467.00
82.0131 404.00
82.3174 352.00
82.6217 372.00
82.9259 370.00
83.2302 354.00
83.5344 370.00
83.8387 601.00
84.143 684.00
84.4472 457.00
84.7515 347.00
85.0557 351.00
85.36 320.00
85.6643 313.00
85.9685 343.00
86.2728 330.00
86.577 376.00
86.8813 315.00
87.1856 348.00
87.4898 528.00
87.7941 481.00
88.0983 401.00
88.4026 360.00
88.7069 416.00
89.0111 397.00
89.3154 399.00
89.6196 431.00
89.9239 729.00
90.2282 731.00
90.5324 489.00
90.8367 476.00
91.1409 849.00
91.4452 729.00
91.7495 449.00
92.0537 358.00
92.358 350.00
92.6622 351.00
92.9665 372.00
93.2708 449.00
93.575 605.00
93.8793 494.00
94.1835 385.00
94.4878 375.00
94.7921 372.00
95.0963 356.00
95.4006 353.00
95.7048 351.00
96.0091 468.00
96.3134 603.00
96.6176 512.00
96.9219 387.00
97.2261 377.00
97.5304 339.00
97.8347 318.00
98.1389 334.00
98.4432 385.00
98.7474 339.00
99.0517 333.00
99.356 306.00
99.6602 307.00
99.9645 350.00
100.095 317.00

File: Na_124.xy
9.903433 2697.00
10.2077 2643.00
10.512 2539.00
10.8162 2287.00
11.1205 2284.00
11.4247 2270.00
11.729 2063.00
12.0333 2048.00
12.3375 2035.00
12.6418 1863.00
12.946 1921.00
13.2503 1871.00
13.5546 1809.00
13.8588 1798.00
14.1631 1766.00
14.4673 1814.00
14.7716 1717.00
15.0759 1640.00
15.3801 1708.00
15.6844 1523.00
15.9886 1607.00
16.2929 1599.00
16.5972 1443.00
16.9014 1438.00
17.2057 1481.00
17.5099 1476.00
17.8142 1424.00
18.1185 1419.00
18.4227 1405.00
18.727 1449.00
19.0312 1372.00
19.3355 1471.00
19.6398 1608.00
19.944 1679.00
20.2483 1348.00
20.5525 1239.00
20.8568 1248.00
21.1611 1248.00
21.4653 1805.00
21.7696 1361.00
22.0738 1250.00
22.3781 1505.00
22.6824 1828.00
22.9866 1232.00
23.2909 1168.00
23.5951 1086.00
23.8994 1109.00
24.2037 1062.00
24.5079 1537.00
24.8122 1082.00
25.1164 1119.00
25.4207 1100.00
25.725 977.00
26.0292 1010.00
26.3335 1004.00
26.6378 1582.00
26.942 6525.00
27.2463 1259.00
27.5505 999.00
27.8548 993.00
28.1591 934.00
28.4633 865.00
28.7676 886.00
29.0718 838.00
29.3761 1250.00
29.6804 917.00
29.9846 823.00
30.2889 841.00
30.5931 805.00
30.8974 776.00
31.2017 796.00
31.5059 858.00
31.8102 1635.00
32.1144 1165.00
32.4187 815.00
32.723 793.00
33.0272 764.00
33.3315 839.00
33.6357 861.00
33.94 1423.00
34.2443 5128.00
34.5485 954.00
34.8528 714.00
35.157 651.00
35.4613 702.00
35.7656 646.00
36.0698 616.00
36.3741 697.00
36.6783 815.00
36.9826 689.00
37.2869 787.00
37.5911 1116.00
37.8954 1059.00
38.1996 1727.00
38.5039 870.00
38.8082 688.00
39.1124 685.00
39.4167 809.00
39.7209 589.00
40.0252 559.00
40.3295 572.00
40.6337 550.00
40.938 556.00
41.2422 552.00
41.5465 574.00
41.8508 509.00
42.155 501.00
42.4593 512.00
42.7635 527.00
43.0678 593.00
43.3721 522.00
43.6763 665.00
43.9806 498.00
44.2849 549.00
44.5891 619.00
44.8934 505.00
45.1976 478.00
45.5019 506.00
45.8062 562.00
46.1104 564.00
46.4147 498.00
46.7189 539.00
47.0232 524.00
47.3275 515.00
47.6317 484.00
47.936 467.00
48.2402 557.00
48.5445 497.00
48.8488 459.00
49.153 450.00
49.4573 481.00
49.7615 665.00
50.0658 752.00
50.3701 566.00
50.6743 536.00
50.9786 516.00
51.2828 545.00
51.5871 786.00
51.8914 1911.00
52.1956 3774.00
52.4999 771.00
52.8041 539.00
53.1084 459.00
53.4127 476.00
53.7169 480.00
54.0212 435.00
54.3254 448.00
54.6297 485.00
54.934 1011.00
55.2382 990.00
55.5425 473.00
55.8467 521.00
56.151 510.00
56.4553 465.00
56.7595 505.00
57.0638 570.00
57.368 486.00
57.6723 512.00
57.9766 742.00
58.2808 762.00
58.5851 540.00
58.8893 524.00
59.1936 424.00
59.4979 402.00
59.8021 442.00
60.1064 475.00
60.4106 583.00
60.7149 574.00
61.0192 490.00
61.3234 517.00
61.6277 524.00
61.932 696.00
62.2362 1178.00
62.5405 553.00
62.8447 432.00
63.149 414.00
63.4533 483.00
63.7575 511.00
64.0618 553.00
64.366 426.00
64.6703 536.00
64.9745 1330.00
65.2788 711.00
65.5831 482.00
65.8873 573.00
66.1916 1455.00
66.4959 986.00
66.8001 516.00
67.1044 447.00
67.4086 436.00
67.7129 422.00
68.0172 400.00
68.3214 393.00
68.6257 378.00
68.9299 361.00
69.2342 372.00
69.5385 449.00
69.8427 402.00
70.147 435.00
70.4512 388.00
70.7555 418.00
71.0598 418.00
71.364 590.00
71.6683 745.00
71.9725 406.00
72.2768 362.00
72.5811 353.00
72.8853 388.00
73.1896 382.00
73.4938 378.00
73.7981 360.00
74.1024 375.00
74.4066 411.00
74.7109 394.00
75.0151 401.00
75.3194 342.00
75.6237 355.00
75.9279 382.00
76.2322 366.00
76.5364 338.00
76.8407 374.00
77.145 305.00
77.4492 326.00
77.7535 349.00
78.0577 373.00
78.362 412.00
78.6663 490.00
78.9705 1081.00
79.2748 725.00
79.579 475.00
79.8833 388.00
80.1876 352.00
80.4918 348.00
80.7961 332.00
81.1003 393.00
81.4046 540.00
81.7089 439.00
82.0131 407.00
82.3174 355.00
82.6217 370.00
82.9259 362.00
83.2302 389.00
83.5344 404.00
83.8387 680.00
84.143 733.00
84.4472 485.00
84.7515 373.00
85.0557 412.00
85.36 395.00
85.6643 348.00
85.9685 348.00
86.2728 352.00
86.577 324.00
86.8813 381.00
87.1856 351.00
87.4898 565.00
87.7941 503.00
88.0983 398.00
88.4026 410.00
88.7069 420.00
89.0111 424.00
89.3154 405.00
89.6196 435.00
89.9239 781.00
90.2282 763.00
90.5324 496.00
90.8367 531.00
91.1409 854.00
91.4452 710.00
91.7495 426.00
92.0537 380.00
92.358 392.00
92.6622 374.00
92.9665 404.00
93.2708 416.00
93.575 586.00
93.8793 555.00
94.1835 428.00
94.4878 370.00
94.7921 364.00
95.0963 351.00
95.4006 331.00
95.7048 356.00
96.0091 492.00
96.3134 574.00
96.6176 482.00
96.9219 382.00
97.2261 351.00
97.5304 379.00
97.8347 352.00
98.1389 372.00
98.4432 373.00
98.7474 341.00
99.0517 332.00
99.356 364.00
99.6602 389.00
99.9645 348.00
100.095 367.00

File: Na_125.xy
9.903433 2825.00
10.2077 2614.00
10.512 2637.00
10.8162 2513.00
11.1205 2515.00
11.4247 2413.00
11.729 2226.00
12.0333 2152.00
12.3375 2139.00
12.6418 2069.00
12.946 2024.00
13.2503 1963.00
13.5546 1839.00
13.8588 1821.00
14.1631 1858.00
14.4673 1837.00
14.7716 1746.00
15.0759 1695.00
15.3801 1757.00
15.6844 1736.00
15.9886 1674.00
16.2929 1670.00
16.5972 1669.00
16.9014 1671.00
17.2057 1564.00
17.5099 1560.00
17.8142 1666.00
18.1185 1568.00
18.4227 1530.00
18.727 1534.00
19.0312 1538.00
19.3355 2075.00
19.6398 4332.00
19.944 1850.00
20.2483 1461.00
20.5525 1461.00
20.8568 1389.00
21.1611 1298.00
21.4653 1319.00
21.7696 1425.00
22.0738 1566.00
22.3781 2583.00
22.6824 7879.00
22.9866 2062.00
23.2909 1424.00
23.5951 1313.00
23.8994 1272.00
24.2037 1230.00
24.5079 1182.00
24.8122 1249.00
25.1164 1655.00
25.4207 2327.00
25.725 1264.00
26.0292 1078.00
26.3335 1090.00
26.6378 1191.00
26.942 3588.00
27.2463 1232.00
27.5505 1596.00
27.8548 1957.00
28.1591 1171.00
28.4633 1020.00
28.7676 1035.00
29.0718 912.00
29.3761 921.00
29.6804 936.00
29.9846 986.00
30.2889 929.00
30.5931 866.00
30.8974 818.00
31.2017 863.00
31.5059 966.00
31.8102 1249.00
32.1144 2941.00
32.4187 1275.00
32.723 900.00
33.0272 841.00
33.3315 821.00
33.6357 855.00
33.94 1078.00
34.2443 2750.00
34.5485 888.00
34.8528 829.00
35.157 745.00
35.4613 735.00
35.7656 694.00
36.0698 768.00
36.3741 688.00
36.6783 768.00
36.9826 783.00
37.2869 953.00
37.5911 1898.00
37.8954 3316.00
38.1996 1546.00
38.5039 895.00
38.8082 734.00
39.1124 731.00
39.4167 1289.00
39.7209 1035.00
40.0252 737.00
40.3295 650.00
40.6337 641.00
40.938 624.00
41.2422 719.00
41.5465 642.00
41.8508 654.00
42.155 619.00
42.4593 576.00
42.7635 658.00
43.0678 601.00
43.3721 601.00
43.6763 700.00
43.9806 601.00
44.2849 527.00
44.5891 505.00
44.8934 540.00
45.1976 548.00
45.5019 613.00
45.8062 741.00
46.1104 673.00
46.4147 568.00
46.7189 546.00
47.0232 547.00
47.3275 620.00
47.6317 595.00
47.936 535.00
48.2402 551.00
48.5445 514.00
48.8488 613.00
49.153 583.00
49.4573 620.00
49.7615 573.00
50.0658 941.00
50.3701 1387.00
50.6743 745.00
50.9786 692.00
51.2828 820.00
51.5871 1694.00
51.8914 1522.00
52.1956 1794.00
52.4999 639.00
52.8041 537.00
53.1084 658.00
53.4127 512.00
53.7169 550.00
54.0212 561.00
54.3254 569.00
54.6297 614.00
54.934 770.00
55.2382 789.00
55.5425 570.00
55.8467 590.00
56.151 538.00
56.4553 626.00
56.7595 919.00
57.0638 1249.00
57.368 647.00
57.6723 511.00
57.9766 543.00
58.2808 602.00
58.5851 496.00
58.8893 470.00
59.1936 429.00
59.4979 515.00
59.8021 509.00
60.1064 620.00
60.4106 788.00
60.7149 1650.00
61.0192 1190.00
61.3234 621.00
61.6277 593.00
61.932 619.00
62.2362 802.00
62.5405 502.00
62.8447 529.00
63.149 537.00
63.4533 471.00
63.7575 475.00
64.0618 495.00
64.366 457.00
64.6703 457.00
64.9745 844.00
65.2788 519.00
65.5831 472.00
65.8873 470.00
66.1916 881.00
66.4959 728.00
66.8001 786.00
67.1044 563.00
67.4086 517.00
67.7129 508.00
68.0172 510.00
68.3214 503.00
68.6257 485.00
68.9299 465.00
69.2342 449.00
69.5385 484.00
69.8427 550.00
70.147 687.00
70.4512 683.00
70.7555 527.00
71.0598 595.00
71.364 786.00
71.6683 725.00
71.9725 481.00
72.2768 442.00
72.5811 436.00
72.8853 403.00
73.1896 398.00
73.4938 452.00
73.7981 464.00
74.1024 426.00
74.4066 416.00
74.7109 412.00
75.0151 407.00
75.3194 424.00
75.6237 446.00
75.9279 518.00
76.2322 471.00
76.5364 374.00
76.8407 432.00
77.145 443.00
77.4492 427.00
77.7535 430.00
78.0577 374.00
78.362 385.00
78.6663 434.00
78.9705 839.00
79.2748 609.00
79.579 483.00
79.8833 435.00
80.1876 483.00
80.4918 504.00
80.7961 440.00
81.1003 416.00
81.4046 470.00
81.7089 396.00
82.0131 358.00
82.3174 364.00
82.6217 377.00
82.9259 377.00
83.2302 377.00
83.5344 398.00
83.8387 470.00
84.143 442.00
84.4472 388.00
84.7515 381.00
85.0557 350.00
85.36 350.00
85.6643 397.00
85.9685 375.00
86.2728 389.00
86.577 387.00
86.8813 344.00
87.1856 390.00
87.4898 546.00
87.7941 505.00
88.0983 498.00
88.4026 513.00
88.7069 493.00
89.0111 556.00
89.3154 504.00
89.6196 382.00
89.9239 555.00
90.2282 514.00
90.5324 395.00
90.8367 440.00
91.1409 720.00
91.4452 521.00
91.7495 423.00
92.0537 396.00
92.358 387.00
92.6622 431.00
92.9665 474.00
93.2708 495.00
93.575 579.00
93.8793 454.00
94.1835 374.00
94.4878 377.00
94.7921 420.00
95.0963 377.00
95.4006 386.00
95.7048 438.00
96.0091 469.00
96.3134 639.00
96.6176 630.00
96.9219 532.00
97.2261 431.00
97.5304 434.00
97.8347 401.00
98.1389 372.00
98.4432 371.00
98.7474 386.00
99.0517 345.00
99.356 356.00
99.6602 345.00
99.9645 389.00
100.095 392.00