Folder: alab-pipeline/data/xrd_creation/results (part 99)

File: PG_2151-1.xy
9.903433 2526.00
10.2077 2391.00
10.512 2275.00
10.8162 2182.00
11.1205 2218.00
11.4247 1999.00
11.729 2044.00
12.0333 1926.00
12.3375 1843.00
12.6418 1876.00
12.946 1852.00
13.2503 1726.00
13.5546 1635.00
13.8588 1681.00
14.1631 1624.00
14.4673 1496.00
14.7716 1590.00
15.0759 1652.00
15.3801 1743.00
15.6844 2750.00
15.9886 9998.00
16.2929 2586.00
16.5972 1645.00
16.9014 1523.00
17.2057 1460.00
17.5099 1354.00
17.8142 1392.00
18.1185 1284.00
18.4227 1252.00
18.727 1247.00
19.0312 1186.00
19.3355 1198.00
19.6398 1196.00
19.944 1092.00
20.2483 1154.00
20.5525 1114.00
20.8568 1130.00
21.1611 1038.00
21.4653 1057.00
21.7696 1094.00
22.0738 1003.00
22.3781 1005.00
22.6824 965.00
22.9866 968.00
23.2909 912.00
23.5951 952.00
23.8994 897.00
24.2037 883.00
24.5079 877.00
24.8122 924.00
25.1164 864.00
25.4207 896.00
25.725 858.00
26.0292 875.00
26.3335 887.00
26.6378 885.00
26.942 1017.00
27.2463 1428.00
27.5505 5928.00
27.8548 3554.00
28.1591 4210.00
28.4633 7349.00
28.7676 1396.00
29.0718 929.00
29.3761 842.00
29.6804 806.00
29.9846 791.00
30.2889 711.00
30.5931 786.00
30.8974 793.00
31.2017 778.00
31.5059 874.00
31.8102 1613.00
32.1144 5105.00
32.4187 852.00
32.723 665.00
33.0272 723.00
33.3315 636.00
33.6357 655.00
33.94 644.00
34.2443 620.00
34.5485 711.00
34.8528 2790.00
35.157 650.00
35.4613 623.00
35.7656 666.00
36.0698 753.00
36.3741 1534.00
36.6783 6118.00
36.9826 724.00
37.2869 610.00
37.5911 548.00
37.8954 625.00
38.1996 542.00
38.5039 573.00
38.8082 596.00
39.1124 686.00
39.4167 1147.00
39.7209 4848.00
40.0252 3732.00
40.3295 978.00
40.6337 633.00
40.938 545.00
41.2422 600.00
41.5465 493.00
41.8508 545.00
42.155 604.00
42.4593 1213.00
42.7635 1229.00
43.0678 566.00
43.3721 495.00
43.6763 492.00
43.9806 440.00
44.2849 432.00
44.5891 459.00
44.8934 464.00
45.1976 475.00
45.5019 420.00
45.8062 454.00
46.1104 435.00
46.4147 462.00
46.7189 489.00
47.0232 506.00
47.3275 1106.00
47.6317 1169.00
47.936 2029.00
48.2402 1098.00
48.5445 3167.00
48.8488 4180.00
49.153 4228.00
49.4573 1145.00
49.7615 702.00
50.0658 736.00
50.3701 1099.00
50.6743 562.00
50.9786 469.00
51.2828 411.00
51.5871 427.00
51.8914 393.00
52.1956 384.00
52.4999 398.00
52.8041 413.00
53.1084 364.00
53.4127 415.00
53.7169 344.00
54.0212 395.00
54.3254 408.00
54.6297 394.00
54.934 454.00
55.2382 571.00
55.5425 1573.00
55.8467 1165.00
56.151 606.00
56.4553 881.00
56.7595 1120.00
57.0638 1776.00
57.368 438.00
57.6723 449.00
57.9766 546.00
58.2808 689.00
58.5851 452.00
58.8893 510.00
59.1936 714.00
59.4979 508.00
59.8021 372.00
60.1064 344.00
60.4106 366.00
60.7149 378.00
61.0192 359.00
61.3234 327.00
61.6277 344.00
61.932 346.00
62.2362 349.00
62.5405 378.00
62.8447 363.00
63.149 1783.00
63.4533 605.00
63.7575 464.00
64.0618 752.00
64.366 1532.00
64.6703 798.00
64.9745 514.00
65.2788 640.00
65.5831 667.00
65.8873 483.00
66.1916 516.00
66.4959 503.00
66.8001 490.00
67.1044 397.00
67.4086 370.00
67.7129 367.00
68.0172 398.00
68.3214 1407.00
68.6257 450.00
68.9299 405.00
69.2342 407.00
69.5385 740.00
69.8427 927.00
70.147 1085.00
70.4512 572.00
70.7555 429.00
71.0598 511.00
71.364 571.00
71.6683 406.00
71.9725 326.00
72.2768 344.00
72.5811 362.00
72.8853 592.00
73.1896 473.00
73.4938 375.00
73.7981 337.00
74.1024 304.00
74.4066 323.00
74.7109 318.00
75.0151 341.00
75.3194 383.00
75.6237 406.00
75.9279 536.00
76.2322 762.00
76.5364 818.00
76.8407 810.00
77.145 763.00
77.4492 1222.00
77.7535 1473.00
78.0577 1122.00
78.362 677.00
78.6663 585.00
78.9705 530.00
79.2748 368.00
79.579 351.00
79.8833 284.00
80.1876 308.00
80.4918 339.00
80.7961 292.00
81.1003 265.00
81.4046 322.00
81.7089 403.00
82.0131 351.00
82.3174 388.00
82.6217 586.00
82.9259 487.00
83.2302 339.00
83.5344 308.00
83.8387 298.00
84.143 301.00
84.4472 290.00
84.7515 313.00
85.0557 369.00
85.36 447.00
85.6643 365.00
85.9685 365.00
86.2728 332.00
86.577 321.00
86.8813 287.00
87.1856 291.00
87.4898 321.00
87.7941 299.00
88.0983 311.00
88.4026 351.00
88.7069 523.00
89.0111 743.00
89.3154 605.00
89.6196 431.00
89.9239 891.00
90.2282 674.00
90.5324 589.00
90.8367 530.00
91.1409 444.00
91.4452 435.00
91.7495 428.00
92.0537 379.00
92.358 344.00
92.6622 321.00
92.9665 395.00
93.2708 342.00
93.575 290.00
93.8793 301.00
94.1835 302.00
94.4878 315.00
94.7921 316.00
95.0963 374.00
95.4006 500.00
95.7048 782.00
96.0091 780.00
96.3134 562.00
96.6176 513.00
96.9219 709.00
97.2261 561.00
97.5304 488.00
97.8347 374.00
98.1389 329.00
98.4432 338.00
98.7474 388.00
99.0517 352.00
99.356 369.00
99.6602 303.00
99.9645 312.00
100.095 351.00

File: PG_2152-1.xy
9.903433 2640.00
10.2077 2506.00
10.512 2485.00
10.8162 2398.00
11.1205 2343.00
11.4247 2215.00
11.729 2148.00
12.0333 2055.00
12.3375 2008.00
12.6418 1982.00
12.946 2005.00
13.2503 1949.00
13.5546 1836.00
13.8588 1867.00
14.1631 1841.00
14.4673 1916.00
14.7716 1806.00
15.0759 1841.00
15.3801 2007.00
15.6844 3005.00
15.9886 8079.00
16.2929 2223.00
16.5972 1738.00
16.9014 1704.00
17.2057 1688.00
17.5099 1667.00
17.8142 1738.00
18.1185 1551.00
18.4227 1590.00
18.727 1456.00
19.0312 1480.00
19.3355 1471.00
19.6398 1449.00
19.944 1450.00
20.2483 1359.00
20.5525 1363.00
20.8568 1350.00
21.1611 1350.00
21.4653 1394.00
21.7696 1318.00
22.0738 1324.00
22.3781 1408.00
22.6824 1294.00
22.9866 1294.00
23.2909 1304.00
23.5951 1348.00
23.8994 1263.00
24.2037 1563.00
24.5079 1572.00
24.8122 1775.00
25.1164 1293.00
25.4207 1221.00
25.725 1284.00
26.0292 1167.00
26.3335 1201.00
26.6378 1306.00
26.942 1359.00
27.2463 1847.00
27.5505 6526.00
27.8548 2803.00
28.1591 5877.00
28.4633 8441.00
28.7676 2193.00
29.0718 1445.00
29.3761 1331.00
29.6804 1223.00
29.9846 1234.00
30.2889 1137.00
30.5931 1184.00
30.8974 1143.00
31.2017 1214.00
31.5059 1666.00
31.8102 5640.00
32.1144 1854.00
32.4187 1191.00
32.723 1060.00
33.0272 1052.00
33.3315 1143.00
33.6357 991.00
33.94 1053.00
34.2443 1251.00
34.5485 1991.00
34.8528 1331.00
35.157 1030.00
35.4613 1265.00
35.7656 1330.00
36.0698 1114.00
36.3741 1445.00
36.6783 975.00
36.9826 968.00
37.2869 967.00
37.5911 902.00
37.8954 838.00
38.1996 909.00
38.5039 1018.00
38.8082 1188.00
39.1124 1100.00
39.4167 1635.00
39.7209 5857.00
40.0252 2498.00
40.3295 1209.00
40.6337 1079.00
40.938 1238.00
41.2422 1148.00
41.5465 1263.00
41.8508 1108.00
42.155 998.00
42.4593 1786.00
42.7635 1262.00
43.0678 952.00
43.3721 921.00
43.6763 913.00
43.9806 854.00
44.2849 840.00
44.5891 885.00
44.8934 860.00
45.1976 1233.00
45.5019 915.00
45.8062 1148.00
46.1104 890.00
46.4147 890.00
46.7189 862.00
47.0232 939.00
47.3275 1640.00
47.6317 1205.00
47.936 1041.00
48.2402 1547.00
48.5445 3148.00
48.8488 4538.00
49.153 3272.00
49.4573 1745.00
49.7615 1440.00
50.0658 1428.00
50.3701 2414.00
50.6743 1315.00
50.9786 1430.00
51.2828 960.00
51.5871 1067.00
51.8914 865.00
52.1956 822.00
52.4999 871.00
52.8041 816.00
53.1084 832.00
53.4127 845.00
53.7169 811.00
54.0212 839.00
54.3254 1278.00
54.6297 1111.00
54.934 950.00
55.2382 1141.00
55.5425 2315.00
55.8467 1899.00
56.151 1390.00
56.4553 1350.00
56.7595 1286.00
57.0638 890.00
57.368 977.00
57.6723 1013.00
57.9766 1097.00
58.2808 1243.00
58.5851 1079.00
58.8893 940.00
59.1936 1083.00
59.4979 867.00
59.8021 888.00
60.1064 1225.00
60.4106 1108.00
60.7149 755.00
61.0192 818.00
61.3234 825.00
61.6277 1053.00
61.932 880.00
62.2362 1085.00
62.5405 865.00
62.8447 833.00
63.149 1288.00
63.4533 841.00
63.7575 884.00
64.0618 1183.00
64.366 1650.00
64.6703 1188.00
64.9745 953.00
65.2788 1203.00
65.5831 1135.00
65.8873 1096.00
66.1916 1097.00
66.4959 903.00
66.8001 788.00
67.1044 734.00
67.4086 674.00
67.7129 714.00
68.0172 777.00
68.3214 762.00
68.6257 771.00
68.9299 768.00
69.2342 891.00
69.5385 868.00
69.8427 1316.00
70.147 1295.00
70.4512 938.00
70.7555 916.00
71.0598 960.00
71.364 1109.00
71.6683 898.00
71.9725 782.00
72.2768 829.00
72.5811 806.00
72.8853 802.00
73.1896 874.00
73.4938 774.00
73.7981 833.00
74.1024 705.00
74.4066 705.00
74.7109 746.00
75.0151 888.00
75.3194 963.00
75.6237 860.00
75.9279 983.00
76.2322 1139.00
76.5364 1208.00
76.8407 1076.00
77.145 1111.00
77.4492 1437.00
77.7535 1738.00
78.0577 1354.00
78.362 1032.00
78.6663 1002.00
78.9705 1018.00
79.2748 875.00
79.579 805.00
79.8833 775.00
80.1876 720.00
80.4918 692.00
80.7961 757.00
81.1003 734.00
81.4046 711.00
81.7089 764.00
82.0131 849.00
82.3174 899.00
82.6217 1014.00
82.9259 954.00
83.2302 809.00
83.5344 794.00
83.8387 754.00
84.143 846.00
84.4472 763.00
84.7515 794.00
85.0557 843.00
85.36 815.00
85.6643 773.00
85.9685 757.00
86.2728 825.00
86.577 791.00
86.8813 741.00
87.1856 719.00
87.4898 747.00
87.7941 851.00
88.0983 793.00
88.4026 900.00
88.7069 1069.00
89.0111 1184.00
89.3154 1011.00
89.6196 906.00
89.9239 912.00
90.2282 928.00
90.5324 1050.00
90.8367 974.00
91.1409 883.00
91.4452 907.00
91.7495 836.00
92.0537 735.00
92.358 731.00
92.6622 778.00
92.9665 729.00
93.2708 778.00
93.575 778.00
93.8793 765.00
94.1835 755.00
94.4878 735.00
94.7921 750.00
95.0963 854.00
95.4006 965.00
95.7048 1107.00
96.0091 1069.00
96.3134 1058.00
96.6176 1036.00
96.9219 1091.00
97.2261 1107.00
97.5304 956.00
97.8347 736.00
98.1389 811.00
98.4432 798.00
98.7474 778.00
99.0517 847.00
99.356 835.00
99.6602 911.00
99.9645 837.00
100.095 795.00

File: PG_2234-1.xy
9.903433 3125.00
10.2077 3189.00
10.512 3006.00
10.8162 2989.00
11.1205 2970.00
11.4247 2850.00
11.729 2806.00
12.0333 2798.00
12.3375 2752.00
12.6418 2621.00
12.946 2634.00
13.2503 2750.00
13.5546 2542.00
13.8588 2663.00
14.1631 2774.00
14.4673 2731.00
14.7716 2516.00
15.0759 2616.00
15.3801 2579.00
15.6844 2691.00
15.9886 2526.00
16.2929 2565.00
16.5972 2590.00
16.9014 3085.00
17.2057 5463.00
17.5099 2680.00
17.8142 2421.00
18.1185 2249.00
18.4227 2233.00
18.727 2342.00
19.0312 2259.00
19.3355 2157.00
19.6398 2130.00
19.944 2185.00
20.2483 2211.00
20.5525 2093.00
20.8568 2082.00
21.1611 2062.00
21.4653 2330.00
21.7696 2407.00
22.0738 2532.00
22.3781 5006.00
22.6824 11530.00
22.9866 2823.00
23.2909 3577.00
23.5951 10008.00
23.8994 3604.00
24.2037 2334.00
24.5079 2327.00
24.8122 2505.00
25.1164 4832.00
25.4207 4052.00
25.725 2300.00
26.0292 2036.00
26.3335 2012.00
26.6378 2000.00
26.942 1975.00
27.2463 2052.00
27.5505 1976.00
27.8548 1926.00
28.1591 1950.00
28.4633 1978.00
28.7676 1997.00
29.0718 2671.00
29.3761 3944.00
29.6804 2291.00
29.9846 1721.00
30.2889 1661.00
30.5931 1671.00
30.8974 1828.00
31.2017 1511.00
31.5059 1499.00
31.8102 1577.00
32.1144 1626.00
32.4187 1388.00
32.723 1372.00
33.0272 1359.00
33.3315 1355.00
33.6357 1642.00
33.94 3241.00
34.2443 8124.00
34.5485 4753.00
34.8528 1529.00
35.157 1275.00
35.4613 1253.00
35.7656 1216.00
36.0698 1178.00
36.3741 1302.00
36.6783 1384.00
36.9826 3045.00
37.2869 5212.00
37.5911 1685.00
37.8954 1279.00
38.1996 1238.00
38.5039 1315.00
38.8082 1654.00
39.1124 2096.00
39.4167 1595.00
39.7209 1253.00
40.0252 1131.00
40.3295 998.00
40.6337 987.00
40.938 1009.00
41.2422 1043.00
41.5465 943.00
41.8508 931.00
42.155 1062.00
42.4593 956.00
42.7635 894.00
43.0678 888.00
43.3721 828.00
43.6763 997.00
43.9806 1024.00
44.2849 804.00
44.5891 748.00
44.8934 761.00
45.1976 777.00
45.5019 762.00
45.8062 725.00
46.1104 667.00
46.4147 702.00
46.7189 707.00
47.0232 712.00
47.3275 731.00
47.6317 727.00
47.936 754.00
48.2402 722.00
48.5445 689.00
48.8488 753.00
49.153 707.00
49.4573 759.00
49.7615 921.00
50.0658 702.00
50.3701 696.00
50.6743 735.00
50.9786 1038.00
51.2828 1983.00
51.5871 1437.00
51.8914 1322.00
52.1956 754.00
52.4999 677.00
52.8041 668.00
53.1084 630.00
53.4127 602.00
53.7169 599.00
54.0212 587.00
54.3254 582.00
54.6297 661.00
54.934 790.00
55.2382 615.00
55.5425 580.00
55.8467 621.00
56.151 722.00
56.4553 590.00
56.7595 587.00
57.0638 630.00
57.368 820.00
57.6723 732.00
57.9766 665.00
58.2808 655.00
58.5851 635.00
58.8893 787.00
59.1936 831.00
59.4979 759.00
59.8021 792.00
60.1064 759.00
60.4106 868.00
60.7149 1485.00
61.0192 1566.00
61.3234 2230.00
61.6277 882.00
61.932 745.00
62.2362 684.00
62.5405 574.00
62.8447 520.00
63.149 580.00
63.4533 631.00
63.7575 641.00
64.0618 542.00
64.366 541.00
64.6703 583.00
64.9745 510.00
65.2788 511.00
65.5831 585.00
65.8873 580.00
66.1916 591.00
66.4959 627.00
66.8001 640.00
67.1044 640.00
67.4086 650.00
67.7129 743.00
68.0172 1018.00
68.3214 879.00
68.6257 735.00
68.9299 610.00
69.2342 574.00
69.5385 535.00
69.8427 551.00
70.147 609.00
70.4512 569.00
70.7555 544.00
71.0598 546.00
71.364 658.00
71.6683 672.00
71.9725 562.00
72.2768 515.00
72.5811 543.00
72.8853 551.00
73.1896 847.00
73.4938 912.00
73.7981 1086.00
74.1024 985.00
74.4066 795.00
74.7109 596.00
75.0151 630.00
75.3194 548.00
75.6237 556.00
75.9279 557.00
76.2322 468.00
76.5364 440.00
76.8407 473.00
77.145 495.00
77.4492 486.00
77.7535 478.00
78.0577 428.00
78.362 409.00
78.6663 416.00
78.9705 394.00
79.2748 438.00
79.579 426.00
79.8833 415.00
80.1876 461.00
80.4918 484.00
80.7961 615.00
81.1003 677.00
81.4046 503.00
81.7089 440.00
82.0131 437.00
82.3174 499.00
82.6217 622.00
82.9259 606.00
83.2302 506.00
83.5344 507.00
83.8387 421.00
84.143 513.00
84.4472 473.00
84.7515 426.00
85.0557 431.00
85.36 403.00
85.6643 437.00
85.9685 495.00
86.2728 448.00
86.577 385.00
86.8813 429.00
87.1856 417.00
87.4898 419.00
87.7941 376.00
88.0983 391.00
88.4026 397.00
88.7069 542.00
89.0111 534.00
89.3154 406.00
89.6196 358.00
89.9239 358.00
90.2282 395.00
90.5324 439.00
90.8367 439.00
91.1409 400.00
91.4452 408.00
91.7495 392.00
92.0537 411.00
92.358 413.00
92.6622 407.00
92.9665 344.00
93.2708 404.00
93.575 364.00
93.8793 388.00
94.1835 342.00
94.4878 350.00
94.7921 331.00
95.0963 361.00
95.4006 400.00
95.7048 356.00
96.0091 376.00
96.3134 379.00
96.6176 360.00
96.9219 431.00
97.2261 455.00
97.5304 535.00
97.8347 519.00
98.1389 468.00
98.4432 442.00
98.7474 427.00
99.0517 397.00
99.356 405.00
99.6602 352.00
99.9645 386.00
100.095 360.00

File: PG_2235-1.xy
9.903433 2604.00
10.2077 2429.00
10.512 2429.00
10.8162 2220.00
11.1205 2182.00
11.4247 2172.00
11.729 1924.00
12.0333 1816.00
12.3375 1789.00
12.6418 1783.00
12.946 1653.00
13.2503 1573.00
13.5546 1530.00
13.8588 1468.00
14.1631 1362.00
14.4673 1396.00
14.7716 1322.00
15.0759 1332.00
15.3801 1347.00
15.6844 1256.00
15.9886 1255.00
16.2929 1235.00
16.5972 1252.00
16.9014 1116.00
17.2057 1207.00
17.5099 1077.00
17.8142 1028.00
18.1185 1090.00
18.4227 1022.00
18.727 1002.00
19.0312 1019.00
19.3355 914.00
19.6398 957.00
19.944 906.00
20.2483 898.00
20.5525 881.00
20.8568 803.00
21.1611 863.00
21.4653 805.00
21.7696 793.00
22.0738 748.00
22.3781 783.00
22.6824 797.00
22.9866 677.00
23.2909 782.00
23.5951 718.00
23.8994 768.00
24.2037 712.00
24.5079 681.00
24.8122 725.00
25.1164 714.00
25.4207 647.00
25.725 674.00
26.0292 640.00
26.3335 640.00
26.6378 669.00
26.942 627.00
27.2463 625.00
27.5505 615.00
27.8548 633.00
28.1591 616.00
28.4633 581.00
28.7676 573.00
29.0718 620.00
29.3761 608.00
29.6804 573.00
29.9846 519.00
30.2889 509.00
30.5931 493.00
30.8974 499.00
31.2017 549.00
31.5059 535.00
31.8102 492.00
32.1144 489.00
32.4187 519.00
32.723 504.00
33.0272 489.00
33.3315 434.00
33.6357 479.00
33.94 476.00
34.2443 447.00
34.5485 457.00
34.8528 455.00
35.157 428.00
35.4613 428.00
35.7656 415.00
36.0698 463.00
36.3741 342.00
36.6783 401.00
36.9826 397.00
37.2869 392.00
37.5911 397.00
37.8954 450.00
38.1996 387.00
38.5039 387.00
38.8082 328.00
39.1124 355.00
39.4167 342.00
39.7209 355.00
40.0252 304.00
40.3295 335.00
40.6337 348.00
40.938 327.00
41.2422 295.00
41.5465 363.00
41.8508 331.00
42.155 281.00
42.4593 345.00
42.7635 353.00
43.0678 303.00
43.3721 303.00
43.6763 334.00
43.9806 322.00
44.2849 316.00
44.5891 286.00
44.8934 293.00
45.1976 296.00
45.5019 331.00
45.8062 269.00
46.1104 301.00
46.4147 264.00
46.7189 263.00
47.0232 318.00
47.3275 278.00
47.6317 295.00
47.936 258.00
48.2402 301.00
48.5445 266.00
48.8488 291.00
49.153 261.00
49.4573 271.00
49.7615 262.00
50.0658 243.00
50.3701 260.00
50.6743 247.00
50.9786 275.00
51.2828 242.00
51.5871 242.00
51.8914 243.00
52.1956 224.00
52.4999 238.00
52.8041 264.00
53.1084 217.00
53.4127 224.00
53.7169 248.00
54.0212 237.00
54.3254 220.00
54.6297 258.00
54.934 236.00
55.2382 266.00
55.5425 214.00
55.8467 215.00
56.151 229.00
56.4553 230.00
56.7595 204.00
57.0638 209.00
57.368 200.00
57.6723 219.00
57.9766 198.00
58.2808 216.00
58.5851 225.00
58.8893 223.00
59.1936 240.00
59.4979 179.00
59.8021 191.00
60.1064 209.00
60.4106 200.00
60.7149 184.00
61.0192 198.00
61.3234 211.00
61.6277 191.00
61.932 170.00
62.2362 205.00
62.5405 210.00
62.8447 204.00
63.149 202.00
63.4533 204.00
63.7575 191.00
64.0618 203.00
64.366 203.00
64.6703 198.00
64.9745 211.00
65.2788 202.00
65.5831 170.00
65.8873 172.00
66.1916 201.00
66.4959 206.00
66.8001 190.00
67.1044 179.00
67.4086 165.00
67.7129 203.00
68.0172 184.00
68.3214 166.00
68.6257 197.00
68.9299 194.00
69.2342 197.00
69.5385 178.00
69.8427 161.00
70.147 209.00
70.4512 178.00
70.7555 211.00
71.0598 178.00
71.364 193.00
71.6683 189.00
71.9725 173.00
72.2768 191.00
72.5811 194.00
72.8853 173.00
73.1896 166.00
73.4938 197.00
73.7981 206.00
74.1024 167.00
74.4066 194.00
74.7109 220.00
75.0151 199.00
75.3194 178.00
75.6237 191.00
75.9279 189.00
76.2322 207.00
76.5364 202.00
76.8407 205.00
77.145 210.00
77.4492 190.00
77.7535 184.00
78.0577 223.00
78.362 202.00
78.6663 210.00
78.9705 221.00
79.2748 209.00
79.579 207.00
79.8833 247.00
80.1876 215.00
80.4918 218.00
80.7961 210.00
81.1003 192.00
81.4046 225.00
81.7089 196.00
82.0131 187.00
82.3174 219.00
82.6217 211.00
82.9259 223.00
83.2302 235.00
83.5344 245.00
83.8387 211.00
84.143 227.00
84.4472 240.00
84.7515 215.00
85.0557 194.00
85.36 212.00
85.6643 206.00
85.9685 222.00
86.2728 203.00
86.577 217.00
86.8813 168.00
87.1856 188.00
87.4898 197.00
87.7941 221.00
88.0983 172.00
88.4026 190.00
88.7069 185.00
89.0111 189.00
89.3154 222.00
89.6196 173.00
89.9239 192.00
90.2282 190.00
90.5324 199.00
90.8367 197.00
91.1409 203.00
91.4452 186.00
91.7495 190.00
92.0537 209.00
92.358 180.00
92.6622 195.00
92.9665 199.00
93.2708 187.00
93.575 179.00
93.8793 175.00
94.1835 144.00
94.4878 176.00
94.7921 161.00
95.0963 198.00
95.4006 208.00
95.7048 171.00
96.0091 194.00
96.3134 175.00
96.6176 185.00
96.9219 197.00
97.2261 195.00
97.5304 189.00
97.8347 174.00
98.1389 189.00
98.4432 173.00
98.7474 180.00
99.0517 187.00
99.356 163.00
99.6602 205.00
99.9645 214.00
100.095 206.00

File: PG_2238-1.xy
9.903433 3046.00
10.2077 2976.00
10.512 2980.00
10.8162 2835.00
11.1205 2938.00
11.4247 2709.00
11.729 2720.00
12.0333 2695.00
12.3375 2659.00
12.6418 2672.00
12.946 2589.00
13.2503 2501.00
13.5546 2617.00
13.8588 2520.00
14.1631 2515.00
14.4673 2476.00
14.7716 2550.00
15.0759 2457.00
15.3801 2390.00
15.6844 2468.00
15.9886 2459.00
16.2929 2346.00
16.5972 2440.00
16.9014 2462.00
17.2057 2492.00
17.5099 2505.00
17.8142 2220.00
18.1185 2313.00
18.4227 2295.00
18.727 2151.00
19.0312 2118.00
19.3355 2143.00
19.6398 2287.00
19.944 2158.00
20.2483 2223.00
20.5525 2115.00
20.8568 2056.00
21.1611 2026.00
21.4653 2245.00
21.7696 2569.00
22.0738 2215.00
22.3781 2422.00
22.6824 4636.00
22.9866 19593.00
23.2909 2622.00
23.5951 2330.00
23.8994 2327.00
24.2037 2288.00
24.5079 2195.00
24.8122 2085.00
25.1164 2174.00
25.4207 2160.00
25.725 2170.00
26.0292 2151.00
26.3335 2148.00
26.6378 2117.00
26.942 2363.00
27.2463 2737.00
27.5505 2958.00
27.8548 3142.00
28.1591 3519.00
28.4633 9090.00
28.7676 8275.00
29.0718 5868.00
29.3761 6424.00
29.6804 2912.00
29.9846 2393.00
30.2889 2171.00
30.5931 2123.00
30.8974 2889.00
31.2017 2017.00
31.5059 1967.00
31.8102 1959.00
32.1144 4019.00
32.4187 2086.00
32.723 1935.00
33.0272 1962.00
33.3315 2054.00
33.6357 1902.00
33.94 2043.00
34.2443 2136.00
34.5485 2130.00
34.8528 1849.00
35.157 1816.00
35.4613 1902.00
35.7656 2229.00
36.0698 2305.00
36.3741 2796.00
36.6783 4467.00
36.9826 4719.00
37.2869 5866.00
37.5911 2483.00
37.8954 1920.00
38.1996 1780.00
38.5039 1617.00
38.8082 1679.00
39.1124 1713.00
39.4167 1616.00
39.7209 1735.00
40.0252 1758.00
40.3295 1774.00
40.6337 1572.00
40.938 1673.00
41.2422 1663.00
41.5465 1639.00
41.8508 1564.00
42.155 1583.00
42.4593 1573.00
42.7635 1737.00
43.0678 1810.00
43.3721 1762.00
43.6763 1775.00
43.9806 1765.00
44.2849 1758.00
44.5891 2090.00
44.8934 2175.00
45.1976 2207.00
45.5019 2062.00
45.8062 1885.00
46.1104 1876.00
46.4147 7174.00
46.7189 1890.00
47.0232 1675.00
47.3275 1648.00
47.6317 1750.00
47.936 1633.00
48.2402 1739.00
48.5445 1822.00
48.8488 1910.00
49.153 2154.00
49.4573 2307.00
49.7615 3509.00
50.0658 4031.00
50.3701 2594.00
50.6743 2513.00
50.9786 2610.00
51.2828 2885.00
51.5871 2130.00
51.8914 2115.00
52.1956 2060.00
52.4999 1984.00
52.8041 1865.00
53.1084 1767.00
53.4127 1645.00
53.7169 1749.00
54.0212 1651.00
54.3254 1786.00
54.6297 1920.00
54.934 2340.00
55.2382 4941.00
55.5425 5127.00
55.8467 3295.00
56.151 2243.00
56.4553 2103.00
56.7595 2357.00
57.0638 2165.00
57.368 1983.00
57.6723 2058.00
57.9766 1948.00
58.2808 1868.00
58.5851 2011.00
58.8893 2228.00
59.1936 1914.00
59.4979 1804.00
59.8021 1832.00
60.1064 2146.00
60.4106 2007.00
60.7149 1698.00
61.0192 1705.00
61.3234 1642.00
61.6277 1844.00
61.932 1888.00
62.2362 1872.00
62.5405 1933.00
62.8447 1784.00
63.149 1803.00
63.4533 1834.00
63.7575 2039.00
64.0618 1993.00
64.366 1789.00
64.6703 1684.00
64.9745 1848.00
65.2788 1926.00
65.5831 1737.00
65.8873 1716.00
66.1916 1700.00
66.4959 1774.00
66.8001 1839.00
67.1044 1772.00
67.4086 1753.00
67.7129 1763.00
68.0172 1726.00
68.3214 1768.00
68.6257 1649.00
68.9299 1654.00
69.2342 1609.00
69.5385 1548.00
69.8427 1728.00
70.147 2153.00
70.4512 2491.00
70.7555 1985.00
71.0598 1706.00
71.364 1970.00
71.6683 1746.00
71.9725 1749.00
72.2768 2012.00
72.5811 1678.00
72.8853 1488.00
73.1896 1517.00
73.4938 1499.00
73.7981 1467.00
74.1024 1442.00
74.4066 1526.00
74.7109 1476.00
75.0151 1508.00
75.3194 1554.00
75.6237 1545.00
75.9279 1537.00
76.2322 1621.00
76.5364 1652.00
76.8407 1582.00
77.145 1624.00
77.4492 1662.00
77.7535 1642.00
78.0577 1692.00
78.362 1523.00
78.6663 1670.00
78.9705 1907.00
79.2748 1967.00
79.579 1896.00
79.8833 1759.00
80.1876 1789.00
80.4918 1611.00
80.7961 1564.00
81.1003 1618.00
81.4046 1619.00
81.7089 1648.00
82.0131 1624.00
82.3174 1587.00
82.6217 1559.00
82.9259 1608.00
83.2302 1604.00
83.5344 1591.00
83.8387 1522.00
84.143 1552.00
84.4472 1660.00
84.7515 1714.00
85.0557 1557.00
85.36 1445.00
85.6643 1494.00
85.9685 1530.00
86.2728 1507.00
86.577 1450.00
86.8813 1509.00
87.1856 1490.00
87.4898 1449.00
87.7941 1449.00
88.0983 1560.00
88.4026 1560.00
88.7069 1497.00
89.0111 1497.00
89.3154 1537.00
89.6196 1452.00
89.9239 1389.00
90.2282 1532.00
90.5324 1533.00
90.8367 1562.00
91.1409 1432.00
91.4452 1490.00
91.7495 1438.00
92.0537 1538.00
92.358 1532.00
92.6622 1569.00
92.9665 1553.00
93.2708 1536.00
93.575 1581.00
93.8793 1537.00
94.1835 1549.00
94.4878 1572.00
94.7921 1567.00
95.0963 1560.00
95.4006 1540.00
95.7048 1593.00
96.0091 1653.00
96.3134 1613.00
96.6176 1525.00
96.9219 1526.00
97.2261 1638.00
97.5304 1697.00
97.8347 1684.00
98.1389 1651.00
98.4432 1557.00
98.7474 1497.00
99.0517 1567.00
99.356 1551.00
99.6602 1578.00
99.9645 1550.00
100.095 1613.00