Folder: alab-pipeline/data/xrd_creation/results (part 75)

File: NSC_217.xy
9.903433 2721.00
10.2077 2522.00
10.512 2526.00
10.8162 2457.00
11.1205 2264.00
11.4247 2257.00
11.729 2132.00
12.0333 2147.00
12.3375 2011.00
12.6418 2068.00
12.946 1965.00
13.2503 1923.00
13.5546 2085.00
13.8588 2808.00
14.1631 1857.00
14.4673 1795.00
14.7716 1898.00
15.0759 1860.00
15.3801 1673.00
15.6844 1754.00
15.9886 1645.00
16.2929 1579.00
16.5972 1685.00
16.9014 1637.00
17.2057 1601.00
17.5099 1612.00
17.8142 1652.00
18.1185 1541.00
18.4227 1471.00
18.727 1519.00
19.0312 2032.00
19.3355 4486.00
19.6398 6166.00
19.944 3371.00
20.2483 1523.00
20.5525 1590.00
20.8568 1632.00
21.1611 1669.00
21.4653 1868.00
21.7696 1583.00
22.0738 1418.00
22.3781 1662.00
22.6824 1856.00
22.9866 2532.00
23.2909 1758.00
23.5951 1355.00
23.8994 1458.00
24.2037 1740.00
24.5079 1542.00
24.8122 1599.00
25.1164 1287.00
25.4207 1259.00
25.725 1242.00
26.0292 1266.00
26.3335 1187.00
26.6378 1216.00
26.942 1209.00
27.2463 1336.00
27.5505 2114.00
27.8548 4413.00
28.1591 1799.00
28.4633 3401.00
28.7676 1754.00
29.0718 1242.00
29.3761 1174.00
29.6804 1176.00
29.9846 1241.00
30.2889 1455.00
30.5931 2855.00
30.8974 6486.00
31.2017 2770.00
31.5059 1740.00
31.8102 2801.00
32.1144 1360.00
32.4187 1240.00
32.723 1160.00
33.0272 1329.00
33.3315 1411.00
33.6357 1449.00
33.94 1815.00
34.2443 4961.00
34.5485 4660.00
34.8528 1689.00
35.157 1152.00
35.4613 1257.00
35.7656 1425.00
36.0698 1071.00
36.3741 1151.00
36.6783 1033.00
36.9826 1010.00
37.2869 958.00
37.5911 988.00
37.8954 962.00
38.1996 949.00
38.5039 951.00
38.8082 1060.00
39.1124 1151.00
39.4167 1186.00
39.7209 1154.00
40.0252 1144.00
40.3295 1009.00
40.6337 1065.00
40.938 1275.00
41.2422 1556.00
41.5465 1749.00
41.8508 1616.00
42.155 1361.00
42.4593 1103.00
42.7635 934.00
43.0678 917.00
43.3721 957.00
43.6763 1035.00
43.9806 1052.00
44.2849 1555.00
44.5891 2052.00
44.8934 1800.00
45.1976 1114.00
45.5019 1076.00
45.8062 1207.00
46.1104 1367.00
46.4147 1664.00
46.7189 2673.00
47.0232 2275.00
47.3275 1337.00
47.6317 896.00
47.936 1012.00
48.2402 975.00
48.5445 1027.00
48.8488 933.00
49.153 1159.00
49.4573 1257.00
49.7615 1352.00
50.0658 1049.00
50.3701 1821.00
50.6743 2682.00
50.9786 2116.00
51.2828 1138.00
51.5871 995.00
51.8914 990.00
52.1956 904.00
52.4999 936.00
52.8041 1040.00
53.1084 1384.00
53.4127 2064.00
53.7169 2294.00
54.0212 1424.00
54.3254 1101.00
54.6297 1138.00
54.934 990.00
55.2382 1045.00
55.5425 1148.00
55.8467 1269.00
56.151 1116.00
56.4553 1095.00
56.7595 930.00
57.0638 975.00
57.368 1198.00
57.6723 1240.00
57.9766 1106.00
58.2808 1251.00
58.5851 1588.00
58.8893 1879.00
59.1936 2136.00
59.4979 1665.00
59.8021 1196.00
60.1064 1222.00
60.4106 1362.00
60.7149 1196.00
61.0192 1278.00
61.3234 1466.00
61.6277 1760.00
61.932 1381.00
62.2362 1292.00
62.5405 1351.00
62.8447 1142.00
63.149 1070.00
63.4533 1013.00
63.7575 864.00
64.0618 832.00
64.366 996.00
64.6703 1030.00
64.9745 1192.00
65.2788 1217.00
65.5831 1288.00
65.8873 1338.00
66.1916 1544.00
66.4959 1359.00
66.8001 1096.00
67.1044 930.00
67.4086 920.00
67.7129 881.00
68.0172 887.00
68.3214 937.00
68.6257 1128.00
68.9299 1118.00
69.2342 936.00
69.5385 943.00
69.8427 901.00
70.147 920.00
70.4512 886.00
70.7555 903.00
71.0598 827.00
71.364 893.00
71.6683 1032.00
71.9725 1106.00
72.2768 1275.00
72.5811 1213.00
72.8853 1117.00
73.1896 1042.00
73.4938 925.00
73.7981 944.00
74.1024 891.00
74.4066 901.00
74.7109 884.00
75.0151 939.00
75.3194 984.00
75.6237 1098.00
75.9279 1111.00
76.2322 1015.00
76.5364 983.00
76.8407 1026.00
77.145 997.00
77.4492 896.00
77.7535 872.00
78.0577 893.00
78.362 888.00
78.6663 949.00
78.9705 924.00
79.2748 984.00
79.579 1069.00
79.8833 1021.00
80.1876 1015.00
80.4918 1129.00
80.7961 1128.00
81.1003 1015.00
81.4046 851.00
81.7089 869.00
82.0131 987.00
82.3174 997.00
82.6217 933.00
82.9259 933.00
83.2302 950.00
83.5344 891.00
83.8387 881.00
84.143 901.00
84.4472 859.00
84.7515 912.00
85.0557 866.00
85.36 949.00
85.6643 963.00
85.9685 999.00
86.2728 976.00
86.577 1119.00
86.8813 1166.00
87.1856 1020.00
87.4898 970.00
87.7941 979.00
88.0983 874.00
88.4026 899.00
88.7069 935.00
89.0111 1069.00
89.3154 1058.00
89.6196 1049.00
89.9239 967.00
90.2282 951.00
90.5324 978.00
90.8367 944.00
91.1409 874.00
91.4452 895.00
91.7495 876.00
92.0537 935.00
92.358 975.00
92.6622 1042.00
92.9665 1036.00
93.2708 1040.00
93.575 1007.00
93.8793 987.00
94.1835 898.00
94.4878 931.00
94.7921 931.00
95.0963 938.00
95.4006 956.00
95.7048 919.00
96.0091 959.00
96.3134 945.00
96.6176 915.00
96.9219 916.00
97.2261 927.00
97.5304 917.00
97.8347 952.00
98.1389 958.00
98.4432 914.00
98.7474 912.00
99.0517 1020.00
99.356 1108.00
99.6602 1174.00
99.9645 1242.00
100.095 1273.00

File: NSC_218.xy
9.903433 2538.00
10.2077 2542.00
10.512 2439.00
10.8162 2322.00
11.1205 2239.00
11.4247 2313.00
11.729 2070.00
12.0333 2111.00
12.3375 1992.00
12.6418 1990.00
12.946 1884.00
13.2503 1904.00
13.5546 2014.00
13.8588 2083.00
14.1631 1688.00
14.4673 1700.00
14.7716 1797.00
15.0759 1698.00
15.3801 1719.00
15.6844 1674.00
15.9886 1578.00
16.2929 1633.00
16.5972 1644.00
16.9014 1610.00
17.2057 1562.00
17.5099 1578.00
17.8142 1625.00
18.1185 1465.00
18.4227 1496.00
18.727 1460.00
19.0312 1612.00
19.3355 3774.00
19.6398 4143.00
19.944 1568.00
20.2483 1437.00
20.5525 1614.00
20.8568 1843.00
21.1611 1460.00
21.4653 1520.00
21.7696 1371.00
22.0738 1421.00
22.3781 1327.00
22.6824 1581.00
22.9866 2101.00
23.2909 1597.00
23.5951 1369.00
23.8994 1367.00
24.2037 1461.00
24.5079 1373.00
24.8122 1420.00
25.1164 1215.00
25.4207 1296.00
25.725 1162.00
26.0292 1208.00
26.3335 1142.00
26.6378 1169.00
26.942 1222.00
27.2463 1365.00
27.5505 2375.00
27.8548 2388.00
28.1591 1696.00
28.4633 2280.00
28.7676 1250.00
29.0718 1135.00
29.3761 1228.00
29.6804 1385.00
29.9846 1483.00
30.2889 1767.00
30.5931 1803.00
30.8974 4655.00
31.2017 3016.00
31.5059 1651.00
31.8102 1798.00
32.1144 1178.00
32.4187 990.00
32.723 1071.00
33.0272 1057.00
33.3315 1083.00
33.6357 1166.00
33.94 2027.00
34.2443 4987.00
34.5485 2243.00
34.8528 1272.00
35.157 1059.00
35.4613 1209.00
35.7656 1152.00
36.0698 1341.00
36.3741 1099.00
36.6783 964.00
36.9826 897.00
37.2869 983.00
37.5911 975.00
37.8954 1008.00
38.1996 948.00
38.5039 1154.00
38.8082 1139.00
39.1124 1091.00
39.4167 1170.00
39.7209 1122.00
40.0252 1001.00
40.3295 919.00
40.6337 1029.00
40.938 1088.00
41.2422 1221.00
41.5465 1523.00
41.8508 1325.00
42.155 1192.00
42.4593 977.00
42.7635 1030.00
43.0678 927.00
43.3721 927.00
43.6763 993.00
43.9806 971.00
44.2849 1584.00
44.5891 1829.00
44.8934 1081.00
45.1976 946.00
45.5019 904.00
45.8062 998.00
46.1104 980.00
46.4147 1382.00
46.7189 2480.00
47.0232 1496.00
47.3275 926.00
47.6317 841.00
47.936 910.00
48.2402 900.00
48.5445 944.00
48.8488 969.00
49.153 1111.00
49.4573 1237.00
49.7615 1117.00
50.0658 913.00
50.3701 1288.00
50.6743 1803.00
50.9786 1975.00
51.2828 1196.00
51.5871 1080.00
51.8914 1024.00
52.1956 898.00
52.4999 856.00
52.8041 933.00
53.1084 1480.00
53.4127 2096.00
53.7169 1123.00
54.0212 960.00
54.3254 1135.00
54.6297 1112.00
54.934 964.00
55.2382 951.00
55.5425 1036.00
55.8467 1057.00
56.151 935.00
56.4553 936.00
56.7595 961.00
57.0638 957.00
57.368 895.00
57.6723 940.00
57.9766 885.00
58.2808 890.00
58.5851 1153.00
58.8893 1703.00
59.1936 2126.00
59.4979 1286.00
59.8021 851.00
60.1064 1010.00
60.4106 1099.00
60.7149 1164.00
61.0192 1435.00
61.3234 1488.00
61.6277 1173.00
61.932 1015.00
62.2362 1177.00
62.5405 1286.00
62.8447 1151.00
63.149 1064.00
63.4533 969.00
63.7575 861.00
64.0618 868.00
64.366 879.00
64.6703 1068.00
64.9745 1068.00
65.2788 937.00
65.5831 919.00
65.8873 1211.00
66.1916 1431.00
66.4959 1230.00
66.8001 852.00
67.1044 844.00
67.4086 826.00
67.7129 886.00
68.0172 833.00
68.3214 1089.00
68.6257 1013.00
68.9299 903.00
69.2342 851.00
69.5385 864.00
69.8427 889.00
70.147 818.00
70.4512 781.00
70.7555 739.00
71.0598 800.00
71.364 949.00
71.6683 974.00
71.9725 1175.00
72.2768 1016.00
72.5811 861.00
72.8853 931.00
73.1896 1090.00
73.4938 867.00
73.7981 836.00
74.1024 763.00
74.4066 837.00
74.7109 892.00
75.0151 862.00
75.3194 1040.00
75.6237 908.00
75.9279 890.00
76.2322 820.00
76.5364 944.00
76.8407 901.00
77.145 845.00
77.4492 776.00
77.7535 815.00
78.0577 749.00
78.362 858.00
78.6663 761.00
78.9705 802.00
79.2748 845.00
79.579 917.00
79.8833 1027.00
80.1876 1133.00
80.4918 968.00
80.7961 839.00
81.1003 824.00
81.4046 779.00
81.7089 883.00
82.0131 1008.00
82.3174 922.00
82.6217 870.00
82.9259 883.00
83.2302 818.00
83.5344 793.00
83.8387 820.00
84.143 784.00
84.4472 793.00
84.7515 847.00
85.0557 838.00
85.36 846.00
85.6643 792.00
85.9685 860.00
86.2728 922.00
86.577 1061.00
86.8813 1041.00
87.1856 964.00
87.4898 900.00
87.7941 841.00
88.0983 858.00
88.4026 862.00
88.7069 910.00
89.0111 838.00
89.3154 865.00
89.6196 851.00
89.9239 884.00
90.2282 935.00
90.5324 915.00
90.8367 849.00
91.1409 780.00
91.4452 808.00
91.7495 878.00
92.0537 823.00
92.358 854.00
92.6622 847.00
92.9665 953.00
93.2708 982.00
93.575 875.00
93.8793 826.00
94.1835 800.00
94.4878 790.00
94.7921 783.00
95.0963 866.00
95.4006 983.00
95.7048 906.00
96.0091 886.00
96.3134 815.00
96.6176 843.00
96.9219 801.00
97.2261 807.00
97.5304 841.00
97.8347 827.00
98.1389 837.00
98.4432 857.00
98.7474 808.00
99.0517 880.00
99.356 926.00
99.6602 1059.00
99.9645 1097.00
100.095 1154.00

File: NSC_219.xy
9.903433 2694.00
10.2077 2594.00
10.512 2438.00
10.8162 2352.00
11.1205 2266.00
11.4247 2300.00
11.729 2239.00
12.0333 2111.00
12.3375 2033.00
12.6418 2081.00
12.946 1943.00
13.2503 1856.00
13.5546 2161.00
13.8588 2391.00
14.1631 1758.00
14.4673 1752.00
14.7716 1823.00
15.0759 1654.00
15.3801 1583.00
15.6844 1676.00
15.9886 1622.00
16.2929 1554.00
16.5972 1540.00
16.9014 1601.00
17.2057 1559.00
17.5099 1599.00
17.8142 1557.00
18.1185 1461.00
18.4227 1496.00
18.727 1555.00
19.0312 1952.00
19.3355 5201.00
19.6398 4717.00
19.944 1672.00
20.2483 1430.00
20.5525 1532.00
20.8568 1788.00
21.1611 1463.00
21.4653 1371.00
21.7696 1293.00
22.0738 1356.00
22.3781 1339.00
22.6824 1406.00
22.9866 2646.00
23.2909 1457.00
23.5951 1299.00
23.8994 1328.00
24.2037 1478.00
24.5079 1378.00
24.8122 1212.00
25.1164 1190.00
25.4207 1186.00
25.725 1134.00
26.0292 1132.00
26.3335 1176.00
26.6378 1163.00
26.942 1080.00
27.2463 1287.00
27.5505 2511.00
27.8548 2520.00
28.1591 1666.00
28.4633 2380.00
28.7676 1199.00
29.0718 1083.00
29.3761 1062.00
29.6804 1128.00
29.9846 1103.00
30.2889 1272.00
30.5931 2910.00
30.8974 5376.00
31.2017 1576.00
31.5059 1928.00
31.8102 1715.00
32.1144 1093.00
32.4187 990.00
32.723 934.00
33.0272 980.00
33.3315 1054.00
33.6357 1101.00
33.94 1534.00
34.2443 4861.00
34.5485 3204.00
34.8528 1234.00
35.157 926.00
35.4613 1289.00
35.7656 1043.00
36.0698 1171.00
36.3741 910.00
36.6783 865.00
36.9826 888.00
37.2869 850.00
37.5911 848.00
37.8954 871.00
38.1996 883.00
38.5039 962.00
38.8082 940.00
39.1124 1016.00
39.4167 977.00
39.7209 875.00
40.0252 1006.00
40.3295 829.00
40.6337 822.00
40.938 1162.00
41.2422 1302.00
41.5465 1232.00
41.8508 1347.00
42.155 1175.00
42.4593 985.00
42.7635 783.00
43.0678 780.00
43.3721 821.00
43.6763 761.00
43.9806 943.00
44.2849 1283.00
44.5891 1599.00
44.8934 1393.00
45.1976 932.00
45.5019 873.00
45.8062 975.00
46.1104 1200.00
46.4147 1280.00
46.7189 2068.00
47.0232 1887.00
47.3275 1106.00
47.6317 854.00
47.936 848.00
48.2402 858.00
48.5445 806.00
48.8488 813.00
49.153 1021.00
49.4573 1193.00
49.7615 960.00
50.0658 854.00
50.3701 1534.00
50.6743 2372.00
50.9786 1477.00
51.2828 931.00
51.5871 1054.00
51.8914 881.00
52.1956 731.00
52.4999 744.00
52.8041 780.00
53.1084 1031.00
53.4127 1556.00
53.7169 2258.00
54.0212 1078.00
54.3254 1108.00
54.6297 847.00
54.934 814.00
55.2382 787.00
55.5425 1010.00
55.8467 985.00
56.151 894.00
56.4553 866.00
56.7595 789.00
57.0638 843.00
57.368 872.00
57.6723 971.00
57.9766 861.00
58.2808 1063.00
58.5851 1238.00
58.8893 1552.00
59.1936 1575.00
59.4979 1644.00
59.8021 997.00
60.1064 980.00
60.4106 1176.00
60.7149 945.00
61.0192 902.00
61.3234 1256.00
61.6277 1590.00
61.932 1267.00
62.2362 1092.00
62.5405 1045.00
62.8447 1074.00
63.149 1057.00
63.4533 843.00
63.7575 762.00
64.0618 727.00
64.366 788.00
64.6703 836.00
64.9745 1006.00
65.2788 1103.00
65.5831 1113.00
65.8873 1122.00
66.1916 1126.00
66.4959 1240.00
66.8001 1001.00
67.1044 826.00
67.4086 760.00
67.7129 734.00
68.0172 728.00
68.3214 696.00
68.6257 918.00
68.9299 1086.00
69.2342 828.00
69.5385 775.00
69.8427 739.00
70.147 775.00
70.4512 777.00
70.7555 735.00
71.0598 751.00
71.364 773.00
71.6683 812.00
71.9725 829.00
72.2768 1008.00
72.5811 1180.00
72.8853 1037.00
73.1896 858.00
73.4938 835.00
73.7981 789.00
74.1024 842.00
74.4066 827.00
74.7109 755.00
75.0151 708.00
75.3194 806.00
75.6237 979.00
75.9279 1021.00
76.2322 869.00
76.5364 777.00
76.8407 854.00
77.145 856.00
77.4492 783.00
77.7535 765.00
78.0577 776.00
78.362 719.00
78.6663 711.00
78.9705 699.00
79.2748 789.00
79.579 878.00
79.8833 891.00
80.1876 771.00
80.4918 907.00
80.7961 1094.00
81.1003 900.00
81.4046 801.00
81.7089 731.00
82.0131 752.00
82.3174 836.00
82.6217 877.00
82.9259 717.00
83.2302 755.00
83.5344 768.00
83.8387 727.00
84.143 771.00
84.4472 767.00
84.7515 789.00
85.0557 741.00
85.36 764.00
85.6643 774.00
85.9685 861.00
86.2728 773.00
86.577 867.00
86.8813 931.00
87.1856 997.00
87.4898 887.00
87.7941 836.00
88.0983 812.00
88.4026 755.00
88.7069 777.00
89.0111 811.00
89.3154 837.00
89.6196 862.00
89.9239 774.00
90.2282 780.00
90.5324 811.00
90.8367 828.00
91.1409 766.00
91.4452 784.00
91.7495 747.00
92.0537 780.00
92.358 789.00
92.6622 924.00
92.9665 873.00
93.2708 924.00
93.575 907.00
93.8793 907.00
94.1835 809.00
94.4878 743.00
94.7921 722.00
95.0963 781.00
95.4006 748.00
95.7048 828.00
96.0091 847.00
96.3134 818.00
96.6176 768.00
96.9219 783.00
97.2261 822.00
97.5304 809.00
97.8347 798.00
98.1389 740.00
98.4432 740.00
98.7474 745.00
99.0517 771.00
99.356 836.00
99.6602 900.00
99.9645 986.00
100.095 1020.00

File: NSC_220.xy
9.903433 2843.00
10.2077 2703.00
10.512 2584.00
10.8162 2390.00
11.1205 2303.00
11.4247 2228.00
11.729 2219.00
12.0333 2185.00
12.3375 2063.00
12.6418 1957.00
12.946 2093.00
13.2503 1937.00
13.5546 2254.00
13.8588 2719.00
14.1631 1784.00
14.4673 1798.00
14.7716 1756.00
15.0759 1831.00
15.3801 1713.00
15.6844 1590.00
15.9886 1687.00
16.2929 1656.00
16.5972 1590.00
16.9014 1661.00
17.2057 1620.00
17.5099 1629.00
17.8142 1570.00
18.1185 1580.00
18.4227 1538.00
18.727 1592.00
19.0312 1862.00
19.3355 6151.00
19.6398 6105.00
19.944 1703.00
20.2483 1434.00
20.5525 1560.00
20.8568 1904.00
21.1611 1407.00
21.4653 1438.00
21.7696 1368.00
22.0738 1351.00
22.3781 1312.00
22.6824 1637.00
22.9866 2788.00
23.2909 1446.00
23.5951 1297.00
23.8994 1415.00
24.2037 1523.00
24.5079 1389.00
24.8122 1276.00
25.1164 1209.00
25.4207 1259.00
25.725 1128.00
26.0292 1126.00
26.3335 1133.00
26.6378 1111.00
26.942 1173.00
27.2463 1226.00
27.5505 2625.00
27.8548 2919.00
28.1591 1874.00
28.4633 2069.00
28.7676 1197.00
29.0718 1045.00
29.3761 1092.00
29.6804 1055.00
29.9846 1146.00
30.2889 1822.00
30.5931 2527.00
30.8974 6205.00
31.2017 2509.00
31.5059 2021.00
31.8102 1586.00
32.1144 1097.00
32.4187 1013.00
32.723 951.00
33.0272 953.00
33.3315 1010.00
33.6357 1069.00
33.94 1874.00
34.2443 6688.00
34.5485 2278.00
34.8528 1114.00
35.157 992.00
35.4613 1294.00
35.7656 984.00
36.0698 988.00
36.3741 858.00
36.6783 865.00
36.9826 846.00
37.2869 862.00
37.5911 852.00
37.8954 841.00
38.1996 793.00
38.5039 885.00
38.8082 976.00
39.1124 913.00
39.4167 1157.00
39.7209 1084.00
40.0252 894.00
40.3295 872.00
40.6337 898.00
40.938 995.00
41.2422 1070.00
41.5465 1505.00
41.8508 1353.00
42.155 1288.00
42.4593 895.00
42.7635 802.00
43.0678 789.00
43.3721 817.00
43.6763 800.00
43.9806 906.00
44.2849 1529.00
44.5891 2120.00
44.8934 1177.00
45.1976 831.00
45.5019 894.00
45.8062 962.00
46.1104 967.00
46.4147 1370.00
46.7189 2585.00
47.0232 1919.00
47.3275 889.00
47.6317 780.00
47.936 782.00
48.2402 833.00
48.5445 857.00
48.8488 843.00
49.153 1032.00
49.4573 1110.00
49.7615 921.00
50.0658 809.00
50.3701 1123.00
50.6743 1839.00
50.9786 2065.00
51.2828 1042.00
51.5871 899.00
51.8914 761.00
52.1956 707.00
52.4999 717.00
52.8041 791.00
53.1084 1190.00
53.4127 2320.00
53.7169 1447.00
54.0212 794.00
54.3254 856.00
54.6297 758.00
54.934 848.00
55.2382 759.00
55.5425 821.00
55.8467 855.00
56.151 838.00
56.4553 803.00
56.7595 659.00
57.0638 694.00
57.368 828.00
57.6723 760.00
57.9766 730.00
58.2808 818.00
58.5851 1168.00
58.8893 1469.00
59.1936 2170.00
59.4979 1402.00
59.8021 839.00
60.1064 858.00
60.4106 1020.00
60.7149 1016.00
61.0192 1034.00
61.3234 1415.00
61.6277 1142.00
61.932 887.00
62.2362 1051.00
62.5405 1039.00
62.8447 1000.00
63.149 870.00
63.4533 746.00
63.7575 679.00
64.0618 641.00
64.366 677.00
64.6703 759.00
64.9745 876.00
65.2788 827.00
65.5831 816.00
65.8873 1000.00
66.1916 1236.00
66.4959 1186.00
66.8001 843.00
67.1044 669.00
67.4086 674.00
67.7129 688.00
68.0172 638.00
68.3214 800.00
68.6257 1036.00
68.9299 801.00
69.2342 682.00
69.5385 681.00
69.8427 648.00
70.147 648.00
70.4512 626.00
70.7555 618.00
71.0598 626.00
71.364 736.00
71.6683 739.00
71.9725 910.00
72.2768 978.00
72.5811 862.00
72.8853 796.00
73.1896 831.00
73.4938 722.00
73.7981 719.00
74.1024 663.00
74.4066 663.00
74.7109 626.00
75.0151 692.00
75.3194 759.00
75.6237 911.00
75.9279 724.00
76.2322 691.00
76.5364 694.00
76.8407 796.00
77.145 766.00
77.4492 664.00
77.7535 562.00
78.0577 579.00
78.362 631.00
78.6663 578.00
78.9705 616.00
79.2748 657.00
79.579 688.00
79.8833 748.00
80.1876 847.00
80.4918 929.00
80.7961 844.00
81.1003 678.00
81.4046 694.00
81.7089 662.00
82.0131 786.00
82.3174 810.00
82.6217 752.00
82.9259 693.00
83.2302 744.00
83.5344 656.00
83.8387 635.00
84.143 577.00
84.4472 555.00
84.7515 676.00
85.0557 591.00
85.36 636.00
85.6643 685.00
85.9685 668.00
86.2728 720.00
86.577 808.00
86.8813 884.00
87.1856 818.00
87.4898 753.00
87.7941 698.00
88.0983 724.00
88.4026 670.00
88.7069 702.00
89.0111 703.00
89.3154 681.00
89.6196 667.00
89.9239 732.00
90.2282 740.00
90.5324 720.00
90.8367 609.00
91.1409 639.00
91.4452 610.00
91.7495 628.00
92.0537 680.00
92.358 646.00
92.6622 670.00
92.9665 700.00
93.2708 741.00
93.575 764.00
93.8793 677.00
94.1835 689.00
94.4878 657.00
94.7921 626.00
95.0963 633.00
95.4006 716.00
95.7048 700.00
96.0091 719.00
96.3134 639.00
96.6176 644.00
96.9219 635.00
97.2261 662.00
97.5304 668.00
97.8347 635.00
98.1389 669.00
98.4432 549.00
98.7474 620.00
99.0517 585.00
99.356 691.00
99.6602 743.00
99.9645 854.00
100.095 858.00

File: NSC_221.xy
9.903433 2693.00
10.2077 2631.00
10.512 2531.00
10.8162 2458.00
11.1205 2318.00
11.4247 2396.00
11.729 2121.00
12.0333 2207.00
12.3375 2150.00
12.6418 2067.00
12.946 1921.00
13.2503 1975.00
13.5546 2488.00
13.8588 2844.00
14.1631 1853.00
14.4673 1814.00
14.7716 1878.00
15.0759 1806.00
15.3801 1757.00
15.6844 1761.00
15.9886 1732.00
16.2929 1630.00
16.5972 1684.00
16.9014 1700.00
17.2057 1674.00
17.5099 1709.00
17.8142 1611.00
18.1185 1582.00
18.4227 1510.00
18.727 1598.00
19.0312 1959.00
19.3355 7410.00
19.6398 6865.00
19.944 1603.00
20.2483 1506.00
20.5525 1497.00
20.8568 1507.00
21.1611 1527.00
21.4653 1443.00
21.7696 1420.00
22.0738 1388.00
22.3781 1488.00
22.6824 1632.00
22.9866 2791.00
23.2909 1441.00
23.5951 1392.00
23.8994 1406.00
24.2037 1513.00
24.5079 1382.00
24.8122 1301.00
25.1164 1230.00
25.4207 1282.00
25.725 1262.00
26.0292 1230.00
26.3335 1178.00
26.6378 1205.00
26.942 1239.00
27.2463 1224.00
27.5505 2872.00
27.8548 2469.00
28.1591 1555.00
28.4633 2251.00
28.7676 1262.00
29.0718 1138.00
29.3761 1124.00
29.6804 1153.00
29.9846 1121.00
30.2889 1621.00
30.5931 2411.00
30.8974 7726.00
31.2017 1590.00
31.5059 1539.00
31.8102 1577.00
32.1144 1075.00
32.4187 1120.00
32.723 1060.00
33.0272 1078.00
33.3315 1107.00
33.6357 1159.00
33.94 1761.00
34.2443 6642.00
34.5485 1935.00
34.8528 1191.00
35.157 1062.00
35.4613 1159.00
35.7656 1003.00
36.0698 1036.00
36.3741 976.00
36.6783 947.00
36.9826 906.00
37.2869 921.00
37.5911 863.00
37.8954 874.00
38.1996 893.00
38.5039 925.00
38.8082 1010.00
39.1124 1148.00
39.4167 1116.00
39.7209 1073.00
40.0252 935.00
40.3295 853.00
40.6337 885.00
40.938 1100.00
41.2422 1246.00
41.5465 1626.00
41.8508 1388.00
42.155 1330.00
42.4593 932.00
42.7635 868.00
43.0678 845.00
43.3721 843.00
43.6763 845.00
43.9806 1064.00
44.2849 1696.00
44.5891 2378.00
44.8934 1138.00
45.1976 900.00
45.5019 898.00
45.8062 969.00
46.1104 1289.00
46.4147 1532.00
46.7189 3197.00
47.0232 1783.00
47.3275 949.00
47.6317 812.00
47.936 888.00
48.2402 930.00
48.5445 926.00
48.8488 920.00
49.153 1098.00
49.4573 1005.00
49.7615 926.00
50.0658 932.00
50.3701 1470.00
50.6743 2652.00
50.9786 1587.00
51.2828 941.00
51.5871 908.00
51.8914 810.00
52.1956 835.00
52.4999 885.00
52.8041 897.00
53.1084 1270.00
53.4127 2806.00
53.7169 1753.00
54.0212 986.00
54.3254 924.00
54.6297 896.00
54.934 962.00
55.2382 836.00
55.5425 888.00
55.8467 991.00
56.151 862.00
56.4553 939.00
56.7595 805.00
57.0638 865.00
57.368 885.00
57.6723 922.00
57.9766 882.00
58.2808 1063.00
58.5851 1387.00
58.8893 1910.00
59.1936 2394.00
59.4979 1436.00
59.8021 905.00
60.1064 962.00
60.4106 1107.00
60.7149 989.00
61.0192 1064.00
61.3234 1695.00
61.6277 1286.00
61.932 1165.00
62.2362 1207.00
62.5405 1131.00
62.8447 1052.00
63.149 921.00
63.4533 859.00
63.7575 777.00
64.0618 742.00
64.366 777.00
64.6703 890.00
64.9745 1127.00
65.2788 1044.00
65.5831 1121.00
65.8873 1172.00
66.1916 1393.00
66.4959 1285.00
66.8001 989.00
67.1044 850.00
67.4086 779.00
67.7129 800.00
68.0172 767.00
68.3214 915.00
68.6257 1232.00
68.9299 953.00
69.2342 852.00
69.5385 786.00
69.8427 865.00
70.147 777.00
70.4512 807.00
70.7555 806.00
71.0598 795.00
71.364 757.00
71.6683 898.00
71.9725 1039.00
72.2768 1264.00
72.5811 1072.00
72.8853 1081.00
73.1896 977.00
73.4938 767.00
73.7981 852.00
74.1024 851.00
74.4066 845.00
74.7109 792.00
75.0151 746.00
75.3194 860.00
75.6237 1106.00
75.9279 1003.00
76.2322 807.00
76.5364 841.00
76.8407 925.00
77.145 844.00
77.4492 758.00
77.7535 726.00
78.0577 691.00
78.362 726.00
78.6663 725.00
78.9705 803.00
79.2748 817.00
79.579 963.00
79.8833 940.00
80.1876 967.00
80.4918 1131.00
80.7961 1116.00
81.1003 789.00
81.4046 756.00
81.7089 783.00
82.0131 932.00
82.3174 968.00
82.6217 837.00
82.9259 847.00
83.2302 800.00
83.5344 766.00
83.8387 738.00
84.143 720.00
84.4472 737.00
84.7515 766.00
85.0557 706.00
85.36 830.00
85.6643 862.00
85.9685 909.00
86.2728 957.00
86.577 1082.00
86.8813 1186.00
87.1856 1007.00
87.4898 884.00
87.7941 898.00
88.0983 807.00
88.4026 757.00
88.7069 804.00
89.0111 929.00
89.3154 922.00
89.6196 843.00
89.9239 910.00
90.2282 840.00
90.5324 849.00
90.8367 854.00
91.1409 789.00
91.4452 803.00
91.7495 743.00
92.0537 852.00
92.358 924.00
92.6622 927.00
92.9665 979.00
93.2708 1008.00
93.575 1015.00
93.8793 872.00
94.1835 846.00
94.4878 779.00
94.7921 755.00
95.0963 778.00
95.4006 860.00
95.7048 844.00
96.0091 823.00
96.3134 786.00
96.6176 803.00
96.9219 794.00
97.2261 809.00
97.5304 835.00
97.8347 845.00
98.1389 800.00
98.4432 789.00
98.7474 777.00
99.0517 828.00
99.356 891.00
99.6602 951.00
99.9645 1214.00
100.095 1168.00