Folder: alab-pipeline/data/xrd_creation/results (part 64)

File: NSC_161.xy
9.903433 2729.00
10.2077 2538.00
10.512 2621.00
10.8162 2398.00
11.1205 2349.00
11.4247 2233.00
11.729 2154.00
12.0333 2040.00
12.3375 2005.00
12.6418 1864.00
12.946 1947.00
13.2503 1798.00
13.5546 1700.00
13.8588 1753.00
14.1631 1829.00
14.4673 1723.00
14.7716 1752.00
15.0759 1692.00
15.3801 1703.00
15.6844 1649.00
15.9886 1697.00
16.2929 1662.00
16.5972 1658.00
16.9014 1677.00
17.2057 1563.00
17.5099 1574.00
17.8142 1576.00
18.1185 1625.00
18.4227 1604.00
18.727 1595.00
19.0312 1532.00
19.3355 1518.00
19.6398 1477.00
19.944 1495.00
20.2483 1543.00
20.5525 1626.00
20.8568 1449.00
21.1611 1456.00
21.4653 1488.00
21.7696 1435.00
22.0738 1401.00
22.3781 1425.00
22.6824 1403.00
22.9866 1429.00
23.2909 1316.00
23.5951 1420.00
23.8994 1413.00
24.2037 1283.00
24.5079 1350.00
24.8122 1353.00
25.1164 1331.00
25.4207 1572.00
25.725 1328.00
26.0292 1340.00
26.3335 1372.00
26.6378 1261.00
26.942 1310.00
27.2463 1242.00
27.5505 1205.00
27.8548 1268.00
28.1591 1196.00
28.4633 1189.00
28.7676 1328.00
29.0718 1258.00
29.3761 1291.00
29.6804 1284.00
29.9846 1446.00
30.2889 1243.00
30.5931 1251.00
30.8974 1275.00
31.2017 1252.00
31.5059 1219.00
31.8102 1160.00
32.1144 1221.00
32.4187 1104.00
32.723 1099.00
33.0272 1108.00
33.3315 1147.00
33.6357 1283.00
33.94 1071.00
34.2443 1047.00
34.5485 1070.00
34.8528 1051.00
35.157 1524.00
35.4613 934.00
35.7656 939.00
36.0698 902.00
36.3741 896.00
36.6783 824.00
36.9826 802.00
37.2869 812.00
37.5911 879.00
37.8954 919.00
38.1996 771.00
38.5039 749.00
38.8082 811.00
39.1124 730.00
39.4167 725.00
39.7209 700.00
40.0252 725.00
40.3295 663.00
40.6337 654.00
40.938 668.00
41.2422 630.00
41.5465 679.00
41.8508 654.00
42.155 633.00
42.4593 632.00
42.7635 663.00
43.0678 610.00
43.3721 1268.00
43.6763 660.00
43.9806 615.00
44.2849 603.00
44.5891 546.00
44.8934 597.00
45.1976 571.00
45.5019 605.00
45.8062 572.00
46.1104 611.00
46.4147 589.00
46.7189 574.00
47.0232 595.00
47.3275 573.00
47.6317 562.00
47.936 560.00
48.2402 614.00
48.5445 586.00
48.8488 519.00
49.153 543.00
49.4573 541.00
49.7615 553.00
50.0658 540.00
50.3701 536.00
50.6743 553.00
50.9786 552.00
51.2828 546.00
51.5871 612.00
51.8914 546.00
52.1956 542.00
52.4999 812.00
52.8041 521.00
53.1084 513.00
53.4127 532.00
53.7169 500.00
54.0212 564.00
54.3254 492.00
54.6297 532.00
54.934 467.00
55.2382 502.00
55.5425 525.00
55.8467 534.00
56.151 510.00
56.4553 486.00
56.7595 487.00
57.0638 523.00
57.368 940.00
57.6723 620.00
57.9766 473.00
58.2808 483.00
58.5851 507.00
58.8893 493.00
59.1936 508.00
59.4979 481.00
59.8021 500.00
60.1064 522.00
60.4106 483.00
60.7149 455.00
61.0192 502.00
61.3234 527.00
61.6277 484.00
61.932 477.00
62.2362 499.00
62.5405 453.00
62.8447 483.00
63.149 454.00
63.4533 478.00
63.7575 495.00
64.0618 478.00
64.366 440.00
64.6703 463.00
64.9745 455.00
65.2788 452.00
65.5831 468.00
65.8873 488.00
66.1916 445.00
66.4959 728.00
66.8001 475.00
67.1044 456.00
67.4086 397.00
67.7129 436.00
68.0172 488.00
68.3214 573.00
68.6257 437.00
68.9299 383.00
69.2342 443.00
69.5385 401.00
69.8427 392.00
70.147 393.00
70.4512 408.00
70.7555 413.00
71.0598 416.00
71.364 449.00
71.6683 382.00
71.9725 390.00
72.2768 370.00
72.5811 367.00
72.8853 411.00
73.1896 342.00
73.4938 394.00
73.7981 420.00
74.1024 401.00
74.4066 400.00
74.7109 367.00
75.0151 372.00
75.3194 375.00
75.6237 393.00
75.9279 374.00
76.2322 389.00
76.5364 362.00
76.8407 698.00
77.145 475.00
77.4492 380.00
77.7535 386.00
78.0577 393.00
78.362 409.00
78.6663 345.00
78.9705 356.00
79.2748 399.00
79.579 329.00
79.8833 320.00
80.1876 388.00
80.4918 374.00
80.7961 347.00
81.1003 333.00
81.4046 351.00
81.7089 335.00
82.0131 361.00
82.3174 352.00
82.6217 357.00
82.9259 348.00
83.2302 371.00
83.5344 368.00
83.8387 345.00
84.143 341.00
84.4472 302.00
84.7515 338.00
85.0557 324.00
85.36 317.00
85.6643 342.00
85.9685 322.00
86.2728 321.00
86.577 325.00
86.8813 307.00
87.1856 315.00
87.4898 343.00
87.7941 300.00
88.0983 283.00
88.4026 319.00
88.7069 323.00
89.0111 360.00
89.3154 328.00
89.6196 319.00
89.9239 294.00
90.2282 285.00
90.5324 310.00
90.8367 347.00
91.1409 402.00
91.4452 339.00
91.7495 311.00
92.0537 313.00
92.358 297.00
92.6622 305.00
92.9665 295.00
93.2708 304.00
93.575 325.00
93.8793 282.00
94.1835 288.00
94.4878 283.00
94.7921 297.00
95.0963 325.00
95.4006 327.00
95.7048 307.00
96.0091 307.00
96.3134 292.00
96.6176 281.00
96.9219 320.00
97.2261 286.00
97.5304 314.00
97.8347 330.00
98.1389 309.00
98.4432 272.00
98.7474 292.00
99.0517 296.00
99.356 312.00
99.6602 285.00
99.9645 301.00
100.095 300.00

File: NSC_162.xy
9.903433 2681.00
10.2077 2479.00
10.512 2333.00
10.8162 2169.00
11.1205 2135.00
11.4247 2048.00
11.729 1924.00
12.0333 1837.00
12.3375 1851.00
12.6418 1737.00
12.946 1681.00
13.2503 1615.00
13.5546 1524.00
13.8588 1481.00
14.1631 1466.00
14.4673 1428.00
14.7716 1364.00
15.0759 1322.00
15.3801 1322.00
15.6844 1301.00
15.9886 1270.00
16.2929 1178.00
16.5972 1210.00
16.9014 1151.00
17.2057 1160.00
17.5099 1085.00
17.8142 1129.00
18.1185 1112.00
18.4227 1044.00
18.727 961.00
19.0312 1035.00
19.3355 1034.00
19.6398 962.00
19.944 967.00
20.2483 942.00
20.5525 963.00
20.8568 885.00
21.1611 883.00
21.4653 848.00
21.7696 844.00
22.0738 782.00
22.3781 858.00
22.6824 846.00
22.9866 829.00
23.2909 772.00
23.5951 753.00
23.8994 757.00
24.2037 729.00
24.5079 679.00
24.8122 701.00
25.1164 744.00
25.4207 676.00
25.725 675.00
26.0292 703.00
26.3335 713.00
26.6378 676.00
26.942 624.00
27.2463 702.00
27.5505 638.00
27.8548 1365.00
28.1591 647.00
28.4633 652.00
28.7676 618.00
29.0718 608.00
29.3761 606.00
29.6804 582.00
29.9846 584.00
30.2889 594.00
30.5931 576.00
30.8974 515.00
31.2017 568.00
31.5059 586.00
31.8102 589.00
32.1144 532.00
32.4187 571.00
32.723 544.00
33.0272 493.00
33.3315 481.00
33.6357 483.00
33.94 476.00
34.2443 459.00
34.5485 489.00
34.8528 487.00
35.157 453.00
35.4613 485.00
35.7656 450.00
36.0698 422.00
36.3741 459.00
36.6783 427.00
36.9826 421.00
37.2869 387.00
37.5911 399.00
37.8954 346.00
38.1996 360.00
38.5039 367.00
38.8082 395.00
39.1124 389.00
39.4167 379.00
39.7209 371.00
40.0252 355.00
40.3295 369.00
40.6337 364.00
40.938 344.00
41.2422 385.00
41.5465 346.00
41.8508 378.00
42.155 356.00
42.4593 342.00
42.7635 358.00
43.0678 351.00
43.3721 317.00
43.6763 346.00
43.9806 343.00
44.2849 316.00
44.5891 283.00
44.8934 299.00
45.1976 326.00
45.5019 324.00
45.8062 280.00
46.1104 482.00
46.4147 342.00
46.7189 335.00
47.0232 328.00
47.3275 300.00
47.6317 328.00
47.936 302.00
48.2402 294.00
48.5445 306.00
48.8488 304.00
49.153 288.00
49.4573 301.00
49.7615 304.00
50.0658 280.00
50.3701 265.00
50.6743 273.00
50.9786 286.00
51.2828 277.00
51.5871 256.00
51.8914 248.00
52.1956 247.00
52.4999 281.00
52.8041 241.00
53.1084 229.00
53.4127 271.00
53.7169 266.00
54.0212 328.00
54.3254 308.00
54.6297 260.00
54.934 266.00
55.2382 296.00
55.5425 327.00
55.8467 258.00
56.151 269.00
56.4553 247.00
56.7595 238.00
57.0638 224.00
57.368 239.00
57.6723 281.00
57.9766 224.00
58.2808 215.00
58.5851 225.00
58.8893 222.00
59.1936 241.00
59.4979 258.00
59.8021 232.00
60.1064 221.00
60.4106 225.00
60.7149 193.00
61.0192 191.00
61.3234 218.00
61.6277 205.00
61.932 227.00
62.2362 227.00
62.5405 233.00
62.8447 229.00
63.149 212.00
63.4533 223.00
63.7575 207.00
64.0618 206.00
64.366 197.00
64.6703 204.00
64.9745 200.00
65.2788 197.00
65.5831 212.00
65.8873 210.00
66.1916 238.00
66.4959 204.00
66.8001 237.00
67.1044 174.00
67.4086 173.00
67.7129 168.00
68.0172 196.00
68.3214 189.00
68.6257 237.00
68.9299 205.00
69.2342 188.00
69.5385 222.00
69.8427 179.00
70.147 196.00
70.4512 218.00
70.7555 225.00
71.0598 188.00
71.364 211.00
71.6683 224.00
71.9725 206.00
72.2768 189.00
72.5811 194.00
72.8853 192.00
73.1896 206.00
73.4938 186.00
73.7981 210.00
74.1024 227.00
74.4066 291.00
74.7109 221.00
75.0151 235.00
75.3194 237.00
75.6237 218.00
75.9279 221.00
76.2322 266.00
76.5364 191.00
76.8407 235.00
77.145 231.00
77.4492 232.00
77.7535 236.00
78.0577 227.00
78.362 245.00
78.6663 237.00
78.9705 216.00
79.2748 214.00
79.579 228.00
79.8833 191.00
80.1876 245.00
80.4918 221.00
80.7961 215.00
81.1003 244.00
81.4046 250.00
81.7089 259.00
82.0131 243.00
82.3174 219.00
82.6217 183.00
82.9259 217.00
83.2302 234.00
83.5344 238.00
83.8387 226.00
84.143 249.00
84.4472 228.00
84.7515 256.00
85.0557 242.00
85.36 217.00
85.6643 208.00
85.9685 226.00
86.2728 191.00
86.577 217.00
86.8813 193.00
87.1856 208.00
87.4898 193.00
87.7941 210.00
88.0983 189.00
88.4026 209.00
88.7069 203.00
89.0111 182.00
89.3154 187.00
89.6196 220.00
89.9239 190.00
90.2282 181.00
90.5324 192.00
90.8367 218.00
91.1409 204.00
91.4452 189.00
91.7495 206.00
92.0537 192.00
92.358 176.00
92.6622 231.00
92.9665 180.00
93.2708 177.00
93.575 186.00
93.8793 218.00
94.1835 201.00
94.4878 209.00
94.7921 185.00
95.0963 200.00
95.4006 219.00
95.7048 174.00
96.0091 192.00
96.3134 188.00
96.6176 176.00
96.9219 177.00
97.2261 178.00
97.5304 184.00
97.8347 194.00
98.1389 160.00
98.4432 196.00
98.7474 210.00
99.0517 173.00
99.356 172.00
99.6602 188.00
99.9645 202.00
100.095 210.00

File: NSC_163.xy
9.903433 2692.00
10.2077 2580.00
10.512 2382.00
10.8162 2297.00
11.1205 2170.00
11.4247 2140.00
11.729 2159.00
12.0333 2155.00
12.3375 2000.00
12.6418 1992.00
12.946 1821.00
13.2503 1941.00
13.5546 1763.00
13.8588 1774.00
14.1631 2022.00
14.4673 3853.00
14.7716 1769.00
15.0759 1595.00
15.3801 1629.00
15.6844 1602.00
15.9886 1650.00
16.2929 1621.00
16.5972 1565.00
16.9014 1576.00
17.2057 1531.00
17.5099 1615.00
17.8142 1496.00
18.1185 1452.00
18.4227 1471.00
18.727 1439.00
19.0312 1405.00
19.3355 1546.00
19.6398 2006.00
19.944 7898.00
20.2483 1975.00
20.5525 5229.00
20.8568 4441.00
21.1611 1496.00
21.4653 1397.00
21.7696 1402.00
22.0738 1397.00
22.3781 1326.00
22.6824 1271.00
22.9866 1323.00
23.2909 1261.00
23.5951 1713.00
23.8994 7680.00
24.2037 1500.00
24.5079 1343.00
24.8122 1228.00
25.1164 1167.00
25.4207 1148.00
25.725 1214.00
26.0292 1697.00
26.3335 2709.00
26.6378 1234.00
26.942 1185.00
27.2463 1090.00
27.5505 1106.00
27.8548 1878.00
28.1591 1290.00
28.4633 1649.00
28.7676 6252.00
29.0718 1342.00
29.3761 1101.00
29.6804 1146.00
29.9846 1039.00
30.2889 1032.00
30.5931 1025.00
30.8974 1050.00
31.2017 1210.00
31.5059 3543.00
31.8102 7376.00
32.1144 1499.00
32.4187 1006.00
32.723 1104.00
33.0272 947.00
33.3315 982.00
33.6357 1054.00
33.94 1091.00
34.2443 1275.00
34.5485 995.00
34.8528 1008.00
35.157 1130.00
35.4613 2735.00
35.7656 2680.00
36.0698 4015.00
36.3741 1286.00
36.6783 1185.00
36.9826 856.00
37.2869 878.00
37.5911 883.00
37.8954 887.00
38.1996 1051.00
38.5039 1156.00
38.8082 859.00
39.1124 905.00
39.4167 926.00
39.7209 1141.00
40.0252 1192.00
40.3295 1197.00
40.6337 803.00
40.938 835.00
41.2422 904.00
41.5465 1246.00
41.8508 1916.00
42.155 1346.00
42.4593 984.00
42.7635 937.00
43.0678 932.00
43.3721 1371.00
43.6763 1543.00
43.9806 978.00
44.2849 943.00
44.5891 942.00
44.8934 836.00
45.1976 1377.00
45.5019 2177.00
45.8062 1044.00
46.1104 933.00
46.4147 1608.00
46.7189 1533.00
47.0232 1245.00
47.3275 1270.00
47.6317 816.00
47.936 927.00
48.2402 1521.00
48.5445 2869.00
48.8488 1636.00
49.153 1170.00
49.4573 955.00
49.7615 741.00
50.0658 826.00
50.3701 814.00
50.6743 757.00
50.9786 914.00
51.2828 1013.00
51.5871 1504.00
51.8914 2160.00
52.1956 1503.00
52.4999 1043.00
52.8041 824.00
53.1084 835.00
53.4127 865.00
53.7169 848.00
54.0212 849.00
54.3254 859.00
54.6297 1181.00
54.934 1743.00
55.2382 1075.00
55.5425 1423.00
55.8467 2630.00
56.151 2501.00
56.4553 1108.00
56.7595 801.00
57.0638 888.00
57.368 996.00
57.6723 893.00
57.9766 771.00
58.2808 886.00
58.5851 1027.00
58.8893 1391.00
59.1936 1256.00
59.4979 907.00
59.8021 774.00
60.1064 1019.00
60.4106 1362.00
60.7149 1497.00
61.0192 907.00
61.3234 1132.00
61.6277 1716.00
61.932 1528.00
62.2362 901.00
62.5405 988.00
62.8447 1184.00
63.149 1312.00
63.4533 1012.00
63.7575 985.00
64.0618 1288.00
64.366 1477.00
64.6703 1234.00
64.9745 881.00
65.2788 725.00
65.5831 871.00
65.8873 1027.00
66.1916 1118.00
66.4959 1071.00
66.8001 1124.00
67.1044 1211.00
67.4086 884.00
67.7129 954.00
68.0172 1181.00
68.3214 1137.00
68.6257 1014.00
68.9299 860.00
69.2342 837.00
69.5385 1041.00
69.8427 1037.00
70.147 852.00
70.4512 880.00
70.7555 837.00
71.0598 725.00
71.364 923.00
71.6683 1160.00
71.9725 1068.00
72.2768 844.00
72.5811 703.00
72.8853 758.00
73.1896 710.00
73.4938 782.00
73.7981 779.00
74.1024 870.00
74.4066 1033.00
74.7109 1019.00
75.0151 899.00
75.3194 970.00
75.6237 1083.00
75.9279 1167.00
76.2322 1001.00
76.5364 861.00
76.8407 758.00
77.145 759.00
77.4492 801.00
77.7535 841.00
78.0577 790.00
78.362 801.00
78.6663 777.00
78.9705 933.00
79.2748 1143.00
79.579 1148.00
79.8833 978.00
80.1876 813.00
80.4918 757.00
80.7961 762.00
81.1003 869.00
81.4046 855.00
81.7089 939.00
82.0131 1001.00
82.3174 809.00
82.6217 744.00
82.9259 732.00
83.2302 761.00
83.5344 813.00
83.8387 814.00
84.143 937.00
84.4472 990.00
84.7515 909.00
85.0557 764.00
85.36 810.00
85.6643 901.00
85.9685 939.00
86.2728 893.00
86.577 895.00
86.8813 899.00
87.1856 841.00
87.4898 833.00
87.7941 784.00
88.0983 751.00
88.4026 732.00
88.7069 806.00
89.0111 852.00
89.3154 888.00
89.6196 794.00
89.9239 963.00
90.2282 1048.00
90.5324 1139.00
90.8367 946.00
91.1409 864.00
91.4452 770.00
91.7495 806.00
92.0537 884.00
92.358 922.00
92.6622 966.00
92.9665 933.00
93.2708 875.00
93.575 846.00
93.8793 817.00
94.1835 867.00
94.4878 826.00
94.7921 819.00
95.0963 889.00
95.4006 922.00
95.7048 946.00
96.0091 913.00
96.3134 949.00
96.6176 934.00
96.9219 938.00
97.2261 972.00
97.5304 874.00
97.8347 846.00
98.1389 845.00
98.4432 709.00
98.7474 770.00
99.0517 735.00
99.356 795.00
99.6602 834.00
99.9645 898.00
100.095 900.00

File: NSC_164.xy
9.903433 2551.00
10.2077 2454.00
10.512 2501.00
10.8162 2362.00
11.1205 2227.00
11.4247 2219.00
11.729 2112.00
12.0333 1993.00
12.3375 1996.00
12.6418 1936.00
12.946 1815.00
13.2503 1788.00
13.5546 1760.00
13.8588 1719.00
14.1631 1703.00
14.4673 1942.00
14.7716 3256.00
15.0759 1699.00
15.3801 1738.00
15.6844 1584.00
15.9886 1552.00
16.2929 1576.00
16.5972 1560.00
16.9014 1493.00
17.2057 1452.00
17.5099 1478.00
17.8142 1386.00
18.1185 1485.00
18.4227 1487.00
18.727 1413.00
19.0312 1389.00
19.3355 1429.00
19.6398 1399.00
19.944 1739.00
20.2483 6465.00
20.5525 2032.00
20.8568 3252.00
21.1611 8102.00
21.4653 1578.00
21.7696 1492.00
22.0738 1402.00
22.3781 1266.00
22.6824 1278.00
22.9866 1297.00
23.2909 1220.00
23.5951 1319.00
23.8994 1530.00
24.2037 5258.00
24.5079 4626.00
24.8122 1408.00
25.1164 1318.00
25.4207 1291.00
25.725 1296.00
26.0292 1548.00
26.3335 3011.00
26.6378 1276.00
26.942 1184.00
27.2463 1131.00
27.5505 1103.00
27.8548 1091.00
28.1591 1117.00
28.4633 1147.00
28.7676 1183.00
29.0718 2233.00
29.3761 5360.00
29.6804 1272.00
29.9846 1114.00
30.2889 1063.00
30.5931 1083.00
30.8974 1033.00
31.2017 1056.00
31.5059 1121.00
31.8102 1271.00
32.1144 3942.00
32.4187 6997.00
32.723 1790.00
33.0272 1063.00
33.3315 1052.00
33.6357 1034.00
33.94 974.00
34.2443 1050.00
34.5485 1006.00
34.8528 1217.00
35.157 997.00
35.4613 966.00
35.7656 1005.00
36.0698 1769.00
36.3741 2480.00
36.6783 3947.00
36.9826 1421.00
37.2869 922.00
37.5911 923.00
37.8954 915.00
38.1996 949.00
38.5039 1130.00
38.8082 838.00
39.1124 831.00
39.4167 896.00
39.7209 1107.00
40.0252 856.00
40.3295 830.00
40.6337 960.00
40.938 1304.00
41.2422 901.00
41.5465 843.00
41.8508 859.00
42.155 1182.00
42.4593 1351.00
42.7635 1346.00
43.0678 925.00
43.3721 942.00
43.6763 856.00
43.9806 928.00
44.2849 1530.00
44.5891 1275.00
44.8934 942.00
45.1976 997.00
45.5019 884.00
45.8062 846.00
46.1104 1338.00
46.4147 2132.00
46.7189 1083.00
47.0232 886.00
47.3275 1489.00
47.6317 1356.00
47.936 1200.00
48.2402 1202.00
48.5445 953.00
48.8488 1058.00
49.153 1325.00
49.4573 2723.00
49.7615 1827.00
50.0658 1084.00
50.3701 1027.00
50.6743 891.00
50.9786 787.00
51.2828 783.00
51.5871 772.00
51.8914 766.00
52.1956 771.00
52.4999 1001.00
52.8041 1877.00
53.1084 1760.00
53.4127 1273.00
53.7169 972.00
54.0212 811.00
54.3254 742.00
54.6297 718.00
54.934 743.00
55.2382 742.00
55.5425 873.00
55.8467 1219.00
56.151 1196.00
56.4553 960.00
56.7595 1468.00
57.0638 2236.00
57.368 2083.00
57.6723 1076.00
57.9766 822.00
58.2808 818.00
58.5851 956.00
58.8893 1010.00
59.1936 975.00
59.4979 879.00
59.8021 1004.00
60.1064 1081.00
60.4106 1072.00
60.7149 810.00
61.0192 756.00
61.3234 894.00
61.6277 1325.00
61.932 1429.00
62.2362 980.00
62.5405 915.00
62.8447 1517.00
63.149 1413.00
63.4533 934.00
63.7575 908.00
64.0618 1172.00
64.366 1095.00
64.6703 949.00
64.9745 862.00
65.2788 1020.00
65.5831 1222.00
65.8873 1345.00
66.1916 1130.00
66.4959 855.00
66.8001 824.00
67.1044 934.00
67.4086 914.00
67.7129 815.00
68.0172 966.00
68.3214 1146.00
68.6257 813.00
68.9299 792.00
69.2342 825.00
69.5385 923.00
69.8427 948.00
70.147 876.00
70.4512 800.00
70.7555 816.00
71.0598 837.00
71.364 887.00
71.6683 739.00
71.9725 731.00
72.2768 673.00
72.5811 696.00
72.8853 845.00
73.1896 1023.00
73.4938 1085.00
73.7981 842.00
74.1024 801.00
74.4066 774.00
74.7109 706.00
75.0151 673.00
75.3194 708.00
75.6237 720.00
75.9279 969.00
76.2322 928.00
76.5364 826.00
76.8407 773.00
77.145 877.00
77.4492 1093.00
77.7535 1071.00
78.0577 943.00
78.362 739.00
78.6663 694.00
78.9705 727.00
79.2748 761.00
79.579 734.00
79.8833 702.00
80.1876 769.00
80.4918 717.00
80.7961 740.00
81.1003 856.00
81.4046 958.00
81.7089 786.00
82.0131 739.00
82.3174 672.00
82.6217 738.00
82.9259 688.00
83.2302 746.00
83.5344 859.00
83.8387 795.00
84.143 770.00
84.4472 674.00
84.7515 630.00
85.0557 698.00
85.36 667.00
85.6643 732.00
85.9685 814.00
86.2728 826.00
86.577 772.00
86.8813 759.00
87.1856 718.00
87.4898 781.00
87.7941 856.00
88.0983 812.00
88.4026 865.00
88.7069 824.00
89.0111 747.00
89.3154 744.00
89.6196 744.00
89.9239 717.00
90.2282 703.00
90.5324 728.00
90.8367 739.00
91.1409 724.00
91.4452 726.00
91.7495 706.00
92.0537 784.00
92.358 884.00
92.6622 938.00
92.9665 819.00
93.2708 783.00
93.575 686.00
93.8793 654.00
94.1835 767.00
94.4878 734.00
94.7921 795.00
95.0963 804.00
95.4006 719.00
95.7048 742.00
96.0091 730.00
96.3134 666.00
96.6176 704.00
96.9219 720.00
97.2261 755.00
97.5304 740.00
97.8347 817.00
98.1389 821.00
98.4432 810.00
98.7474 826.00
99.0517 766.00
99.356 770.00
99.6602 748.00
99.9645 798.00
100.095 798.00

File: NSC_165.xy
9.903433 2574.00
10.2077 2422.00
10.512 2249.00
10.8162 2236.00
11.1205 2159.00
11.4247 2018.00
11.729 1921.00
12.0333 1868.00
12.3375 1754.00
12.6418 1653.00
12.946 1602.00
13.2503 1591.00
13.5546 1534.00
13.8588 1537.00
14.1631 1383.00
14.4673 1385.00
14.7716 1321.00
15.0759 1314.00
15.3801 1264.00
15.6844 1310.00
15.9886 1225.00
16.2929 1200.00
16.5972 1187.00
16.9014 1248.00
17.2057 1188.00
17.5099 1090.00
17.8142 1147.00
18.1185 1109.00
18.4227 1055.00
18.727 1081.00
19.0312 1017.00
19.3355 980.00
19.6398 942.00
19.944 908.00
20.2483 890.00
20.5525 864.00
20.8568 873.00
21.1611 808.00
21.4653 833.00
21.7696 809.00
22.0738 852.00
22.3781 812.00
22.6824 798.00
22.9866 789.00
23.2909 750.00
23.5951 740.00
23.8994 742.00
24.2037 746.00
24.5079 744.00
24.8122 649.00
25.1164 661.00
25.4207 651.00
25.725 680.00
26.0292 643.00
26.3335 630.00
26.6378 716.00
26.942 679.00
27.2463 635.00
27.5505 610.00
27.8548 648.00
28.1591 645.00
28.4633 606.00
28.7676 595.00
29.0718 573.00
29.3761 546.00
29.6804 620.00
29.9846 560.00
30.2889 541.00
30.5931 530.00
30.8974 537.00
31.2017 507.00
31.5059 496.00
31.8102 514.00
32.1144 497.00
32.4187 448.00
32.723 465.00
33.0272 463.00
33.3315 454.00
33.6357 490.00
33.94 487.00
34.2443 405.00
34.5485 390.00
34.8528 390.00
35.157 439.00
35.4613 418.00
35.7656 412.00
36.0698 408.00
36.3741 414.00
36.6783 373.00
36.9826 406.00
37.2869 352.00
37.5911 365.00
37.8954 395.00
38.1996 379.00
38.5039 392.00
38.8082 366.00
39.1124 378.00
39.4167 349.00
39.7209 352.00
40.0252 345.00
40.3295 342.00
40.6337 337.00
40.938 353.00
41.2422 353.00
41.5465 340.00
41.8508 336.00
42.155 312.00
42.4593 323.00
42.7635 343.00
43.0678 366.00
43.3721 331.00
43.6763 318.00
43.9806 300.00
44.2849 299.00
44.5891 306.00
44.8934 300.00
45.1976 281.00
45.5019 278.00
45.8062 289.00
46.1104 297.00
46.4147 302.00
46.7189 285.00
47.0232 268.00
47.3275 277.00
47.6317 302.00
47.936 279.00
48.2402 295.00
48.5445 289.00
48.8488 266.00
49.153 260.00
49.4573 285.00
49.7615 270.00
50.0658 263.00
50.3701 248.00
50.6743 262.00
50.9786 234.00
51.2828 266.00
51.5871 246.00
51.8914 237.00
52.1956 269.00
52.4999 241.00
52.8041 248.00
53.1084 239.00
53.4127 238.00
53.7169 265.00
54.0212 218.00
54.3254 264.00
54.6297 240.00
54.934 234.00
55.2382 222.00
55.5425 259.00
55.8467 227.00
56.151 213.00
56.4553 200.00
56.7595 215.00
57.0638 211.00
57.368 215.00
57.6723 216.00
57.9766 237.00
58.2808 223.00
58.5851 203.00
58.8893 202.00
59.1936 213.00
59.4979 236.00
59.8021 218.00
60.1064 220.00
60.4106 210.00
60.7149 216.00
61.0192 207.00
61.3234 194.00
61.6277 208.00
61.932 194.00
62.2362 198.00
62.5405 230.00
62.8447 186.00
63.149 183.00
63.4533 201.00
63.7575 182.00
64.0618 195.00
64.366 229.00
64.6703 180.00
64.9745 206.00
65.2788 186.00
65.5831 205.00
65.8873 170.00
66.1916 181.00
66.4959 182.00
66.8001 169.00
67.1044 182.00
67.4086 203.00
67.7129 176.00
68.0172 211.00
68.3214 191.00
68.6257 182.00
68.9299 163.00
69.2342 192.00
69.5385 165.00
69.8427 184.00
70.147 151.00
70.4512 180.00
70.7555 162.00
71.0598 171.00
71.364 180.00
71.6683 196.00
71.9725 184.00
72.2768 177.00
72.5811 226.00
72.8853 183.00
73.1896 215.00
73.4938 204.00
73.7981 215.00
74.1024 178.00
74.4066 192.00
74.7109 200.00
75.0151 202.00
75.3194 195.00
75.6237 188.00
75.9279 187.00
76.2322 230.00
76.5364 183.00
76.8407 203.00
77.145 190.00
77.4492 186.00
77.7535 224.00
78.0577 216.00
78.362 216.00
78.6663 216.00
78.9705 199.00
79.2748 206.00
79.579 215.00
79.8833 210.00
80.1876 216.00
80.4918 219.00
80.7961 241.00
81.1003 227.00
81.4046 205.00
81.7089 222.00
82.0131 222.00
82.3174 239.00
82.6217 205.00
82.9259 214.00
83.2302 206.00
83.5344 219.00
83.8387 240.00
84.143 237.00
84.4472 220.00
84.7515 201.00
85.0557 211.00
85.36 210.00
85.6643 186.00
85.9685 182.00
86.2728 246.00
86.577 209.00
86.8813 188.00
87.1856 223.00
87.4898 179.00
87.7941 179.00
88.0983 173.00
88.4026 208.00
88.7069 176.00
89.0111 183.00
89.3154 226.00
89.6196 173.00
89.9239 178.00
90.2282 189.00
90.5324 193.00
90.8367 183.00
91.1409 173.00
91.4452 180.00
91.7495 195.00
92.0537 168.00
92.358 178.00
92.6622 204.00
92.9665 188.00
93.2708 170.00
93.575 183.00
93.8793 166.00
94.1835 198.00
94.4878 187.00
94.7921 156.00
95.0963 181.00
95.4006 185.00
95.7048 190.00
96.0091 194.00
96.3134 194.00
96.6176 181.00
96.9219 201.00
97.2261 212.00
97.5304 195.00
97.8347 176.00
98.1389 180.00
98.4432 182.00
98.7474 160.00
99.0517 168.00
99.356 175.00
99.6602 178.00
99.9645 150.00
100.095 174.00