Folder: alab-pipeline/data/xrd_creation/results (part 23)

File: Na_139.xy
9.903433 2661.00
10.2077 2505.00
10.512 2534.00
10.8162 2447.00
11.1205 2385.00
11.4247 2217.00
11.729 2167.00
12.0333 2123.00
12.3375 1944.00
12.6418 1915.00
12.946 1917.00
13.2503 1876.00
13.5546 1880.00
13.8588 1774.00
14.1631 1784.00
14.4673 1682.00
14.7716 1754.00
15.0759 1659.00
15.3801 1722.00
15.6844 1645.00
15.9886 1527.00
16.2929 1562.00
16.5972 1549.00
16.9014 1597.00
17.2057 1505.00
17.5099 1505.00
17.8142 1537.00
18.1185 1470.00
18.4227 1381.00
18.727 1404.00
19.0312 1449.00
19.3355 1417.00
19.6398 1339.00
19.944 1314.00
20.2483 1269.00
20.5525 1235.00
20.8568 1224.00
21.1611 1212.00
21.4653 1264.00
21.7696 1198.00
22.0738 1253.00
22.3781 1355.00
22.6824 1413.00
22.9866 1322.00
23.2909 1056.00
23.5951 1140.00
23.8994 1133.00
24.2037 1035.00
24.5079 1064.00
24.8122 1060.00
25.1164 1042.00
25.4207 1056.00
25.725 1021.00
26.0292 1138.00
26.3335 1239.00
26.6378 2507.00
26.942 9399.00
27.2463 1474.00
27.5505 1014.00
27.8548 1047.00
28.1591 935.00
28.4633 934.00
28.7676 845.00
29.0718 882.00
29.3761 862.00
29.6804 866.00
29.9846 827.00
30.2889 767.00
30.5931 802.00
30.8974 796.00
31.2017 763.00
31.5059 827.00
31.8102 826.00
32.1144 827.00
32.4187 770.00
32.723 779.00
33.0272 727.00
33.3315 775.00
33.6357 1022.00
33.94 2212.00
34.2443 7629.00
34.5485 1177.00
34.8528 789.00
35.157 705.00
35.4613 713.00
35.7656 667.00
36.0698 617.00
36.3741 645.00
36.6783 660.00
36.9826 739.00
37.2869 704.00
37.5911 757.00
37.8954 896.00
38.1996 3006.00
38.5039 974.00
38.8082 647.00
39.1124 758.00
39.4167 829.00
39.7209 622.00
40.0252 581.00
40.3295 543.00
40.6337 500.00
40.938 547.00
41.2422 566.00
41.5465 550.00
41.8508 510.00
42.155 530.00
42.4593 477.00
42.7635 486.00
43.0678 583.00
43.3721 493.00
43.6763 463.00
43.9806 487.00
44.2849 475.00
44.5891 462.00
44.8934 472.00
45.1976 494.00
45.5019 514.00
45.8062 494.00
46.1104 459.00
46.4147 467.00
46.7189 445.00
47.0232 402.00
47.3275 483.00
47.6317 419.00
47.936 453.00
48.2402 412.00
48.5445 453.00
48.8488 442.00
49.153 442.00
49.4573 472.00
49.7615 498.00
50.0658 478.00
50.3701 512.00
50.6743 499.00
50.9786 523.00
51.2828 570.00
51.5871 801.00
51.8914 2904.00
52.1956 5365.00
52.4999 841.00
52.8041 555.00
53.1084 526.00
53.4127 480.00
53.7169 460.00
54.0212 487.00
54.3254 463.00
54.6297 547.00
54.934 1592.00
55.2382 1202.00
55.5425 478.00
55.8467 437.00
56.151 430.00
56.4553 437.00
56.7595 486.00
57.0638 449.00
57.368 387.00
57.6723 432.00
57.9766 891.00
58.2808 862.00
58.5851 463.00
58.8893 439.00
59.1936 442.00
59.4979 381.00
59.8021 415.00
60.1064 418.00
60.4106 461.00
60.7149 443.00
61.0192 437.00
61.3234 419.00
61.6277 455.00
61.932 697.00
62.2362 1598.00
62.5405 635.00
62.8447 445.00
63.149 399.00
63.4533 399.00
63.7575 416.00
64.0618 412.00
64.366 429.00
64.6703 568.00
64.9745 1955.00
65.2788 815.00
65.5831 477.00
65.8873 648.00
66.1916 2379.00
66.4959 1042.00
66.8001 482.00
67.1044 400.00
67.4086 326.00
67.7129 360.00
68.0172 340.00
68.3214 377.00
68.6257 359.00
68.9299 372.00
69.2342 339.00
69.5385 337.00
69.8427 372.00
70.147 350.00
70.4512 367.00
70.7555 348.00
71.0598 409.00
71.364 643.00
71.6683 900.00
71.9725 431.00
72.2768 347.00
72.5811 350.00
72.8853 341.00
73.1896 356.00
73.4938 333.00
73.7981 340.00
74.1024 299.00
74.4066 339.00
74.7109 349.00
75.0151 316.00
75.3194 316.00
75.6237 336.00
75.9279 314.00
76.2322 320.00
76.5364 281.00
76.8407 334.00
77.145 293.00
77.4492 337.00
77.7535 303.00
78.0577 341.00
78.362 374.00
78.6663 482.00
78.9705 1613.00
79.2748 765.00
79.579 386.00
79.8833 326.00
80.1876 321.00
80.4918 341.00
80.7961 333.00
81.1003 384.00
81.4046 666.00
81.7089 461.00
82.0131 306.00
82.3174 331.00
82.6217 327.00
82.9259 321.00
83.2302 298.00
83.5344 366.00
83.8387 925.00
84.143 915.00
84.4472 395.00
84.7515 338.00
85.0557 307.00
85.36 301.00
85.6643 326.00
85.9685 288.00
86.2728 324.00
86.577 313.00
86.8813 306.00
87.1856 345.00
87.4898 733.00
87.7941 462.00
88.0983 324.00
88.4026 311.00
88.7069 333.00
89.0111 362.00
89.3154 353.00
89.6196 432.00
89.9239 1211.00
90.2282 1041.00
90.5324 526.00
90.8367 554.00
91.1409 1342.00
91.4452 850.00
91.7495 391.00
92.0537 331.00
92.358 316.00
92.6622 342.00
92.9665 365.00
93.2708 427.00
93.575 706.00
93.8793 524.00
94.1835 347.00
94.4878 334.00
94.7921 304.00
95.0963 355.00
95.4006 314.00
95.7048 358.00
96.0091 451.00
96.3134 620.00
96.6176 472.00
96.9219 330.00
97.2261 343.00
97.5304 310.00
97.8347 285.00
98.1389 335.00
98.4432 321.00
98.7474 307.00
99.0517 346.00
99.356 300.00
99.6602 286.00
99.9645 311.00
100.095 289.00

File: Na_140.xy
9.903433 2694.00
10.2077 2563.00
10.512 2506.00
10.8162 2305.00
11.1205 2201.00
11.4247 2211.00
11.729 2145.00
12.0333 2029.00
12.3375 2025.00
12.6418 1892.00
12.946 1905.00
13.2503 1759.00
13.5546 1753.00
13.8588 1795.00
14.1631 1698.00
14.4673 1754.00
14.7716 1670.00
15.0759 1617.00
15.3801 1614.00
15.6844 1648.00
15.9886 1598.00
16.2929 1617.00
16.5972 1510.00
16.9014 1460.00
17.2057 1448.00
17.5099 1434.00
17.8142 1460.00
18.1185 1350.00
18.4227 1334.00
18.727 1438.00
19.0312 1412.00
19.3355 1338.00
19.6398 1370.00
19.944 1309.00
20.2483 1263.00
20.5525 1236.00
20.8568 1191.00
21.1611 1169.00
21.4653 1168.00
21.7696 1232.00
22.0738 1216.00
22.3781 1400.00
22.6824 1369.00
22.9866 1201.00
23.2909 1121.00
23.5951 1107.00
23.8994 1050.00
24.2037 1106.00
24.5079 1100.00
24.8122 1047.00
25.1164 986.00
25.4207 1029.00
25.725 1035.00
26.0292 1062.00
26.3335 1160.00
26.6378 2285.00
26.942 9223.00
27.2463 1416.00
27.5505 1018.00
27.8548 1005.00
28.1591 951.00
28.4633 916.00
28.7676 827.00
29.0718 849.00
29.3761 890.00
29.6804 834.00
29.9846 780.00
30.2889 814.00
30.5931 801.00
30.8974 771.00
31.2017 743.00
31.5059 803.00
31.8102 812.00
32.1144 810.00
32.4187 776.00
32.723 710.00
33.0272 811.00
33.3315 814.00
33.6357 895.00
33.94 1967.00
34.2443 7571.00
34.5485 1131.00
34.8528 796.00
35.157 698.00
35.4613 666.00
35.7656 681.00
36.0698 663.00
36.3741 628.00
36.6783 615.00
36.9826 646.00
37.2869 694.00
37.5911 750.00
37.8954 802.00
38.1996 2430.00
38.5039 950.00
38.8082 577.00
39.1124 676.00
39.4167 880.00
39.7209 595.00
40.0252 570.00
40.3295 557.00
40.6337 533.00
40.938 517.00
41.2422 525.00
41.5465 513.00
41.8508 502.00
42.155 494.00
42.4593 525.00
42.7635 536.00
43.0678 536.00
43.3721 477.00
43.6763 434.00
43.9806 465.00
44.2849 507.00
44.5891 472.00
44.8934 456.00
45.1976 448.00
45.5019 458.00
45.8062 448.00
46.1104 449.00
46.4147 470.00
46.7189 501.00
47.0232 448.00
47.3275 467.00
47.6317 396.00
47.936 457.00
48.2402 481.00
48.5445 443.00
48.8488 419.00
49.153 410.00
49.4573 472.00
49.7615 439.00
50.0658 459.00
50.3701 497.00
50.6743 522.00
50.9786 511.00
51.2828 535.00
51.5871 772.00
51.8914 2328.00
52.1956 5358.00
52.4999 854.00
52.8041 548.00
53.1084 553.00
53.4127 461.00
53.7169 421.00
54.0212 386.00
54.3254 452.00
54.6297 484.00
54.934 1260.00
55.2382 1197.00
55.5425 484.00
55.8467 405.00
56.151 428.00
56.4553 431.00
56.7595 460.00
57.0638 402.00
57.368 432.00
57.6723 452.00
57.9766 756.00
58.2808 863.00
58.5851 456.00
58.8893 430.00
59.1936 431.00
59.4979 403.00
59.8021 409.00
60.1064 388.00
60.4106 455.00
60.7149 462.00
61.0192 456.00
61.3234 430.00
61.6277 435.00
61.932 661.00
62.2362 1680.00
62.5405 586.00
62.8447 449.00
63.149 379.00
63.4533 397.00
63.7575 345.00
64.0618 379.00
64.366 414.00
64.6703 547.00
64.9745 1860.00
65.2788 890.00
65.5831 504.00
65.8873 537.00
66.1916 2109.00
66.4959 1073.00
66.8001 466.00
67.1044 369.00
67.4086 373.00
67.7129 337.00
68.0172 347.00
68.3214 338.00
68.6257 350.00
68.9299 384.00
69.2342 366.00
69.5385 379.00
69.8427 374.00
70.147 337.00
70.4512 345.00
70.7555 328.00
71.0598 412.00
71.364 610.00
71.6683 886.00
71.9725 432.00
72.2768 337.00
72.5811 357.00
72.8853 284.00
73.1896 337.00
73.4938 332.00
73.7981 308.00
74.1024 330.00
74.4066 326.00
74.7109 322.00
75.0151 340.00
75.3194 321.00
75.6237 287.00
75.9279 333.00
76.2322 305.00
76.5364 322.00
76.8407 327.00
77.145 286.00
77.4492 311.00
77.7535 304.00
78.0577 311.00
78.362 334.00
78.6663 483.00
78.9705 1495.00
79.2748 796.00
79.579 405.00
79.8833 321.00
80.1876 307.00
80.4918 334.00
80.7961 315.00
81.1003 363.00
81.4046 617.00
81.7089 416.00
82.0131 347.00
82.3174 328.00
82.6217 294.00
82.9259 323.00
83.2302 337.00
83.5344 361.00
83.8387 761.00
84.143 862.00
84.4472 436.00
84.7515 332.00
85.0557 314.00
85.36 285.00
85.6643 286.00
85.9685 317.00
86.2728 271.00
86.577 313.00
86.8813 305.00
87.1856 386.00
87.4898 705.00
87.7941 529.00
88.0983 387.00
88.4026 315.00
88.7069 327.00
89.0111 314.00
89.3154 366.00
89.6196 409.00
89.9239 1070.00
90.2282 946.00
90.5324 492.00
90.8367 570.00
91.1409 1299.00
91.4452 915.00
91.7495 368.00
92.0537 341.00
92.358 346.00
92.6622 350.00
92.9665 349.00
93.2708 473.00
93.575 722.00
93.8793 538.00
94.1835 378.00
94.4878 316.00
94.7921 303.00
95.0963 265.00
95.4006 338.00
95.7048 340.00
96.0091 454.00
96.3134 639.00
96.6176 482.00
96.9219 309.00
97.2261 317.00
97.5304 288.00
97.8347 334.00
98.1389 304.00
98.4432 291.00
98.7474 282.00
99.0517 304.00
99.356 304.00
99.6602 299.00
99.9645 293.00
100.095 299.00

File: Na_141.xy
9.903433 2710.00
10.2077 2650.00
10.512 2520.00
10.8162 2432.00
11.1205 2332.00
11.4247 2224.00
11.729 2151.00
12.0333 2083.00
12.3375 2031.00
12.6418 2017.00
12.946 1898.00
13.2503 1885.00
13.5546 1804.00
13.8588 1750.00
14.1631 1724.00
14.4673 1750.00
14.7716 1647.00
15.0759 1636.00
15.3801 1685.00
15.6844 1644.00
15.9886 1613.00
16.2929 1588.00
16.5972 1551.00
16.9014 1602.00
17.2057 1574.00
17.5099 1469.00
17.8142 1512.00
18.1185 1506.00
18.4227 1482.00
18.727 1571.00
19.0312 1539.00
19.3355 1802.00
19.6398 2987.00
19.944 1523.00
20.2483 1476.00
20.5525 1509.00
20.8568 1493.00
21.1611 1560.00
21.4653 1453.00
21.7696 1448.00
22.0738 1602.00
22.3781 2113.00
22.6824 5142.00
22.9866 1628.00
23.2909 1474.00
23.5951 1406.00
23.8994 1440.00
24.2037 1566.00
24.5079 1508.00
24.8122 1410.00
25.1164 1664.00
25.4207 2143.00
25.725 1374.00
26.0292 1363.00
26.3335 1352.00
26.6378 1313.00
26.942 1318.00
27.2463 1387.00
27.5505 1481.00
27.8548 2021.00
28.1591 1232.00
28.4633 1228.00
28.7676 1247.00
29.0718 1124.00
29.3761 1186.00
29.6804 1112.00
29.9846 1163.00
30.2889 1152.00
30.5931 1078.00
30.8974 1083.00
31.2017 1069.00
31.5059 1034.00
31.8102 1132.00
32.1144 2307.00
32.4187 1095.00
32.723 993.00
33.0272 978.00
33.3315 969.00
33.6357 901.00
33.94 920.00
34.2443 1040.00
34.5485 971.00
34.8528 894.00
35.157 931.00
35.4613 851.00
35.7656 810.00
36.0698 811.00
36.3741 863.00
36.6783 879.00
36.9826 889.00
37.2869 899.00
37.5911 1153.00
37.8954 2616.00
38.1996 880.00
38.5039 817.00
38.8082 811.00
39.1124 782.00
39.4167 1047.00
39.7209 958.00
40.0252 789.00
40.3295 766.00
40.6337 722.00
40.938 759.00
41.2422 862.00
41.5465 717.00
41.8508 787.00
42.155 778.00
42.4593 690.00
42.7635 727.00
43.0678 739.00
43.3721 787.00
43.6763 813.00
43.9806 763.00
44.2849 714.00
44.5891 721.00
44.8934 729.00
45.1976 728.00
45.5019 659.00
45.8062 781.00
46.1104 778.00
46.4147 722.00
46.7189 711.00
47.0232 680.00
47.3275 752.00
47.6317 737.00
47.936 658.00
48.2402 680.00
48.5445 673.00
48.8488 728.00
49.153 708.00
49.4573 697.00
49.7615 647.00
50.0658 785.00
50.3701 1210.00
50.6743 773.00
50.9786 647.00
51.2828 746.00
51.5871 1178.00
51.8914 1132.00
52.1956 650.00
52.4999 619.00
52.8041 651.00
53.1084 712.00
53.4127 592.00
53.7169 641.00
54.0212 633.00
54.3254 640.00
54.6297 640.00
54.934 737.00
55.2382 713.00
55.5425 611.00
55.8467 614.00
56.151 595.00
56.4553 623.00
56.7595 721.00
57.0638 1135.00
57.368 731.00
57.6723 571.00
57.9766 590.00
58.2808 621.00
58.5851 517.00
58.8893 579.00
59.1936 522.00
59.4979 588.00
59.8021 600.00
60.1064 579.00
60.4106 686.00
60.7149 1220.00
61.0192 1025.00
61.3234 679.00
61.6277 562.00
61.932 653.00
62.2362 641.00
62.5405 582.00
62.8447 528.00
63.149 619.00
63.4533 620.00
63.7575 514.00
64.0618 479.00
64.366 551.00
64.6703 537.00
64.9745 559.00
65.2788 567.00
65.5831 533.00
65.8873 483.00
66.1916 529.00
66.4959 556.00
66.8001 735.00
67.1044 646.00
67.4086 532.00
67.7129 489.00
68.0172 509.00
68.3214 541.00
68.6257 507.00
68.9299 584.00
69.2342 507.00
69.5385 516.00
69.8427 492.00
70.147 632.00
70.4512 681.00
70.7555 547.00
71.0598 512.00
71.364 650.00
71.6683 594.00
71.9725 504.00
72.2768 473.00
72.5811 489.00
72.8853 481.00
73.1896 454.00
73.4938 497.00
73.7981 567.00
74.1024 473.00
74.4066 490.00
74.7109 512.00
75.0151 439.00
75.3194 455.00
75.6237 470.00
75.9279 510.00
76.2322 460.00
76.5364 448.00
76.8407 467.00
77.145 470.00
77.4492 472.00
77.7535 481.00
78.0577 413.00
78.362 401.00
78.6663 428.00
78.9705 501.00
79.2748 524.00
79.579 486.00
79.8833 455.00
80.1876 524.00
80.4918 471.00
80.7961 466.00
81.1003 427.00
81.4046 430.00
81.7089 402.00
82.0131 439.00
82.3174 413.00
82.6217 442.00
82.9259 440.00
83.2302 397.00
83.5344 447.00
83.8387 387.00
84.143 385.00
84.4472 422.00
84.7515 382.00
85.0557 392.00
85.36 413.00
85.6643 450.00
85.9685 444.00
86.2728 406.00
86.577 445.00
86.8813 442.00
87.1856 442.00
87.4898 451.00
87.7941 478.00
88.0983 467.00
88.4026 466.00
88.7069 521.00
89.0111 524.00
89.3154 477.00
89.6196 450.00
89.9239 418.00
90.2282 443.00
90.5324 411.00
90.8367 417.00
91.1409 423.00
91.4452 426.00
91.7495 444.00
92.0537 431.00
92.358 436.00
92.6622 424.00
92.9665 462.00
93.2708 506.00
93.575 526.00
93.8793 471.00
94.1835 425.00
94.4878 382.00
94.7921 415.00
95.0963 405.00
95.4006 433.00
95.7048 443.00
96.0091 429.00
96.3134 505.00
96.6176 515.00
96.9219 529.00
97.2261 457.00
97.5304 406.00
97.8347 416.00
98.1389 430.00
98.4432 435.00
98.7474 437.00
99.0517 407.00
99.356 420.00
99.6602 384.00
99.9645 410.00
100.095 405.00

File: Na_142.xy
9.903433 2762.00
10.2077 2622.00
10.512 2572.00
10.8162 2553.00
11.1205 2279.00
11.4247 2183.00
11.729 2205.00
12.0333 2081.00
12.3375 2007.00
12.6418 2046.00
12.946 1847.00
13.2503 1818.00
13.5546 1853.00
13.8588 1785.00
14.1631 1767.00
14.4673 1770.00
14.7716 1690.00
15.0759 1676.00
15.3801 1630.00
15.6844 1596.00
15.9886 1561.00
16.2929 1521.00
16.5972 1612.00
16.9014 1518.00
17.2057 1537.00
17.5099 1519.00
17.8142 1494.00
18.1185 1386.00
18.4227 1445.00
18.727 1472.00
19.0312 1579.00
19.3355 2057.00
19.6398 4971.00
19.944 1693.00
20.2483 1388.00
20.5525 1362.00
20.8568 1288.00
21.1611 1241.00
21.4653 1167.00
21.7696 1301.00
22.0738 1424.00
22.3781 2534.00
22.6824 9599.00
22.9866 1777.00
23.2909 1338.00
23.5951 1210.00
23.8994 1184.00
24.2037 1152.00
24.5079 1124.00
24.8122 1141.00
25.1164 1619.00
25.4207 2639.00
25.725 1132.00
26.0292 999.00
26.3335 951.00
26.6378 1040.00
26.942 2817.00
27.2463 1142.00
27.5505 1443.00
27.8548 2445.00
28.1591 1097.00
28.4633 985.00
28.7676 1013.00
29.0718 978.00
29.3761 896.00
29.6804 834.00
29.9846 898.00
30.2889 819.00
30.5931 835.00
30.8974 783.00
31.2017 820.00
31.5059 934.00
31.8102 1223.00
32.1144 3832.00
32.4187 1208.00
32.723 898.00
33.0272 762.00
33.3315 777.00
33.6357 792.00
33.94 993.00
34.2443 2414.00
34.5485 894.00
34.8528 756.00
35.157 730.00
35.4613 717.00
35.7656 694.00
36.0698 697.00
36.3741 653.00
36.6783 713.00
36.9826 753.00
37.2869 864.00
37.5911 1972.00
37.8954 4561.00
38.1996 1324.00
38.5039 771.00
38.8082 703.00
39.1124 722.00
39.4167 1303.00
39.7209 1199.00
40.0252 715.00
40.3295 625.00
40.6337 576.00
40.938 684.00
41.2422 808.00
41.5465 587.00
41.8508 595.00
42.155 533.00
42.4593 561.00
42.7635 615.00
43.0678 636.00
43.3721 592.00
43.6763 753.00
43.9806 620.00
44.2849 579.00
44.5891 586.00
44.8934 517.00
45.1976 582.00
45.5019 570.00
45.8062 691.00
46.1104 705.00
46.4147 554.00
46.7189 526.00
47.0232 528.00
47.3275 645.00
47.6317 625.00
47.936 565.00
48.2402 510.00
48.5445 501.00
48.8488 670.00
49.153 521.00
49.4573 597.00
49.7615 643.00
50.0658 1018.00
50.3701 1696.00
50.6743 793.00
50.9786 650.00
51.2828 831.00
51.5871 2007.00
51.8914 1549.00
52.1956 1592.00
52.4999 606.00
52.8041 572.00
53.1084 589.00
53.4127 526.00
53.7169 510.00
54.0212 554.00
54.3254 613.00
54.6297 636.00
54.934 734.00
55.2382 823.00
55.5425 582.00
55.8467 521.00
56.151 557.00
56.4553 619.00
56.7595 1009.00
57.0638 1648.00
57.368 681.00
57.6723 573.00
57.9766 545.00
58.2808 598.00
58.5851 482.00
58.8893 495.00
59.1936 450.00
59.4979 485.00
59.8021 479.00
60.1064 568.00
60.4106 815.00
60.7149 2004.00
61.0192 1405.00
61.3234 675.00
61.6277 623.00
61.932 573.00
62.2362 749.00
62.5405 537.00
62.8447 506.00
63.149 531.00
63.4533 505.00
63.7575 488.00
64.0618 473.00
64.366 486.00
64.6703 471.00
64.9745 671.00
65.2788 576.00
65.5831 407.00
65.8873 434.00
66.1916 741.00
66.4959 752.00
66.8001 892.00
67.1044 612.00
67.4086 505.00
67.7129 536.00
68.0172 565.00
68.3214 516.00
68.6257 453.00
68.9299 456.00
69.2342 460.00
69.5385 506.00
69.8427 489.00
70.147 863.00
70.4512 793.00
70.7555 523.00
71.0598 593.00
71.364 890.00
71.6683 727.00
71.9725 488.00
72.2768 431.00
72.5811 448.00
72.8853 454.00
73.1896 450.00
73.4938 504.00
73.7981 481.00
74.1024 422.00
74.4066 470.00
74.7109 441.00
75.0151 434.00
75.3194 419.00
75.6237 484.00
75.9279 562.00
76.2322 462.00
76.5364 421.00
76.8407 395.00
77.145 433.00
77.4492 419.00
77.7535 401.00
78.0577 405.00
78.362 401.00
78.6663 442.00
78.9705 751.00
79.2748 651.00
79.579 474.00
79.8833 499.00
80.1876 584.00
80.4918 559.00
80.7961 465.00
81.1003 389.00
81.4046 472.00
81.7089 430.00
82.0131 344.00
82.3174 363.00
82.6217 367.00
82.9259 380.00
83.2302 400.00
83.5344 382.00
83.8387 457.00
84.143 452.00
84.4472 377.00
84.7515 366.00
85.0557 391.00
85.36 409.00
85.6643 415.00
85.9685 414.00
86.2728 391.00
86.577 410.00
86.8813 429.00
87.1856 415.00
87.4898 531.00
87.7941 588.00
88.0983 527.00
88.4026 482.00
88.7069 581.00
89.0111 606.00
89.3154 510.00
89.6196 419.00
89.9239 479.00
90.2282 461.00
90.5324 419.00
90.8367 455.00
91.1409 583.00
91.4452 579.00
91.7495 476.00
92.0537 386.00
92.358 403.00
92.6622 404.00
92.9665 542.00
93.2708 658.00
93.575 560.00
93.8793 459.00
94.1835 388.00
94.4878 373.00
94.7921 367.00
95.0963 410.00
95.4006 397.00
95.7048 438.00
96.0091 470.00
96.3134 693.00
96.6176 735.00
96.9219 571.00
97.2261 459.00
97.5304 444.00
97.8347 446.00
98.1389 438.00
98.4432 434.00
98.7474 402.00
99.0517 402.00
99.356 348.00
99.6602 400.00
99.9645 362.00
100.095 401.00

File: Na_185.xy
9.903433 2730.00
10.2077 2697.00
10.512 2644.00
10.8162 2533.00
11.1205 2525.00
11.4247 3421.00
11.729 9713.00
12.0333 2682.00
12.3375 2138.00
12.6418 2235.00
12.946 2159.00
13.2503 2038.00
13.5546 1969.00
13.8588 2031.00
14.1631 1833.00
14.4673 1886.00
14.7716 1914.00
15.0759 2414.00
15.3801 1777.00
15.6844 1731.00
15.9886 1871.00
16.2929 2110.00
16.5972 5376.00
16.9014 1733.00
17.2057 1763.00
17.5099 1714.00
17.8142 1705.00
18.1185 2671.00
18.4227 2227.00
18.727 1586.00
19.0312 1490.00
19.3355 1421.00
19.6398 1513.00
19.944 1429.00
20.2483 1404.00
20.5525 1392.00
20.8568 1393.00
21.1611 1552.00
21.4653 1324.00
21.7696 1300.00
22.0738 1223.00
22.3781 1206.00
22.6824 1182.00
22.9866 1257.00
23.2909 1224.00
23.5951 1355.00
23.8994 1168.00
24.2037 1268.00
24.5079 1961.00
24.8122 2635.00
25.1164 1307.00
25.4207 1298.00
25.725 1419.00
26.0292 2970.00
26.3335 6587.00
26.6378 1530.00
26.942 3439.00
27.2463 1323.00
27.5505 1433.00
27.8548 2278.00
28.1591 4497.00
28.4633 1441.00
28.7676 1177.00
29.0718 1157.00
29.3761 1011.00
29.6804 962.00
29.9846 1037.00
30.2889 1790.00
30.5931 1635.00
30.8974 970.00
31.2017 967.00
31.5059 1240.00
31.8102 1562.00
32.1144 2363.00
32.4187 964.00
32.723 1099.00
33.0272 1558.00
33.3315 7140.00
33.6357 1075.00
33.94 1267.00
34.2443 3063.00
34.5485 5404.00
34.8528 3137.00
35.157 3196.00
35.4613 982.00
35.7656 823.00
36.0698 776.00
36.3741 926.00
36.6783 848.00
36.9826 849.00
37.2869 873.00
37.5911 763.00
37.8954 969.00
38.1996 1303.00
38.5039 892.00
38.8082 758.00
39.1124 723.00
39.4167 1031.00
39.7209 770.00
40.0252 764.00
40.3295 689.00
40.6337 744.00
40.938 706.00
41.2422 798.00
41.5465 766.00
41.8508 818.00
42.155 984.00
42.4593 1486.00
42.7635 1413.00
43.0678 751.00
43.3721 676.00
43.6763 752.00
43.9806 936.00
44.2849 679.00
44.5891 728.00
44.8934 619.00
45.1976 644.00
45.5019 721.00
45.8062 972.00
46.1104 601.00
46.4147 690.00
46.7189 689.00
47.0232 814.00
47.3275 1278.00
47.6317 1505.00
47.936 2310.00
48.2402 784.00
48.5445 680.00
48.8488 875.00
49.153 738.00
49.4573 1096.00
49.7615 846.00
50.0658 1357.00
50.3701 1373.00
50.6743 1459.00
50.9786 764.00
51.2828 639.00
51.5871 814.00
51.8914 1462.00
52.1956 2174.00
52.4999 794.00
52.8041 572.00
53.1084 551.00
53.4127 987.00
53.7169 707.00
54.0212 647.00
54.3254 665.00
54.6297 756.00
54.934 773.00
55.2382 850.00
55.5425 605.00
55.8467 1001.00
56.151 622.00
56.4553 649.00
56.7595 802.00
57.0638 736.00
57.368 929.00
57.6723 886.00
57.9766 724.00
58.2808 801.00
58.5851 825.00
58.8893 1447.00
59.1936 995.00
59.4979 953.00
59.8021 1719.00
60.1064 1900.00
60.4106 1117.00
60.7149 1238.00
61.0192 666.00
61.3234 655.00
61.6277 591.00
61.932 648.00
62.2362 853.00
62.5405 820.00
62.8447 872.00
63.149 692.00
63.4533 956.00
63.7575 494.00
64.0618 601.00
64.366 594.00
64.6703 657.00
64.9745 850.00
65.2788 788.00
65.5831 592.00
65.8873 665.00
66.1916 912.00
66.4959 832.00
66.8001 565.00
67.1044 573.00
67.4086 599.00
67.7129 551.00
68.0172 526.00
68.3214 592.00
68.6257 509.00
68.9299 613.00
69.2342 628.00
69.5385 608.00
69.8427 471.00
70.147 473.00
70.4512 434.00
70.7555 489.00
71.0598 430.00
71.364 506.00
71.6683 465.00
71.9725 428.00
72.2768 458.00
72.5811 736.00
72.8853 631.00
73.1896 448.00
73.4938 401.00
73.7981 665.00
74.1024 507.00
74.4066 424.00
74.7109 444.00
75.0151 483.00
75.3194 405.00
75.6237 426.00
75.9279 502.00
76.2322 451.00
76.5364 492.00
76.8407 464.00
77.145 474.00
77.4492 457.00
77.7535 516.00
78.0577 529.00
78.362 440.00
78.6663 456.00
78.9705 566.00
79.2748 650.00
79.579 651.00
79.8833 551.00
80.1876 459.00
80.4918 412.00
80.7961 527.00
81.1003 528.00
81.4046 491.00
81.7089 478.00
82.0131 464.00
82.3174 480.00
82.6217 437.00
82.9259 401.00
83.2302 408.00
83.5344 370.00
83.8387 478.00
84.143 497.00
84.4472 418.00
84.7515 359.00
85.0557 430.00
85.36 460.00
85.6643 479.00
85.9685 441.00
86.2728 530.00
86.577 616.00
86.8813 492.00
87.1856 462.00
87.4898 537.00
87.7941 521.00
88.0983 379.00
88.4026 373.00
88.7069 431.00
89.0111 434.00
89.3154 462.00
89.6196 470.00
89.9239 538.00
90.2282 550.00
90.5324 468.00
90.8367 526.00
91.1409 568.00
91.4452 512.00
91.7495 451.00
92.0537 438.00
92.358 515.00
92.6622 413.00
92.9665 413.00
93.2708 451.00
93.575 422.00
93.8793 403.00
94.1835 400.00
94.4878 363.00
94.7921 374.00
95.0963 388.00
95.4006 394.00
95.7048 352.00
96.0091 396.00
96.3134 483.00
96.6176 473.00
96.9219 465.00
97.2261 400.00
97.5304 485.00
97.8347 551.00
98.1389 571.00
98.4432 452.00
98.7474 499.00
99.0517 466.00
99.356 432.00
99.6602 404.00
99.9645 403.00
100.095 432.00