Folder: alab-pipeline/data/xrd_creation/results (part 112)

File: PG_2744-1.xy
9.903433 2580.00
10.2077 2566.00
10.512 2591.00
10.8162 2456.00
11.1205 2337.00
11.4247 2316.00
11.729 2261.00
12.0333 2164.00
12.3375 2109.00
12.6418 2024.00
12.946 1985.00
13.2503 1829.00
13.5546 1855.00
13.8588 1797.00
14.1631 1799.00
14.4673 1755.00
14.7716 1828.00
15.0759 1775.00
15.3801 1742.00
15.6844 1728.00
15.9886 1713.00
16.2929 1631.00
16.5972 1660.00
16.9014 1627.00
17.2057 1620.00
17.5099 1559.00
17.8142 1545.00
18.1185 1573.00
18.4227 1651.00
18.727 1512.00
19.0312 1481.00
19.3355 1514.00
19.6398 1393.00
19.944 1451.00
20.2483 1408.00
20.5525 1368.00
20.8568 1353.00
21.1611 1314.00
21.4653 1347.00
21.7696 1267.00
22.0738 1308.00
22.3781 1213.00
22.6824 1287.00
22.9866 1246.00
23.2909 1235.00
23.5951 1238.00
23.8994 1180.00
24.2037 1231.00
24.5079 1220.00
24.8122 1176.00
25.1164 1163.00
25.4207 1097.00
25.725 1186.00
26.0292 1189.00
26.3335 1310.00
26.6378 1985.00
26.942 12016.00
27.2463 1457.00
27.5505 1176.00
27.8548 1109.00
28.1591 1090.00
28.4633 1035.00
28.7676 1023.00
29.0718 1174.00
29.3761 1099.00
29.6804 966.00
29.9846 959.00
30.2889 967.00
30.5931 980.00
30.8974 986.00
31.2017 961.00
31.5059 962.00
31.8102 927.00
32.1144 891.00
32.4187 1016.00
32.723 1644.00
33.0272 1040.00
33.3315 1200.00
33.6357 1083.00
33.94 1656.00
34.2443 9180.00
34.5485 1269.00
34.8528 947.00
35.157 913.00
35.4613 914.00
35.7656 887.00
36.0698 838.00
36.3741 2582.00
36.6783 996.00
36.9826 891.00
37.2869 855.00
37.5911 862.00
37.8954 919.00
38.1996 2771.00
38.5039 1144.00
38.8082 852.00
39.1124 888.00
39.4167 1051.00
39.7209 833.00
40.0252 758.00
40.3295 763.00
40.6337 739.00
40.938 776.00
41.2422 779.00
41.5465 733.00
41.8508 732.00
42.155 759.00
42.4593 685.00
42.7635 780.00
43.0678 818.00
43.3721 708.00
43.6763 737.00
43.9806 728.00
44.2849 745.00
44.5891 760.00
44.8934 845.00
45.1976 768.00
45.5019 745.00
45.8062 746.00
46.1104 714.00
46.4147 680.00
46.7189 756.00
47.0232 712.00
47.3275 720.00
47.6317 717.00
47.936 698.00
48.2402 662.00
48.5445 712.00
48.8488 686.00
49.153 718.00
49.4573 734.00
49.7615 749.00
50.0658 821.00
50.3701 745.00
50.6743 683.00
50.9786 1115.00
51.2828 782.00
51.5871 916.00
51.8914 1723.00
52.1956 5994.00
52.4999 949.00
52.8041 783.00
53.1084 703.00
53.4127 737.00
53.7169 676.00
54.0212 768.00
54.3254 814.00
54.6297 782.00
54.934 1305.00
55.2382 1555.00
55.5425 806.00
55.8467 684.00
56.151 770.00
56.4553 795.00
56.7595 679.00
57.0638 712.00
57.368 728.00
57.6723 718.00
57.9766 900.00
58.2808 1232.00
58.5851 764.00
58.8893 980.00
59.1936 753.00
59.4979 712.00
59.8021 714.00
60.1064 1729.00
60.4106 743.00
60.7149 673.00
61.0192 744.00
61.3234 701.00
61.6277 663.00
61.932 824.00
62.2362 1818.00
62.5405 773.00
62.8447 714.00
63.149 713.00
63.4533 727.00
63.7575 661.00
64.0618 694.00
64.366 716.00
64.6703 825.00
64.9745 2427.00
65.2788 1219.00
65.5831 783.00
65.8873 899.00
66.1916 2547.00
66.4959 1372.00
66.8001 761.00
67.1044 712.00
67.4086 682.00
67.7129 705.00
68.0172 710.00
68.3214 717.00
68.6257 653.00
68.9299 661.00
69.2342 688.00
69.5385 692.00
69.8427 676.00
70.147 746.00
70.4512 702.00
70.7555 628.00
71.0598 685.00
71.364 806.00
71.6683 1067.00
71.9725 720.00
72.2768 684.00
72.5811 692.00
72.8853 677.00
73.1896 664.00
73.4938 619.00
73.7981 636.00
74.1024 654.00
74.4066 866.00
74.7109 761.00
75.0151 653.00
75.3194 663.00
75.6237 684.00
75.9279 673.00
76.2322 653.00
76.5364 676.00
76.8407 734.00
77.145 667.00
77.4492 642.00
77.7535 766.00
78.0577 648.00
78.362 678.00
78.6663 706.00
78.9705 2161.00
79.2748 1068.00
79.579 704.00
79.8833 643.00
80.1876 712.00
80.4918 707.00
80.7961 714.00
81.1003 732.00
81.4046 1243.00
81.7089 811.00
82.0131 675.00
82.3174 681.00
82.6217 679.00
82.9259 683.00
83.2302 671.00
83.5344 696.00
83.8387 978.00
84.143 1118.00
84.4472 756.00
84.7515 699.00
85.0557 647.00
85.36 662.00
85.6643 719.00
85.9685 730.00
86.2728 719.00
86.577 696.00
86.8813 719.00
87.1856 731.00
87.4898 1147.00
87.7941 912.00
88.0983 732.00
88.4026 683.00
88.7069 679.00
89.0111 664.00
89.3154 738.00
89.6196 781.00
89.9239 1294.00
90.2282 1148.00
90.5324 811.00
90.8367 795.00
91.1409 1925.00
91.4452 1312.00
91.7495 727.00
92.0537 696.00
92.358 684.00
92.6622 686.00
92.9665 796.00
93.2708 776.00
93.575 1154.00
93.8793 901.00
94.1835 688.00
94.4878 676.00
94.7921 667.00
95.0963 664.00
95.4006 686.00
95.7048 697.00
96.0091 798.00
96.3134 956.00
96.6176 901.00
96.9219 735.00
97.2261 725.00
97.5304 715.00
97.8347 720.00
98.1389 659.00
98.4432 807.00
98.7474 702.00
99.0517 711.00
99.356 727.00
99.6602 635.00
99.9645 666.00
100.095 667.00

File: TRI_193.xy
10.0094 2303.00
10.3137 2278.00
10.618 2262.00
10.9222 2154.00
11.2265 2001.00
11.5307 1924.00
11.835 1819.00
12.1393 1800.00
12.4435 1726.00
12.7478 1743.00
13.052 1625.00
13.3563 1673.00
13.6606 1569.00
13.9648 1561.00
14.2691 1477.00
14.5733 1504.00
14.8776 1468.00
15.1819 1410.00
15.4861 1467.00
15.7904 1406.00
16.0946 1338.00
16.3989 1395.00
16.7032 1335.00
17.0074 1397.00
17.3117 1434.00
17.6159 1401.00
17.9202 1252.00
18.2245 1243.00
18.5287 1213.00
18.833 1201.00
19.1372 1181.00
19.4415 1173.00
19.7458 1155.00
20.05 1116.00
20.3543 1155.00
20.6585 1166.00
20.9628 1171.00
21.2671 1134.00
21.5713 1139.00
21.8756 1071.00
22.1798 1015.00
22.4841 1131.00
22.7884 1058.00
23.0926 1034.00
23.3969 1020.00
23.7011 997.00
24.0054 1007.00
24.3097 1015.00
24.6139 999.00
24.9182 1018.00
25.2224 936.00
25.5267 939.00
25.831 944.00
26.1352 960.00
26.4395 929.00
26.7438 1000.00
27.048 1016.00
27.3523 1225.00
27.6565 2962.00
27.9608 1563.00
28.2651 1152.00
28.5693 1200.00
28.8736 913.00
29.1778 1165.00
29.4821 1755.00
29.7864 955.00
30.0906 922.00
30.3949 871.00
30.6991 862.00
31.0034 909.00
31.3077 850.00
31.6119 835.00
31.9162 806.00
32.2204 767.00
32.5247 772.00
32.829 783.00
33.1332 741.00
33.4375 781.00
33.7417 911.00
34.046 998.00
34.3503 1038.00
34.6545 1123.00
34.9588 778.00
35.263 846.00
35.5673 856.00
35.8716 798.00
36.1758 790.00
36.4801 731.00
36.7843 841.00
37.0886 959.00
37.3929 985.00
37.6971 736.00
38.0014 765.00
38.3056 786.00
38.6099 761.00
38.9142 779.00
39.2184 685.00
39.5227 741.00
39.8269 732.00
40.1312 701.00
40.4355 866.00
40.7397 745.00
41.044 779.00
41.3482 747.00
41.6525 878.00
41.9568 865.00
42.261 792.00
42.5653 842.00
42.8695 1059.00
43.1738 811.00
43.4781 719.00
43.7823 731.00
44.0866 769.00
44.3909 767.00
44.6951 774.00
44.9994 686.00
45.3036 641.00
45.6079 756.00
45.9122 902.00
46.2164 922.00
46.5207 858.00
46.8249 748.00
47.1292 699.00
47.4335 695.00
47.7377 714.00
48.042 664.00
48.3462 695.00
48.6505 727.00
48.9548 682.00
49.259 695.00
49.5633 694.00
49.8675 693.00
50.1718 706.00
50.4761 737.00
50.7803 738.00
51.0846 723.00
51.3888 757.00
51.6931 805.00
51.9974 749.00
52.3016 801.00
52.6059 860.00
52.9101 717.00
53.2144 688.00
53.5187 794.00
53.8229 1244.00
54.1272 799.00
54.4314 774.00
54.7357 782.00
55.04 754.00
55.3442 854.00
55.6485 982.00
55.9527 829.00
56.257 749.00
56.5613 930.00
56.8655 862.00
57.1698 764.00
57.474 850.00
57.7783 789.00
58.0826 723.00
58.3868 744.00
58.6911 811.00
58.9953 768.00
59.2996 1068.00
59.6039 953.00
59.9081 900.00
60.2124 751.00
60.5166 748.00
60.8209 843.00
61.1252 795.00
61.4294 779.00
61.7337 801.00
62.0379 737.00
62.3422 701.00
62.6465 710.00
62.9507 710.00
63.255 706.00
63.5592 759.00
63.8635 775.00
64.1678 844.00
64.472 837.00
64.7763 872.00
65.0806 945.00
65.3848 844.00
65.6891 858.00
65.9933 811.00
66.2976 751.00
66.6019 728.00
66.9061 710.00
67.2104 688.00
67.5146 671.00
67.8189 720.00
68.1232 805.00
68.4274 832.00
68.7317 808.00
69.0359 920.00
69.3402 772.00
69.6445 731.00
69.9487 770.00
70.253 702.00
70.5572 819.00
70.8615 791.00
71.1658 783.00
71.47 766.00
71.7743 748.00
72.0785 848.00
72.3828 763.00
72.6871 736.00
72.9913 695.00
73.2956 778.00
73.5998 739.00
73.9041 735.00
74.2084 729.00
74.5126 729.00
74.8169 723.00
75.1211 781.00
75.4254 761.00
75.7297 752.00
76.0339 781.00
76.3382 740.00
76.6424 707.00
76.9467 706.00
77.251 698.00
77.5552 768.00
77.8595 812.00
78.1637 787.00
78.468 682.00
78.7723 693.00
79.0765 781.00
79.3808 707.00
79.685 767.00
79.9893 793.00
80.2936 722.00
80.5978 730.00
80.9021 725.00
81.2063 704.00
81.5106 738.00
81.8149 784.00
82.1191 724.00
82.4234 704.00
82.7277 757.00
83.0319 799.00
83.3362 807.00
83.6404 714.00
83.9447 762.00
84.249 741.00
84.5532 748.00
84.8575 765.00
85.1617 794.00
85.466 762.00
85.7703 760.00
86.0745 815.00
86.3788 794.00
86.683 785.00
86.9873 766.00
87.2916 809.00
87.5958 744.00
87.9001 770.00
88.2043 766.00
88.5086 808.00
88.8129 808.00
89.1171 751.00
89.4214 722.00
89.7256 791.00
90.0299 772.00
90.3342 795.00
90.6384 850.00
90.9427 808.00
91.2469 769.00
91.5512 792.00
91.8555 865.00
92.1597 837.00
92.464 849.00
92.7682 806.00
93.0725 821.00
93.3768 879.00
93.681 806.00
93.9853 799.00
94.2895 779.00
94.5938 789.00
94.8981 743.00
95.2023 764.00
95.5066 835.00
95.8108 807.00
96.1151 763.00
96.4194 848.00
96.7236 844.00
97.0279 836.00
97.3321 878.00
97.6364 829.00
97.9407 754.00
98.2449 834.00
98.5492 815.00
98.8534 816.00
99.1577 794.00
99.462 801.00
99.7662 831.00
99.9944 821.00

File: TRI_194.xy
10.0094 2385.00
10.3137 2336.00
10.618 2217.00
10.9222 2149.00
11.2265 1987.00
11.5307 1958.00
11.835 1926.00
12.1393 1816.00
12.4435 1689.00
12.7478 1688.00
13.052 1598.00
13.3563 1604.00
13.6606 1545.00
13.9648 1629.00
14.2691 1614.00
14.5733 1551.00
14.8776 1506.00
15.1819 1457.00
15.4861 1400.00
15.7904 1356.00
16.0946 1370.00
16.3989 1356.00
16.7032 1377.00
17.0074 1282.00
17.3117 1287.00
17.6159 1209.00
17.9202 1319.00
18.2245 1272.00
18.5287 1219.00
18.833 1227.00
19.1372 1139.00
19.4415 1178.00
19.7458 1197.00
20.05 1244.00
20.3543 1393.00
20.6585 1135.00
20.9628 1119.00
21.2671 1054.00
21.5713 1093.00
21.8756 1052.00
22.1798 987.00
22.4841 953.00
22.7884 1015.00
23.0926 996.00
23.3969 905.00
23.7011 922.00
24.0054 945.00
24.3097 924.00
24.6139 878.00
24.9182 899.00
25.2224 942.00
25.5267 1109.00
25.831 937.00
26.1352 845.00
26.4395 908.00
26.7438 979.00
27.048 1182.00
27.3523 1693.00
27.6565 1160.00
27.9608 1735.00
28.2651 1903.00
28.5693 1015.00
28.8736 1040.00
29.1778 1426.00
29.4821 1801.00
29.7864 1012.00
30.0906 816.00
30.3949 888.00
30.6991 742.00
31.0034 723.00
31.3077 805.00
31.6119 775.00
31.9162 699.00
32.2204 735.00
32.5247 792.00
32.829 1488.00
33.1332 745.00
33.4375 768.00
33.7417 822.00
34.046 737.00
34.3503 653.00
34.6545 633.00
34.9588 657.00
35.263 661.00
35.5673 735.00
35.8716 649.00
36.1758 757.00
36.4801 723.00
36.7843 782.00
37.0886 1099.00
37.3929 761.00
37.6971 665.00
38.0014 623.00
38.3056 629.00
38.6099 824.00
38.9142 1399.00
39.2184 671.00
39.5227 635.00
39.8269 643.00
40.1312 642.00
40.4355 639.00
40.7397 749.00
41.044 816.00
41.3482 586.00
41.6525 667.00
41.9568 730.00
42.261 954.00
42.5653 778.00
42.8695 601.00
43.1738 640.00
43.4781 731.00
43.7823 865.00
44.0866 556.00
44.3909 650.00
44.6951 562.00
44.9994 612.00
45.3036 630.00
45.6079 707.00
45.9122 663.00
46.2164 582.00
46.5207 596.00
46.8249 548.00
47.1292 595.00
47.4335 803.00
47.7377 685.00
48.042 882.00
48.3462 796.00
48.6505 738.00
48.9548 555.00
49.259 580.00
49.5633 671.00
49.8675 611.00
50.1718 538.00
50.4761 564.00
50.7803 588.00
51.0846 549.00
51.3888 557.00
51.6931 870.00
51.9974 977.00
52.3016 537.00
52.6059 589.00
52.9101 532.00
53.2144 591.00
53.5187 530.00
53.8229 618.00
54.1272 644.00
54.4314 654.00
54.7357 617.00
55.04 587.00
55.3442 735.00
55.6485 960.00
55.9527 997.00
56.257 633.00
56.5613 545.00
56.8655 575.00
57.1698 624.00
57.474 689.00
57.7783 840.00
58.0826 616.00
58.3868 618.00
58.6911 562.00
58.9953 583.00
59.2996 594.00
59.6039 607.00
59.9081 1052.00
60.2124 835.00
60.5166 721.00
60.8209 1020.00
61.1252 1037.00
61.4294 993.00
61.7337 829.00
62.0379 620.00
62.3422 549.00
62.6465 519.00
62.9507 580.00
63.255 545.00
63.5592 542.00
63.8635 563.00
64.1678 558.00
64.472 562.00
64.7763 611.00
65.0806 702.00
65.3848 667.00
65.6891 523.00
65.9933 567.00
66.2976 613.00
66.6019 564.00
66.9061 530.00
67.2104 540.00
67.5146 540.00
67.8189 593.00
68.1232 582.00
68.4274 518.00
68.7317 583.00
69.0359 583.00
69.3402 554.00
69.6445 630.00
69.9487 706.00
70.253 666.00
70.5572 746.00
70.8615 696.00
71.1658 521.00
71.47 584.00
71.7743 603.00
72.0785 637.00
72.3828 586.00
72.6871 541.00
72.9913 571.00
73.2956 666.00
73.5998 608.00
73.9041 545.00
74.2084 562.00
74.5126 570.00
74.8169 544.00
75.1211 575.00
75.4254 544.00
75.7297 547.00
76.0339 562.00
76.3382 573.00
76.6424 640.00
76.9467 578.00
77.251 552.00
77.5552 562.00
77.8595 654.00
78.1637 653.00
78.468 638.00
78.7723 538.00
79.0765 627.00
79.3808 579.00
79.685 539.00
79.9893 565.00
80.2936 558.00
80.5978 562.00
80.9021 573.00
81.2063 546.00
81.5106 497.00
81.8149 563.00
82.1191 610.00
82.4234 571.00
82.7277 595.00
83.0319 680.00
83.3362 595.00
83.6404 600.00
83.9447 650.00
84.249 589.00
84.5532 613.00
84.8575 577.00
85.1617 566.00
85.466 594.00
85.7703 629.00
86.0745 591.00
86.3788 565.00
86.683 529.00
86.9873 558.00
87.2916 639.00
87.5958 616.00
87.9001 605.00
88.2043 621.00
88.5086 642.00
88.8129 605.00
89.1171 595.00
89.4214 566.00
89.7256 541.00
90.0299 595.00
90.3342 536.00
90.6384 539.00
90.9427 572.00
91.2469 540.00
91.5512 615.00
91.8555 690.00
92.1597 662.00
92.464 606.00
92.7682 570.00
93.0725 656.00
93.3768 555.00
93.681 580.00
93.9853 659.00
94.2895 609.00
94.5938 593.00
94.8981 630.00
95.2023 658.00
95.5066 678.00
95.8108 635.00
96.1151 546.00
96.4194 500.00
96.7236 560.00
97.0279 561.00
97.3321 558.00
97.6364 640.00
97.9407 606.00
98.2449 536.00
98.5492 502.00
98.8534 561.00
99.1577 628.00
99.462 644.00
99.7662 580.00
99.9944 636.00

File: TRI_195.xy
10.0094 2362.00
10.3137 2305.00
10.618 2267.00
10.9222 2085.00
11.2265 1954.00
11.5307 1863.00
11.835 1974.00
12.1393 1792.00
12.4435 1877.00
12.7478 1751.00
13.052 1707.00
13.3563 1574.00
13.6606 1509.00
13.9648 1470.00
14.2691 1416.00
14.5733 1355.00
14.8776 1313.00
15.1819 1344.00
15.4861 1359.00
15.7904 1354.00
16.0946 1246.00
16.3989 1404.00
16.7032 1842.00
17.0074 1246.00
17.3117 1180.00
17.6159 1182.00
17.9202 1109.00
18.2245 1258.00
18.5287 1482.00
18.833 1434.00
19.1372 1139.00
19.4415 1059.00
19.7458 1012.00
20.05 1030.00
20.3543 982.00
20.6585 969.00
20.9628 939.00
21.2671 992.00
21.5713 962.00
21.8756 967.00
22.1798 856.00
22.4841 852.00
22.7884 868.00
23.0926 910.00
23.3969 857.00
23.7011 882.00
24.0054 846.00
24.3097 844.00
24.6139 809.00
24.9182 784.00
25.2224 743.00
25.5267 748.00
25.831 775.00
26.1352 820.00
26.4395 842.00
26.7438 1585.00
27.048 743.00
27.3523 656.00
27.6565 1082.00
27.9608 903.00
28.2651 829.00
28.5693 687.00
28.8736 934.00
29.1778 1308.00
29.4821 789.00
29.7864 732.00
30.0906 915.00
30.3949 711.00
30.6991 595.00
31.0034 665.00
31.3077 1103.00
31.6119 691.00
31.9162 577.00
32.2204 695.00
32.5247 1101.00
32.829 662.00
33.1332 577.00
33.4375 528.00
33.7417 435.00
34.046 522.00
34.3503 465.00
34.6545 502.00
34.9588 526.00
35.263 574.00
35.5673 499.00
35.8716 511.00
36.1758 462.00
36.4801 471.00
36.7843 433.00
37.0886 446.00
37.3929 465.00
37.6971 494.00
38.0014 439.00
38.3056 501.00
38.6099 438.00
38.9142 519.00
39.2184 432.00
39.5227 460.00
39.8269 396.00
40.1312 394.00
40.4355 376.00
40.7397 409.00
41.044 511.00
41.3482 361.00
41.6525 385.00
41.9568 397.00
42.261 395.00
42.5653 396.00
42.8695 385.00
43.1738 434.00
43.4781 580.00
43.7823 356.00
44.0866 466.00
44.3909 360.00
44.6951 382.00
44.9994 371.00
45.3036 432.00
45.6079 385.00
45.9122 475.00
46.2164 682.00
46.5207 404.00
46.8249 374.00
47.1292 386.00
47.4335 376.00
47.7377 488.00
48.042 383.00
48.3462 373.00
48.6505 403.00
48.9548 427.00
49.259 453.00
49.5633 397.00
49.8675 380.00
50.1718 412.00
50.4761 418.00
50.7803 524.00
51.0846 446.00
51.3888 508.00
51.6931 383.00
51.9974 345.00
52.3016 429.00
52.6059 341.00
52.9101 324.00
53.2144 320.00
53.5187 363.00
53.8229 385.00
54.1272 412.00
54.4314 466.00
54.7357 357.00
55.04 382.00
55.3442 343.00
55.6485 380.00
55.9527 463.00
56.257 298.00
56.5613 293.00
56.8655 329.00
57.1698 347.00
57.474 446.00
57.7783 351.00
58.0826 358.00
58.3868 313.00
58.6911 364.00
58.9953 371.00
59.2996 385.00
59.6039 350.00
59.9081 368.00
60.2124 383.00
60.5166 368.00
60.8209 358.00
61.1252 420.00
61.4294 380.00
61.7337 297.00
62.0379 312.00
62.3422 310.00
62.6465 303.00
62.9507 322.00
63.255 406.00
63.5592 344.00
63.8635 313.00
64.1678 359.00
64.472 301.00
64.7763 307.00
65.0806 405.00
65.3848 332.00
65.6891 368.00
65.9933 381.00
66.2976 429.00
66.6019 355.00
66.9061 338.00
67.2104 366.00
67.5146 349.00
67.8189 372.00
68.1232 348.00
68.4274 337.00
68.7317 339.00
69.0359 368.00
69.3402 350.00
69.6445 406.00
69.9487 351.00
70.253 365.00
70.5572 387.00
70.8615 385.00
71.1658 319.00
71.47 328.00
71.7743 302.00
72.0785 288.00
72.3828 300.00
72.6871 291.00
72.9913 295.00
73.2956 302.00
73.5998 312.00
73.9041 363.00
74.2084 336.00
74.5126 323.00
74.8169 326.00
75.1211 346.00
75.4254 415.00
75.7297 313.00
76.0339 308.00
76.3382 284.00
76.6424 309.00
76.9467 330.00
77.251 343.00
77.5552 289.00
77.8595 315.00
78.1637 298.00
78.468 284.00
78.7723 307.00
79.0765 330.00
79.3808 281.00
79.685 338.00
79.9893 278.00
80.2936 336.00
80.5978 269.00
80.9021 301.00
81.2063 316.00
81.5106 295.00
81.8149 268.00
82.1191 275.00
82.4234 277.00
82.7277 270.00
83.0319 298.00
83.3362 303.00
83.6404 297.00
83.9447 320.00
84.249 267.00
84.5532 308.00
84.8575 275.00
85.1617 312.00
85.466 298.00
85.7703 300.00
86.0745 285.00
86.3788 321.00
86.683 358.00
86.9873 357.00
87.2916 311.00
87.5958 276.00
87.9001 299.00
88.2043 312.00
88.5086 319.00
88.8129 269.00
89.1171 292.00
89.4214 284.00
89.7256 320.00
90.0299 316.00
90.3342 268.00
90.6384 277.00
90.9427 268.00
91.2469 270.00
91.5512 293.00
91.8555 293.00
92.1597 332.00
92.464 284.00
92.7682 295.00
93.0725 317.00
93.3768 300.00
93.681 335.00
93.9853 326.00
94.2895 275.00
94.5938 311.00
94.8981 312.00
95.2023 329.00
95.5066 287.00
95.8108 262.00
96.1151 311.00
96.4194 290.00
96.7236 282.00
97.0279 281.00
97.3321 277.00
97.6364 280.00
97.9407 311.00
98.2449 307.00
98.5492 299.00
98.8534 280.00
99.1577 310.00
99.462 293.00
99.7662 306.00
99.9944 295.00

File: TRI_196.xy
10.0094 2356.00
10.3137 2234.00
10.618 2176.00
10.9222 1940.00
11.2265 1927.00
11.5307 1777.00
11.835 1700.00
12.1393 1685.00
12.4435 1608.00
12.7478 1566.00
13.052 1488.00
13.3563 1449.00
13.6606 1342.00
13.9648 1298.00
14.2691 1255.00
14.5733 1269.00
14.8776 1233.00
15.1819 1201.00
15.4861 1158.00
15.7904 1125.00
16.0946 1118.00
16.3989 1114.00
16.7032 1066.00
17.0074 1027.00
17.3117 1004.00
17.6159 1007.00
17.9202 1035.00
18.2245 1111.00
18.5287 938.00
18.833 925.00
19.1372 915.00
19.4415 979.00
19.7458 965.00
20.05 819.00
20.3543 811.00
20.6585 892.00
20.9628 752.00
21.2671 823.00
21.5713 789.00
21.8756 778.00
22.1798 728.00
22.4841 729.00
22.7884 737.00
23.0926 734.00
23.3969 699.00
23.7011 675.00
24.0054 673.00
24.3097 677.00
24.6139 627.00
24.9182 729.00
25.2224 763.00
25.5267 666.00
25.831 680.00
26.1352 733.00
26.4395 696.00
26.7438 553.00
27.048 537.00
27.3523 581.00
27.6565 602.00
27.9608 782.00
28.2651 673.00
28.5693 560.00
28.8736 542.00
29.1778 538.00
29.4821 520.00
29.7864 519.00
30.0906 605.00
30.3949 599.00
30.6991 538.00
31.0034 532.00
31.3077 506.00
31.6119 494.00
31.9162 448.00
32.2204 448.00
32.5247 419.00
32.829 452.00
33.1332 467.00
33.4375 408.00
33.7417 465.00
34.046 377.00
34.3503 400.00
34.6545 411.00
34.9588 377.00
35.263 411.00
35.5673 416.00
35.8716 415.00
36.1758 427.00
36.4801 377.00
36.7843 460.00
37.0886 373.00
37.3929 331.00
37.6971 348.00
38.0014 383.00
38.3056 364.00
38.6099 372.00
38.9142 352.00
39.2184 320.00
39.5227 320.00
39.8269 360.00
40.1312 289.00
40.4355 331.00
40.7397 324.00
41.044 325.00
41.3482 318.00
41.6525 340.00
41.9568 286.00
42.261 275.00
42.5653 294.00
42.8695 303.00
43.1738 309.00
43.4781 260.00
43.7823 312.00
44.0866 245.00
44.3909 283.00
44.6951 266.00
44.9994 256.00
45.3036 231.00
45.6079 232.00
45.9122 311.00
46.2164 279.00
46.5207 278.00
46.8249 268.00
47.1292 242.00
47.4335 281.00
47.7377 237.00
48.042 261.00
48.3462 238.00
48.6505 273.00
48.9548 222.00
49.259 281.00
49.5633 296.00
49.8675 260.00
50.1718 269.00
50.4761 227.00
50.7803 237.00
51.0846 228.00
51.3888 238.00
51.6931 282.00
51.9974 246.00
52.3016 219.00
52.6059 228.00
52.9101 242.00
53.2144 222.00
53.5187 235.00
53.8229 219.00
54.1272 259.00
54.4314 262.00
54.7357 214.00
55.04 210.00
55.3442 215.00
55.6485 239.00
55.9527 219.00
56.257 232.00
56.5613 225.00
56.8655 210.00
57.1698 199.00
57.474 227.00
57.7783 240.00
58.0826 193.00
58.3868 188.00
58.6911 213.00
58.9953 226.00
59.2996 213.00
59.6039 222.00
59.9081 186.00
60.2124 206.00
60.5166 186.00
60.8209 194.00
61.1252 195.00
61.4294 191.00
61.7337 219.00
62.0379 190.00
62.3422 228.00
62.6465 220.00
62.9507 184.00
63.255 207.00
63.5592 194.00
63.8635 158.00
64.1678 186.00
64.472 193.00
64.7763 183.00
65.0806 183.00
65.3848 201.00
65.6891 164.00
65.9933 184.00
66.2976 187.00
66.6019 188.00
66.9061 164.00
67.2104 179.00
67.5146 184.00
67.8189 166.00
68.1232 164.00
68.4274 182.00
68.7317 159.00
69.0359 162.00
69.3402 144.00
69.6445 174.00
69.9487 192.00
70.253 184.00
70.5572 202.00
70.8615 177.00
71.1658 187.00
71.47 191.00
71.7743 169.00
72.0785 157.00
72.3828 179.00
72.6871 190.00
72.9913 174.00
73.2956 177.00
73.5998 182.00
73.9041 170.00
74.2084 178.00
74.5126 177.00
74.8169 185.00
75.1211 151.00
75.4254 188.00
75.7297 166.00
76.0339 173.00
76.3382 206.00
76.6424 168.00
76.9467 188.00
77.251 168.00
77.5552 152.00
77.8595 222.00
78.1637 198.00
78.468 207.00
78.7723 215.00
79.0765 183.00
79.3808 177.00
79.685 178.00
79.9893 219.00
80.2936 212.00
80.5978 169.00
80.9021 222.00
81.2063 221.00
81.5106 196.00
81.8149 219.00
82.1191 249.00
82.4234 211.00
82.7277 196.00
83.0319 215.00
83.3362 187.00
83.6404 206.00
83.9447 200.00
84.249 184.00
84.5532 207.00
84.8575 171.00
85.1617 210.00
85.466 188.00
85.7703 164.00
86.0745 205.00
86.3788 166.00
86.683 159.00
86.9873 197.00
87.2916 207.00
87.5958 150.00
87.9001 161.00
88.2043 183.00
88.5086 188.00
88.8129 184.00
89.1171 172.00
89.4214 156.00
89.7256 190.00
90.0299 168.00
90.3342 190.00
90.6384 175.00
90.9427 179.00
91.2469 153.00
91.5512 154.00
91.8555 165.00
92.1597 159.00
92.464 176.00
92.7682 162.00
93.0725 178.00
93.3768 170.00
93.681 186.00
93.9853 178.00
94.2895 181.00
94.5938 179.00
94.8981 192.00
95.2023 175.00
95.5066 154.00
95.8108 164.00
96.1151 171.00
96.4194 165.00
96.7236 150.00
97.0279 174.00
97.3321 166.00
97.6364 187.00
97.9407 174.00
98.2449 158.00
98.5492 182.00
98.8534 156.00
99.1577 136.00
99.462 162.00
99.7662 137.00
99.9944 173.00