Folder: alab-pipeline/data/xrd_creation/results (part 7)

File: Na_19.xy
9.903433 2744.00
10.2077 2719.00
10.512 2525.00
10.8162 2360.00
11.1205 2312.00
11.4247 2178.00
11.729 2127.00
12.0333 2077.00
12.3375 1941.00
12.6418 1837.00
12.946 1782.00
13.2503 1739.00
13.5546 1648.00
13.8588 1624.00
14.1631 1616.00
14.4673 1580.00
14.7716 1482.00
15.0759 1522.00
15.3801 1392.00
15.6844 1385.00
15.9886 1418.00
16.2929 1351.00
16.5972 1356.00
16.9014 1425.00
17.2057 1326.00
17.5099 1302.00
17.8142 1256.00
18.1185 1155.00
18.4227 1182.00
18.727 1213.00
19.0312 1150.00
19.3355 1160.00
19.6398 1125.00
19.944 1078.00
20.2483 1090.00
20.5525 1083.00
20.8568 1064.00
21.1611 1051.00
21.4653 1031.00
21.7696 1068.00
22.0738 1068.00
22.3781 1091.00
22.6824 1105.00
22.9866 1046.00
23.2909 1039.00
23.5951 1125.00
23.8994 1156.00
24.2037 1167.00
24.5079 1197.00
24.8122 1221.00
25.1164 1444.00
25.4207 1484.00
25.725 1482.00
26.0292 1541.00
26.3335 1286.00
26.6378 1077.00
26.942 1012.00
27.2463 929.00
27.5505 1163.00
27.8548 974.00
28.1591 887.00
28.4633 841.00
28.7676 824.00
29.0718 872.00
29.3761 751.00
29.6804 752.00
29.9846 1954.00
30.2889 1062.00
30.5931 775.00
30.8974 718.00
31.2017 726.00
31.5059 714.00
31.8102 676.00
32.1144 676.00
32.4187 619.00
32.723 612.00
33.0272 837.00
33.3315 658.00
33.6357 628.00
33.94 738.00
34.2443 1045.00
34.5485 973.00
34.8528 642.00
35.157 1506.00
35.4613 575.00
35.7656 594.00
36.0698 562.00
36.3741 509.00
36.6783 558.00
36.9826 533.00
37.2869 573.00
37.5911 621.00
37.8954 1593.00
38.1996 712.00
38.5039 622.00
38.8082 480.00
39.1124 491.00
39.4167 517.00
39.7209 601.00
40.0252 854.00
40.3295 479.00
40.6337 507.00
40.938 627.00
41.2422 721.00
41.5465 787.00
41.8508 553.00
42.155 473.00
42.4593 541.00
42.7635 550.00
43.0678 584.00
43.3721 541.00
43.6763 473.00
43.9806 464.00
44.2849 434.00
44.5891 496.00
44.8934 410.00
45.1976 407.00
45.5019 421.00
45.8062 432.00
46.1104 473.00
46.4147 796.00
46.7189 469.00
47.0232 442.00
47.3275 374.00
47.6317 369.00
47.936 406.00
48.2402 721.00
48.5445 442.00
48.8488 379.00
49.153 471.00
49.4573 404.00
49.7615 341.00
50.0658 364.00
50.3701 322.00
50.6743 403.00
50.9786 404.00
51.2828 401.00
51.5871 406.00
51.8914 373.00
52.1956 375.00
52.4999 402.00
52.8041 362.00
53.1084 378.00
53.4127 492.00
53.7169 419.00
54.0212 363.00
54.3254 350.00
54.6297 440.00
54.934 318.00
55.2382 379.00
55.5425 342.00
55.8467 358.00
56.151 367.00
56.4553 366.00
56.7595 331.00
57.0638 343.00
57.368 313.00
57.6723 295.00
57.9766 295.00
58.2808 340.00
58.5851 350.00
58.8893 397.00
59.1936 324.00
59.4979 282.00
59.8021 318.00
60.1064 296.00
60.4106 342.00
60.7149 313.00
61.0192 273.00
61.3234 281.00
61.6277 288.00
61.932 348.00
62.2362 287.00
62.5405 426.00
62.8447 345.00
63.149 303.00
63.4533 265.00
63.7575 324.00
64.0618 310.00
64.366 271.00
64.6703 280.00
64.9745 240.00
65.2788 244.00
65.5831 278.00
65.8873 273.00
66.1916 239.00
66.4959 229.00
66.8001 240.00
67.1044 269.00
67.4086 314.00
67.7129 248.00
68.0172 296.00
68.3214 242.00
68.6257 264.00
68.9299 256.00
69.2342 264.00
69.5385 210.00
69.8427 231.00
70.147 228.00
70.4512 233.00
70.7555 232.00
71.0598 266.00
71.364 258.00
71.6683 226.00
71.9725 241.00
72.2768 297.00
72.5811 281.00
72.8853 273.00
73.1896 273.00
73.4938 266.00
73.7981 271.00
74.1024 239.00
74.4066 291.00
74.7109 279.00
75.0151 269.00
75.3194 264.00
75.6237 270.00
75.9279 274.00
76.2322 273.00
76.5364 248.00
76.8407 234.00
77.145 269.00
77.4492 245.00
77.7535 290.00
78.0577 278.00
78.362 288.00
78.6663 283.00
78.9705 277.00
79.2748 295.00
79.579 288.00
79.8833 315.00
80.1876 307.00
80.4918 321.00
80.7961 249.00
81.1003 277.00
81.4046 276.00
81.7089 337.00
82.0131 322.00
82.3174 273.00
82.6217 274.00
82.9259 293.00
83.2302 308.00
83.5344 275.00
83.8387 308.00
84.143 257.00
84.4472 288.00
84.7515 274.00
85.0557 270.00
85.36 296.00
85.6643 283.00
85.9685 258.00
86.2728 264.00
86.577 241.00
86.8813 256.00
87.1856 247.00
87.4898 268.00
87.7941 272.00
88.0983 234.00
88.4026 221.00
88.7069 230.00
89.0111 230.00
89.3154 215.00
89.6196 261.00
89.9239 216.00
90.2282 222.00
90.5324 228.00
90.8367 235.00
91.1409 245.00
91.4452 257.00
91.7495 230.00
92.0537 238.00
92.358 260.00
92.6622 239.00
92.9665 258.00
93.2708 283.00
93.575 228.00
93.8793 244.00
94.1835 237.00
94.4878 210.00
94.7921 239.00
95.0963 218.00
95.4006 230.00
95.7048 268.00
96.0091 233.00
96.3134 209.00
96.6176 280.00
96.9219 216.00
97.2261 234.00
97.5304 224.00
97.8347 191.00
98.1389 235.00
98.4432 204.00
98.7474 228.00
99.0517 229.00
99.356 225.00
99.6602 220.00
99.9645 270.00
100.095 207.00

File: Na_20.xy
9.903433 2602.00
10.2077 2452.00
10.512 2390.00
10.8162 2258.00
11.1205 2140.00
11.4247 2080.00
11.729 1982.00
12.0333 1942.00
12.3375 1803.00
12.6418 1685.00
12.946 1751.00
13.2503 1719.00
13.5546 1639.00
13.8588 1594.00
14.1631 1533.00
14.4673 1450.00
14.7716 1418.00
15.0759 1430.00
15.3801 1350.00
15.6844 1376.00
15.9886 1347.00
16.2929 1335.00
16.5972 1230.00
16.9014 1205.00
17.2057 1256.00
17.5099 1179.00
17.8142 1148.00
18.1185 1156.00
18.4227 1077.00
18.727 1147.00
19.0312 1056.00
19.3355 1016.00
19.6398 965.00
19.944 978.00
20.2483 968.00
20.5525 971.00
20.8568 898.00
21.1611 967.00
21.4653 939.00
21.7696 937.00
22.0738 984.00
22.3781 888.00
22.6824 901.00
22.9866 841.00
23.2909 844.00
23.5951 871.00
23.8994 861.00
24.2037 825.00
24.5079 753.00
24.8122 779.00
25.1164 805.00
25.4207 764.00
25.725 778.00
26.0292 792.00
26.3335 812.00
26.6378 686.00
26.942 714.00
27.2463 695.00
27.5505 687.00
27.8548 725.00
28.1591 740.00
28.4633 655.00
28.7676 618.00
29.0718 678.00
29.3761 649.00
29.6804 625.00
29.9846 566.00
30.2889 587.00
30.5931 588.00
30.8974 564.00
31.2017 627.00
31.5059 616.00
31.8102 585.00
32.1144 549.00
32.4187 536.00
32.723 519.00
33.0272 548.00
33.3315 494.00
33.6357 496.00
33.94 497.00
34.2443 556.00
34.5485 479.00
34.8528 511.00
35.157 486.00
35.4613 441.00
35.7656 414.00
36.0698 487.00
36.3741 430.00
36.6783 437.00
36.9826 406.00
37.2869 396.00
37.5911 417.00
37.8954 387.00
38.1996 375.00
38.5039 390.00
38.8082 366.00
39.1124 371.00
39.4167 424.00
39.7209 342.00
40.0252 342.00
40.3295 376.00
40.6337 362.00
40.938 365.00
41.2422 358.00
41.5465 371.00
41.8508 380.00
42.155 334.00
42.4593 340.00
42.7635 360.00
43.0678 386.00
43.3721 315.00
43.6763 313.00
43.9806 339.00
44.2849 287.00
44.5891 303.00
44.8934 303.00
45.1976 318.00
45.5019 300.00
45.8062 307.00
46.1104 320.00
46.4147 299.00
46.7189 270.00
47.0232 320.00
47.3275 287.00
47.6317 261.00
47.936 284.00
48.2402 330.00
48.5445 292.00
48.8488 289.00
49.153 279.00
49.4573 269.00
49.7615 287.00
50.0658 277.00
50.3701 250.00
50.6743 275.00
50.9786 264.00
51.2828 295.00
51.5871 260.00
51.8914 249.00
52.1956 263.00
52.4999 249.00
52.8041 240.00
53.1084 230.00
53.4127 281.00
53.7169 276.00
54.0212 262.00
54.3254 218.00
54.6297 272.00
54.934 229.00
55.2382 237.00
55.5425 236.00
55.8467 273.00
56.151 246.00
56.4553 211.00
56.7595 240.00
57.0638 203.00
57.368 243.00
57.6723 235.00
57.9766 212.00
58.2808 225.00
58.5851 224.00
58.8893 226.00
59.1936 222.00
59.4979 188.00
59.8021 229.00
60.1064 234.00
60.4106 209.00
60.7149 211.00
61.0192 223.00
61.3234 183.00
61.6277 174.00
61.932 238.00
62.2362 202.00
62.5405 198.00
62.8447 222.00
63.149 208.00
63.4533 212.00
63.7575 196.00
64.0618 176.00
64.366 213.00
64.6703 187.00
64.9745 192.00
65.2788 201.00
65.5831 204.00
65.8873 181.00
66.1916 188.00
66.4959 210.00
66.8001 177.00
67.1044 152.00
67.4086 205.00
67.7129 216.00
68.0172 188.00
68.3214 214.00
68.6257 186.00
68.9299 224.00
69.2342 214.00
69.5385 176.00
69.8427 200.00
70.147 194.00
70.4512 213.00
70.7555 197.00
71.0598 183.00
71.364 196.00
71.6683 175.00
71.9725 195.00
72.2768 165.00
72.5811 194.00
72.8853 197.00
73.1896 184.00
73.4938 199.00
73.7981 192.00
74.1024 207.00
74.4066 188.00
74.7109 232.00
75.0151 190.00
75.3194 181.00
75.6237 224.00
75.9279 196.00
76.2322 185.00
76.5364 191.00
76.8407 192.00
77.145 210.00
77.4492 188.00
77.7535 221.00
78.0577 217.00
78.362 210.00
78.6663 212.00
78.9705 225.00
79.2748 218.00
79.579 211.00
79.8833 195.00
80.1876 216.00
80.4918 219.00
80.7961 223.00
81.1003 191.00
81.4046 225.00
81.7089 214.00
82.0131 201.00
82.3174 250.00
82.6217 249.00
82.9259 212.00
83.2302 239.00
83.5344 213.00
83.8387 236.00
84.143 216.00
84.4472 227.00
84.7515 206.00
85.0557 222.00
85.36 198.00
85.6643 205.00
85.9685 233.00
86.2728 213.00
86.577 237.00
86.8813 195.00
87.1856 207.00
87.4898 219.00
87.7941 208.00
88.0983 215.00
88.4026 208.00
88.7069 216.00
89.0111 224.00
89.3154 202.00
89.6196 200.00
89.9239 210.00
90.2282 208.00
90.5324 232.00
90.8367 214.00
91.1409 200.00
91.4452 197.00
91.7495 184.00
92.0537 176.00
92.358 180.00
92.6622 198.00
92.9665 186.00
93.2708 184.00
93.575 197.00
93.8793 239.00
94.1835 206.00
94.4878 209.00
94.7921 211.00
95.0963 160.00
95.4006 223.00
95.7048 179.00
96.0091 235.00
96.3134 203.00
96.6176 200.00
96.9219 181.00
97.2261 197.00
97.5304 168.00
97.8347 184.00
98.1389 203.00
98.4432 172.00
98.7474 188.00
99.0517 193.00
99.356 183.00
99.6602 200.00
99.9645 163.00
100.095 171.00

File: Na_21.xy
9.903433 2615.00
10.2077 2379.00
10.512 2410.00
10.8162 2294.00
11.1205 2191.00
11.4247 2059.00
11.729 2008.00
12.0333 1854.00
12.3375 1823.00
12.6418 1740.00
12.946 1662.00
13.2503 1673.00
13.5546 1561.00
13.8588 1543.00
14.1631 1491.00
14.4673 1507.00
14.7716 1419.00
15.0759 1375.00
15.3801 1396.00
15.6844 1373.00
15.9886 1364.00
16.2929 1291.00
16.5972 1415.00
16.9014 1590.00
17.2057 1393.00
17.5099 1243.00
17.8142 1283.00
18.1185 1249.00
18.4227 1178.00
18.727 1121.00
19.0312 1168.00
19.3355 1028.00
19.6398 1075.00
19.944 1028.00
20.2483 1006.00
20.5525 1024.00
20.8568 944.00
21.1611 1001.00
21.4653 952.00
21.7696 970.00
22.0738 1217.00
22.3781 1123.00
22.6824 976.00
22.9866 859.00
23.2909 1169.00
23.5951 942.00
23.8994 817.00
24.2037 840.00
24.5079 810.00
24.8122 823.00
25.1164 822.00
25.4207 886.00
25.725 1238.00
26.0292 984.00
26.3335 790.00
26.6378 831.00
26.942 757.00
27.2463 739.00
27.5505 701.00
27.8548 780.00
28.1591 702.00
28.4633 961.00
28.7676 1222.00
29.0718 795.00
29.3761 914.00
29.6804 1151.00
29.9846 818.00
30.2889 910.00
30.5931 710.00
30.8974 757.00
31.2017 648.00
31.5059 621.00
31.8102 623.00
32.1144 930.00
32.4187 714.00
32.723 609.00
33.0272 668.00
33.3315 929.00
33.6357 695.00
33.94 709.00
34.2443 836.00
34.5485 691.00
34.8528 594.00
35.157 1234.00
35.4613 1189.00
35.7656 831.00
36.0698 561.00
36.3741 549.00
36.6783 518.00
36.9826 550.00
37.2869 657.00
37.5911 604.00
37.8954 621.00
38.1996 514.00
38.5039 576.00
38.8082 544.00
39.1124 536.00
39.4167 517.00
39.7209 489.00
40.0252 471.00
40.3295 498.00
40.6337 443.00
40.938 503.00
41.2422 486.00
41.5465 624.00
41.8508 654.00
42.155 530.00
42.4593 484.00
42.7635 540.00
43.0678 543.00
43.3721 747.00
43.6763 718.00
43.9806 677.00
44.2849 492.00
44.5891 442.00
44.8934 856.00
45.1976 604.00
45.5019 479.00
45.8062 620.00
46.1104 543.00
46.4147 582.00
46.7189 462.00
47.0232 452.00
47.3275 465.00
47.6317 484.00
47.936 418.00
48.2402 500.00
48.5445 442.00
48.8488 436.00
49.153 505.00
49.4573 425.00
49.7615 565.00
50.0658 487.00
50.3701 458.00
50.6743 432.00
50.9786 413.00
51.2828 446.00
51.5871 419.00
51.8914 435.00
52.1956 547.00
52.4999 620.00
52.8041 442.00
53.1084 386.00
53.4127 423.00
53.7169 419.00
54.0212 415.00
54.3254 377.00
54.6297 431.00
54.934 572.00
55.2382 431.00
55.5425 405.00
55.8467 456.00
56.151 449.00
56.4553 385.00
56.7595 397.00
57.0638 426.00
57.368 797.00
57.6723 983.00
57.9766 452.00
58.2808 389.00
58.5851 389.00
58.8893 415.00
59.1936 386.00
59.4979 432.00
59.8021 406.00
60.1064 402.00
60.4106 513.00
60.7149 377.00
61.0192 390.00
61.3234 789.00
61.6277 491.00
61.932 480.00
62.2362 384.00
62.5405 430.00
62.8447 386.00
63.149 385.00
63.4533 335.00
63.7575 354.00
64.0618 346.00
64.366 370.00
64.6703 365.00
64.9745 339.00
65.2788 347.00
65.5831 323.00
65.8873 349.00
66.1916 368.00
66.4959 531.00
66.8001 441.00
67.1044 366.00
67.4086 329.00
67.7129 385.00
68.0172 423.00
68.3214 526.00
68.6257 366.00
68.9299 409.00
69.2342 365.00
69.5385 315.00
69.8427 369.00
70.147 448.00
70.4512 426.00
70.7555 384.00
71.0598 374.00
71.364 370.00
71.6683 331.00
71.9725 335.00
72.2768 406.00
72.5811 347.00
72.8853 343.00
73.1896 388.00
73.4938 381.00
73.7981 363.00
74.1024 381.00
74.4066 421.00
74.7109 362.00
75.0151 407.00
75.3194 348.00
75.6237 360.00
75.9279 394.00
76.2322 371.00
76.5364 408.00
76.8407 1777.00
77.145 979.00
77.4492 567.00
77.7535 411.00
78.0577 315.00
78.362 348.00
78.6663 357.00
78.9705 392.00
79.2748 389.00
79.579 368.00
79.8833 397.00
80.1876 388.00
80.4918 377.00
80.7961 379.00
81.1003 359.00
81.4046 406.00
81.7089 372.00
82.0131 332.00
82.3174 370.00
82.6217 357.00
82.9259 357.00
83.2302 345.00
83.5344 379.00
83.8387 363.00
84.143 379.00
84.4472 341.00
84.7515 319.00
85.0557 364.00
85.36 371.00
85.6643 357.00
85.9685 326.00
86.2728 370.00
86.577 342.00
86.8813 317.00
87.1856 371.00
87.4898 348.00
87.7941 347.00
88.0983 363.00
88.4026 329.00
88.7069 359.00
89.0111 506.00
89.3154 430.00
89.6196 359.00
89.9239 365.00
90.2282 329.00
90.5324 371.00
90.8367 735.00
91.1409 610.00
91.4452 318.00
91.7495 313.00
92.0537 350.00
92.358 349.00
92.6622 383.00
92.9665 346.00
93.2708 344.00
93.575 375.00
93.8793 331.00
94.1835 372.00
94.4878 379.00
94.7921 344.00
95.0963 361.00
95.4006 402.00
95.7048 317.00
96.0091 327.00
96.3134 348.00
96.6176 340.00
96.9219 336.00
97.2261 325.00
97.5304 308.00
97.8347 293.00
98.1389 323.00
98.4432 343.00
98.7474 354.00
99.0517 325.00
99.356 331.00
99.6602 341.00
99.9645 327.00
100.095 293.00

File: Na_29.xy
9.903433 2950.00
10.2077 2841.00
10.512 2778.00
10.8162 2656.00
11.1205 2562.00
11.4247 2465.00
11.729 2462.00
12.0333 2386.00
12.3375 2237.00
12.6418 2222.00
12.946 2135.00
13.2503 2168.00
13.5546 2134.00
13.8588 2136.00
14.1631 2106.00
14.4673 2035.00
14.7716 2043.00
15.0759 1997.00
15.3801 1839.00
15.6844 1957.00
15.9886 1990.00
16.2929 1979.00
16.5972 1926.00
16.9014 1878.00
17.2057 1826.00
17.5099 1862.00
17.8142 1848.00
18.1185 1911.00
18.4227 1819.00
18.727 1795.00
19.0312 1892.00
19.3355 1984.00
19.6398 1806.00
19.944 1849.00
20.2483 2534.00
20.5525 1894.00
20.8568 1812.00
21.1611 1741.00
21.4653 1705.00
21.7696 1677.00
22.0738 1691.00
22.3781 1643.00
22.6824 1639.00
22.9866 1754.00
23.2909 2995.00
23.5951 1713.00
23.8994 1709.00
24.2037 1953.00
24.5079 1734.00
24.8122 1613.00
25.1164 1568.00
25.4207 1447.00
25.725 1583.00
26.0292 1598.00
26.3335 1592.00
26.6378 1778.00
26.942 1551.00
27.2463 1480.00
27.5505 1537.00
27.8548 1632.00
28.1591 1589.00
28.4633 1657.00
28.7676 1723.00
29.0718 1751.00
29.3761 2294.00
29.6804 15152.00
29.9846 1992.00
30.2889 1625.00
30.5931 1736.00
30.8974 1603.00
31.2017 1622.00
31.5059 1756.00
31.8102 1784.00
32.1144 1725.00
32.4187 1926.00
32.723 2076.00
33.0272 2193.00
33.3315 2044.00
33.6357 1472.00
33.94 1381.00
34.2443 1318.00
34.5485 1262.00
34.8528 1301.00
35.157 1190.00
35.4613 1119.00
35.7656 1083.00
36.0698 1374.00
36.3741 1560.00
36.6783 1045.00
36.9826 1011.00
37.2869 1108.00
37.5911 1091.00
37.8954 884.00
38.1996 930.00
38.5039 951.00
38.8082 1095.00
39.1124 974.00
39.4167 1062.00
39.7209 2752.00
40.0252 978.00
40.3295 958.00
40.6337 873.00
40.938 907.00
41.2422 910.00
41.5465 875.00
41.8508 816.00
42.155 824.00
42.4593 826.00
42.7635 840.00
43.0678 867.00
43.3721 2524.00
43.6763 968.00
43.9806 890.00
44.2849 856.00
44.5891 775.00
44.8934 885.00
45.1976 843.00
45.5019 769.00
45.8062 770.00
46.1104 823.00
46.4147 848.00
46.7189 897.00
47.0232 888.00
47.3275 1586.00
47.6317 1933.00
47.936 1329.00
48.2402 845.00
48.5445 1115.00
48.8488 2093.00
49.153 840.00
49.4573 722.00
49.7615 704.00
50.0658 637.00
50.3701 663.00
50.6743 633.00
50.9786 690.00
51.2828 660.00
51.5871 706.00
51.8914 683.00
52.1956 680.00
52.4999 731.00
52.8041 673.00
53.1084 660.00
53.4127 653.00
53.7169 707.00
54.0212 661.00
54.3254 610.00
54.6297 658.00
54.934 637.00
55.2382 668.00
55.5425 652.00
55.8467 668.00
56.151 637.00
56.4553 635.00
56.7595 987.00
57.0638 712.00
57.368 746.00
57.6723 1424.00
57.9766 690.00
58.2808 720.00
58.5851 605.00
58.8893 608.00
59.1936 641.00
59.4979 715.00
59.8021 623.00
60.1064 624.00
60.4106 617.00
60.7149 715.00
61.0192 984.00
61.3234 821.00
61.6277 800.00
61.932 597.00
62.2362 589.00
62.5405 570.00
62.8447 583.00
63.149 649.00
63.4533 668.00
63.7575 570.00
64.0618 511.00
64.366 506.00
64.6703 642.00
64.9745 936.00
65.2788 615.00
65.5831 660.00
65.8873 810.00
66.1916 581.00
66.4959 511.00
66.8001 553.00
67.1044 556.00
67.4086 564.00
67.7129 566.00
68.0172 528.00
68.3214 466.00
68.6257 465.00
68.9299 467.00
69.2342 462.00
69.5385 507.00
69.8427 467.00
70.147 483.00
70.4512 623.00
70.7555 466.00
71.0598 420.00
71.364 418.00
71.6683 407.00
71.9725 401.00
72.2768 404.00
72.5811 409.00
72.8853 470.00
73.1896 547.00
73.4938 418.00
73.7981 461.00
74.1024 415.00
74.4066 407.00
74.7109 405.00
75.0151 405.00
75.3194 390.00
75.6237 400.00
75.9279 403.00
76.2322 487.00
76.5364 495.00
76.8407 393.00
77.145 415.00
77.4492 495.00
77.7535 449.00
78.0577 405.00
78.362 402.00
78.6663 370.00
78.9705 395.00
79.2748 400.00
79.579 366.00
79.8833 401.00
80.1876 369.00
80.4918 395.00
80.7961 367.00
81.1003 394.00
81.4046 422.00
81.7089 580.00
82.0131 456.00
82.3174 417.00
82.6217 397.00
82.9259 384.00
83.2302 356.00
83.5344 371.00
83.8387 559.00
84.143 582.00
84.4472 419.00
84.7515 428.00
85.0557 565.00
85.36 405.00
85.6643 349.00
85.9685 335.00
86.2728 373.00
86.577 395.00
86.8813 403.00
87.1856 342.00
87.4898 364.00
87.7941 368.00
88.0983 339.00
88.4026 348.00
88.7069 390.00
89.0111 353.00
89.3154 357.00
89.6196 361.00
89.9239 362.00
90.2282 292.00
90.5324 380.00
90.8367 357.00
91.1409 362.00
91.4452 352.00
91.7495 343.00
92.0537 345.00
92.358 425.00
92.6622 417.00
92.9665 366.00
93.2708 405.00
93.575 353.00
93.8793 375.00
94.1835 370.00
94.4878 348.00
94.7921 504.00
95.0963 636.00
95.4006 498.00
95.7048 419.00
96.0091 418.00
96.3134 494.00
96.6176 418.00
96.9219 333.00
97.2261 360.00
97.5304 334.00
97.8347 360.00
98.1389 397.00
98.4432 345.00
98.7474 356.00
99.0517 434.00
99.356 461.00
99.6602 452.00
99.9645 344.00
100.095 342.00

File: Na_30.xy
9.903433 2632.00
10.2077 2608.00
10.512 2306.00
10.8162 2242.00
11.1205 2126.00
11.4247 2082.00
11.729 1943.00
12.0333 1988.00
12.3375 1864.00
12.6418 1769.00
12.946 1661.00
13.2503 1684.00
13.5546 1624.00
13.8588 1531.00
14.1631 1465.00
14.4673 1411.00
14.7716 1329.00
15.0759 1376.00
15.3801 1353.00
15.6844 1330.00
15.9886 1375.00
16.2929 1287.00
16.5972 1242.00
16.9014 1255.00
17.2057 1146.00
17.5099 1175.00
17.8142 1128.00
18.1185 1148.00
18.4227 1050.00
18.727 1077.00
19.0312 1058.00
19.3355 1039.00
19.6398 1015.00
19.944 973.00
20.2483 948.00
20.5525 911.00
20.8568 853.00
21.1611 945.00
21.4653 925.00
21.7696 905.00
22.0738 936.00
22.3781 803.00
22.6824 855.00
22.9866 832.00
23.2909 817.00
23.5951 737.00
23.8994 763.00
24.2037 754.00
24.5079 794.00
24.8122 694.00
25.1164 761.00
25.4207 736.00
25.725 738.00
26.0292 772.00
26.3335 952.00
26.6378 763.00
26.942 685.00
27.2463 694.00
27.5505 729.00
27.8548 648.00
28.1591 705.00
28.4633 760.00
28.7676 1014.00
29.0718 742.00
29.3761 652.00
29.6804 643.00
29.9846 662.00
30.2889 633.00
30.5931 638.00
30.8974 609.00
31.2017 579.00
31.5059 598.00
31.8102 589.00
32.1144 525.00
32.4187 537.00
32.723 654.00
33.0272 586.00
33.3315 577.00
33.6357 786.00
33.94 563.00
34.2443 496.00
34.5485 488.00
34.8528 448.00
35.157 493.00
35.4613 499.00
35.7656 452.00
36.0698 448.00
36.3741 429.00
36.6783 446.00
36.9826 475.00
37.2869 419.00
37.5911 445.00
37.8954 460.00
38.1996 401.00
38.5039 432.00
38.8082 439.00
39.1124 389.00
39.4167 436.00
39.7209 419.00
40.0252 350.00
40.3295 353.00
40.6337 346.00
40.938 398.00
41.2422 344.00
41.5465 363.00
41.8508 390.00
42.155 379.00
42.4593 373.00
42.7635 419.00
43.0678 356.00
43.3721 367.00
43.6763 333.00
43.9806 372.00
44.2849 353.00
44.5891 347.00
44.8934 315.00
45.1976 361.00
45.5019 343.00
45.8062 314.00
46.1104 345.00
46.4147 311.00
46.7189 301.00
47.0232 354.00
47.3275 322.00
47.6317 318.00
47.936 361.00
48.2402 430.00
48.5445 312.00
48.8488 319.00
49.153 284.00
49.4573 292.00
49.7615 257.00
50.0658 325.00
50.3701 312.00
50.6743 296.00
50.9786 344.00
51.2828 307.00
51.5871 454.00
51.8914 313.00
52.1956 304.00
52.4999 279.00
52.8041 285.00
53.1084 292.00
53.4127 258.00
53.7169 282.00
54.0212 280.00
54.3254 294.00
54.6297 314.00
54.934 280.00
55.2382 271.00
55.5425 272.00
55.8467 266.00
56.151 256.00
56.4553 269.00
56.7595 256.00
57.0638 297.00
57.368 314.00
57.6723 266.00
57.9766 228.00
58.2808 225.00
58.5851 237.00
58.8893 205.00
59.1936 215.00
59.4979 206.00
59.8021 225.00
60.1064 272.00
60.4106 230.00
60.7149 219.00
61.0192 257.00
61.3234 217.00
61.6277 228.00
61.932 225.00
62.2362 239.00
62.5405 221.00
62.8447 226.00
63.149 197.00
63.4533 212.00
63.7575 227.00
64.0618 204.00
64.366 210.00
64.6703 205.00
64.9745 261.00
65.2788 221.00
65.5831 231.00
65.8873 244.00
66.1916 212.00
66.4959 190.00
66.8001 202.00
67.1044 224.00
67.4086 215.00
67.7129 218.00
68.0172 231.00
68.3214 197.00
68.6257 186.00
68.9299 215.00
69.2342 211.00
69.5385 210.00
69.8427 243.00
70.147 201.00
70.4512 214.00
70.7555 205.00
71.0598 193.00
71.364 190.00
71.6683 197.00
71.9725 224.00
72.2768 225.00
72.5811 209.00
72.8853 206.00
73.1896 212.00
73.4938 228.00
73.7981 227.00
74.1024 213.00
74.4066 220.00
74.7109 190.00
75.0151 208.00
75.3194 217.00
75.6237 233.00
75.9279 206.00
76.2322 232.00
76.5364 219.00
76.8407 233.00
77.145 259.00
77.4492 232.00
77.7535 262.00
78.0577 274.00
78.362 231.00
78.6663 227.00
78.9705 223.00
79.2748 247.00
79.579 240.00
79.8833 245.00
80.1876 234.00
80.4918 286.00
80.7961 233.00
81.1003 261.00
81.4046 225.00
81.7089 249.00
82.0131 234.00
82.3174 244.00
82.6217 264.00
82.9259 240.00
83.2302 246.00
83.5344 231.00
83.8387 231.00
84.143 202.00
84.4472 230.00
84.7515 226.00
85.0557 246.00
85.36 204.00
85.6643 209.00
85.9685 172.00
86.2728 245.00
86.577 213.00
86.8813 207.00
87.1856 192.00
87.4898 185.00
87.7941 211.00
88.0983 205.00
88.4026 186.00
88.7069 199.00
89.0111 186.00
89.3154 191.00
89.6196 229.00
89.9239 211.00
90.2282 213.00
90.5324 176.00
90.8367 211.00
91.1409 210.00
91.4452 193.00
91.7495 176.00
92.0537 182.00
92.358 193.00
92.6622 222.00
92.9665 186.00
93.2708 203.00
93.575 197.00
93.8793 190.00
94.1835 205.00
94.4878 206.00
94.7921 168.00
95.0963 179.00
95.4006 192.00
95.7048 168.00
96.0091 176.00
96.3134 188.00
96.6176 206.00
96.9219 194.00
97.2261 204.00
97.5304 225.00
97.8347 195.00
98.1389 205.00
98.4432 207.00
98.7474 183.00
99.0517 202.00
99.356 161.00
99.6602 172.00
99.9645 203.00
100.095 213.00