Folder: alab-pipeline/data/xrd_creation/results (part 74)

File: NSC_212.xy
9.903433 2971.00
10.2077 2930.00
10.512 2889.00
10.8162 2735.00
11.1205 2627.00
11.4247 2506.00
11.729 2540.00
12.0333 2421.00
12.3375 2349.00
12.6418 2350.00
12.946 2312.00
13.2503 2304.00
13.5546 2257.00
13.8588 2081.00
14.1631 2112.00
14.4673 2163.00
14.7716 2157.00
15.0759 2177.00
15.3801 2069.00
15.6844 2086.00
15.9886 2038.00
16.2929 2092.00
16.5972 2015.00
16.9014 1983.00
17.2057 1997.00
17.5099 1959.00
17.8142 2812.00
18.1185 1944.00
18.4227 1966.00
18.727 1938.00
19.0312 1932.00
19.3355 1934.00
19.6398 1869.00
19.944 1919.00
20.2483 2864.00
20.5525 2350.00
20.8568 2051.00
21.1611 2137.00
21.4653 1845.00
21.7696 2610.00
22.0738 1757.00
22.3781 1776.00
22.6824 1787.00
22.9866 1738.00
23.2909 1785.00
23.5951 1727.00
23.8994 1794.00
24.2037 2158.00
24.5079 4177.00
24.8122 3171.00
25.1164 1952.00
25.4207 1668.00
25.725 1610.00
26.0292 1667.00
26.3335 1544.00
26.6378 1949.00
26.942 1693.00
27.2463 1556.00
27.5505 1649.00
27.8548 1848.00
28.1591 2394.00
28.4633 9458.00
28.7676 8753.00
29.0718 2267.00
29.3761 1754.00
29.6804 1629.00
29.9846 1585.00
30.2889 1611.00
30.5931 1930.00
30.8974 9876.00
31.2017 2061.00
31.5059 2676.00
31.8102 8719.00
32.1144 5394.00
32.4187 1920.00
32.723 1734.00
33.0272 2770.00
33.3315 2316.00
33.6357 2141.00
33.94 1699.00
34.2443 2238.00
34.5485 4987.00
34.8528 4669.00
35.157 1976.00
35.4613 1995.00
35.7656 6555.00
36.0698 1915.00
36.3741 2196.00
36.6783 1411.00
36.9826 1323.00
37.2869 1252.00
37.5911 1271.00
37.8954 1467.00
38.1996 1255.00
38.5039 1315.00
38.8082 1836.00
39.1124 2299.00
39.4167 1374.00
39.7209 1285.00
40.0252 1197.00
40.3295 1289.00
40.6337 1234.00
40.938 1682.00
41.2422 2831.00
41.5465 1904.00
41.8508 1814.00
42.155 1661.00
42.4593 1130.00
42.7635 1126.00
43.0678 1198.00
43.3721 1135.00
43.6763 1092.00
43.9806 1221.00
44.2849 1099.00
44.5891 1082.00
44.8934 1183.00
45.1976 1556.00
45.5019 1480.00
45.8062 1567.00
46.1104 2113.00
46.4147 1120.00
46.7189 1022.00
47.0232 1029.00
47.3275 1207.00
47.6317 1287.00
47.936 1080.00
48.2402 1064.00
48.5445 1052.00
48.8488 1071.00
49.153 1208.00
49.4573 1956.00
49.7615 2975.00
50.0658 1831.00
50.3701 2271.00
50.6743 3947.00
50.9786 2482.00
51.2828 4496.00
51.5871 1606.00
51.8914 1588.00
52.1956 1136.00
52.4999 1176.00
52.8041 1276.00
53.1084 1233.00
53.4127 1034.00
53.7169 1054.00
54.0212 1133.00
54.3254 1631.00
54.6297 2176.00
54.934 1708.00
55.2382 1249.00
55.5425 1567.00
55.8467 2516.00
56.151 2954.00
56.4553 2069.00
56.7595 1556.00
57.0638 1113.00
57.368 1342.00
57.6723 1574.00
57.9766 1733.00
58.2808 1388.00
58.5851 1811.00
58.8893 1608.00
59.1936 1313.00
59.4979 1432.00
59.8021 1152.00
60.1064 1484.00
60.4106 2276.00
60.7149 2109.00
61.0192 2070.00
61.3234 1213.00
61.6277 1362.00
61.932 1624.00
62.2362 1793.00
62.5405 2207.00
62.8447 1573.00
63.149 1694.00
63.4533 1905.00
63.7575 1487.00
64.0618 1241.00
64.366 1038.00
64.6703 1131.00
64.9745 1317.00
65.2788 1171.00
65.5831 1343.00
65.8873 1424.00
66.1916 1513.00
66.4959 1728.00
66.8001 1162.00
67.1044 910.00
67.4086 894.00
67.7129 871.00
68.0172 911.00
68.3214 1005.00
68.6257 904.00
68.9299 873.00
69.2342 955.00
69.5385 1062.00
69.8427 1176.00
70.147 939.00
70.4512 942.00
70.7555 885.00
71.0598 883.00
71.364 994.00
71.6683 1293.00
71.9725 1490.00
72.2768 1115.00
72.5811 1090.00
72.8853 1087.00
73.1896 1078.00
73.4938 1034.00
73.7981 942.00
74.1024 922.00
74.4066 846.00
74.7109 909.00
75.0151 979.00
75.3194 1276.00
75.6237 1192.00
75.9279 1251.00
76.2322 1005.00
76.5364 970.00
76.8407 1023.00
77.145 1035.00
77.4492 1116.00
77.7535 952.00
78.0577 1068.00
78.362 1031.00
78.6663 984.00
78.9705 1074.00
79.2748 1086.00
79.579 1229.00
79.8833 1016.00
80.1876 870.00
80.4918 859.00
80.7961 929.00
81.1003 927.00
81.4046 983.00
81.7089 930.00
82.0131 1081.00
82.3174 1200.00
82.6217 1030.00
82.9259 1016.00
83.2302 1174.00
83.5344 1269.00
83.8387 1171.00
84.143 1262.00
84.4472 1095.00
84.7515 1202.00
85.0557 1211.00
85.36 960.00
85.6643 1030.00
85.9685 1177.00
86.2728 972.00
86.577 915.00
86.8813 967.00
87.1856 922.00
87.4898 880.00
87.7941 865.00
88.0983 974.00
88.4026 1148.00
88.7069 1213.00
89.0111 1154.00
89.3154 1195.00
89.6196 1068.00
89.9239 1031.00
90.2282 1068.00
90.5324 1095.00
90.8367 1076.00
91.1409 902.00
91.4452 866.00
91.7495 799.00
92.0537 848.00
92.358 925.00
92.6622 943.00
92.9665 862.00
93.2708 826.00
93.575 801.00
93.8793 890.00
94.1835 904.00
94.4878 925.00
94.7921 969.00
95.0963 940.00
95.4006 982.00
95.7048 1086.00
96.0091 1091.00
96.3134 1067.00
96.6176 1146.00
96.9219 1129.00
97.2261 1168.00
97.5304 1145.00
97.8347 1202.00
98.1389 1117.00
98.4432 965.00
98.7474 1060.00
99.0517 1077.00
99.356 1102.00
99.6602 1131.00
99.9645 1134.00
100.095 1084.00

File: NSC_213.xy
9.903433 2819.00
10.2077 2576.00
10.512 2533.00
10.8162 2521.00
11.1205 2388.00
11.4247 2288.00
11.729 2193.00
12.0333 2128.00
12.3375 2054.00
12.6418 2014.00
12.946 2015.00
13.2503 1829.00
13.5546 1823.00
13.8588 1863.00
14.1631 1723.00
14.4673 1730.00
14.7716 1717.00
15.0759 1643.00
15.3801 1666.00
15.6844 1683.00
15.9886 1650.00
16.2929 1561.00
16.5972 1534.00
16.9014 1574.00
17.2057 1616.00
17.5099 1894.00
17.8142 1533.00
18.1185 1464.00
18.4227 1541.00
18.727 1437.00
19.0312 1433.00
19.3355 1392.00
19.6398 1387.00
19.944 1788.00
20.2483 1607.00
20.5525 1481.00
20.8568 1465.00
21.1611 1378.00
21.4653 1534.00
21.7696 1300.00
22.0738 1337.00
22.3781 1230.00
22.6824 1276.00
22.9866 1257.00
23.2909 1271.00
23.5951 1252.00
23.8994 1568.00
24.2037 2410.00
24.5079 2059.00
24.8122 1391.00
25.1164 1262.00
25.4207 1382.00
25.725 1132.00
26.0292 1166.00
26.3335 1226.00
26.6378 1104.00
26.942 1113.00
27.2463 1117.00
27.5505 1227.00
27.8548 1648.00
28.1591 6004.00
28.4633 4661.00
28.7676 1486.00
29.0718 1104.00
29.3761 1041.00
29.6804 1041.00
29.9846 1149.00
30.2889 1187.00
30.5931 2786.00
30.8974 1324.00
31.2017 1778.00
31.5059 5017.00
31.8102 3067.00
32.1144 1191.00
32.4187 1077.00
32.723 1270.00
33.0272 1271.00
33.3315 1138.00
33.6357 977.00
33.94 1217.00
34.2443 2681.00
34.5485 2512.00
34.8528 1212.00
35.157 1324.00
35.4613 2800.00
35.7656 1182.00
36.0698 1261.00
36.3741 864.00
36.6783 772.00
36.9826 766.00
37.2869 787.00
37.5911 815.00
37.8954 958.00
38.1996 734.00
38.5039 988.00
38.8082 1070.00
39.1124 768.00
39.4167 725.00
39.7209 650.00
40.0252 770.00
40.3295 741.00
40.6337 896.00
40.938 1419.00
41.2422 1113.00
41.5465 1067.00
41.8508 769.00
42.155 594.00
42.4593 614.00
42.7635 578.00
43.0678 622.00
43.3721 607.00
43.6763 621.00
43.9806 570.00
44.2849 591.00
44.5891 664.00
44.8934 719.00
45.1976 785.00
45.5019 782.00
45.8062 979.00
46.1104 579.00
46.4147 608.00
46.7189 545.00
47.0232 587.00
47.3275 578.00
47.6317 541.00
47.936 612.00
48.2402 628.00
48.5445 544.00
48.8488 575.00
49.153 895.00
49.4573 1426.00
49.7615 934.00
50.0658 1022.00
50.3701 1649.00
50.6743 1272.00
50.9786 1365.00
51.2828 727.00
51.5871 755.00
51.8914 583.00
52.1956 523.00
52.4999 586.00
52.8041 562.00
53.1084 505.00
53.4127 512.00
53.7169 529.00
54.0212 762.00
54.3254 940.00
54.6297 815.00
54.934 607.00
55.2382 762.00
55.5425 1071.00
55.8467 1264.00
56.151 958.00
56.4553 725.00
56.7595 512.00
57.0638 601.00
57.368 672.00
57.6723 767.00
57.9766 624.00
58.2808 749.00
58.5851 711.00
58.8893 587.00
59.1936 529.00
59.4979 537.00
59.8021 673.00
60.1064 846.00
60.4106 914.00
60.7149 738.00
61.0192 503.00
61.3234 529.00
61.6277 664.00
61.932 722.00
62.2362 849.00
62.5405 664.00
62.8447 696.00
63.149 738.00
63.4533 673.00
63.7575 461.00
64.0618 498.00
64.366 485.00
64.6703 568.00
64.9745 466.00
65.2788 494.00
65.5831 551.00
65.8873 651.00
66.1916 726.00
66.4959 479.00
66.8001 377.00
67.1044 383.00
67.4086 403.00
67.7129 409.00
68.0172 389.00
68.3214 385.00
68.6257 413.00
68.9299 426.00
69.2342 432.00
69.5385 483.00
69.8427 408.00
70.147 447.00
70.4512 395.00
70.7555 403.00
71.0598 419.00
71.364 496.00
71.6683 508.00
71.9725 448.00
72.2768 398.00
72.5811 454.00
72.8853 444.00
73.1896 431.00
73.4938 407.00
73.7981 359.00
74.1024 362.00
74.4066 350.00
74.7109 412.00
75.0151 493.00
75.3194 503.00
75.6237 522.00
75.9279 445.00
76.2322 389.00
76.5364 435.00
76.8407 423.00
77.145 411.00
77.4492 411.00
77.7535 442.00
78.0577 467.00
78.362 450.00
78.6663 428.00
78.9705 420.00
79.2748 457.00
79.579 481.00
79.8833 402.00
80.1876 370.00
80.4918 377.00
80.7961 383.00
81.1003 362.00
81.4046 394.00
81.7089 382.00
82.0131 519.00
82.3174 448.00
82.6217 433.00
82.9259 439.00
83.2302 503.00
83.5344 481.00
83.8387 514.00
84.143 450.00
84.4472 467.00
84.7515 433.00
85.0557 400.00
85.36 397.00
85.6643 418.00
85.9685 403.00
86.2728 413.00
86.577 367.00
86.8813 378.00
87.1856 380.00
87.4898 365.00
87.7941 369.00
88.0983 428.00
88.4026 444.00
88.7069 446.00
89.0111 438.00
89.3154 428.00
89.6196 433.00
89.9239 448.00
90.2282 414.00
90.5324 400.00
90.8367 360.00
91.1409 347.00
91.4452 363.00
91.7495 335.00
92.0537 336.00
92.358 343.00
92.6622 305.00
92.9665 309.00
93.2708 345.00
93.575 333.00
93.8793 355.00
94.1835 334.00
94.4878 406.00
94.7921 390.00
95.0963 395.00
95.4006 395.00
95.7048 413.00
96.0091 389.00
96.3134 347.00
96.6176 370.00
96.9219 432.00
97.2261 463.00
97.5304 404.00
97.8347 427.00
98.1389 380.00
98.4432 370.00
98.7474 409.00
99.0517 396.00
99.356 417.00
99.6602 389.00
99.9645 436.00
100.095 439.00

File: NSC_214.xy
9.903433 2688.00
10.2077 2556.00
10.512 2571.00
10.8162 2362.00
11.1205 2331.00
11.4247 2191.00
11.729 2026.00
12.0333 1993.00
12.3375 1969.00
12.6418 1913.00
12.946 1774.00
13.2503 1725.00
13.5546 1626.00
13.8588 1743.00
14.1631 1715.00
14.4673 1593.00
14.7716 1609.00
15.0759 1596.00
15.3801 1524.00
15.6844 1485.00
15.9886 1494.00
16.2929 1498.00
16.5972 1412.00
16.9014 1513.00
17.2057 1495.00
17.5099 1769.00
17.8142 1396.00
18.1185 1352.00
18.4227 1417.00
18.727 1257.00
19.0312 1304.00
19.3355 1265.00
19.6398 1279.00
19.944 1650.00
20.2483 1401.00
20.5525 1340.00
20.8568 1275.00
21.1611 1217.00
21.4653 1220.00
21.7696 1222.00
22.0738 1258.00
22.3781 1185.00
22.6824 1104.00
22.9866 1122.00
23.2909 1096.00
23.5951 1160.00
23.8994 1334.00
24.2037 1761.00
24.5079 1783.00
24.8122 1156.00
25.1164 1497.00
25.4207 1463.00
25.725 1060.00
26.0292 1007.00
26.3335 1127.00
26.6378 989.00
26.942 986.00
27.2463 978.00
27.5505 1084.00
27.8548 1275.00
28.1591 4086.00
28.4633 2672.00
28.7676 1118.00
29.0718 966.00
29.3761 927.00
29.6804 920.00
29.9846 975.00
30.2889 952.00
30.5931 933.00
30.8974 1017.00
31.2017 1428.00
31.5059 3498.00
31.8102 1921.00
32.1144 926.00
32.4187 859.00
32.723 986.00
33.0272 1063.00
33.3315 924.00
33.6357 850.00
33.94 1005.00
34.2443 1951.00
34.5485 1745.00
34.8528 915.00
35.157 1032.00
35.4613 1617.00
35.7656 878.00
36.0698 914.00
36.3741 663.00
36.6783 664.00
36.9826 718.00
37.2869 665.00
37.5911 724.00
37.8954 725.00
38.1996 688.00
38.5039 820.00
38.8082 918.00
39.1124 581.00
39.4167 620.00
39.7209 576.00
40.0252 631.00
40.3295 590.00
40.6337 728.00
40.938 1019.00
41.2422 796.00
41.5465 761.00
41.8508 568.00
42.155 536.00
42.4593 491.00
42.7635 573.00
43.0678 540.00
43.3721 551.00
43.6763 503.00
43.9806 514.00
44.2849 450.00
44.5891 564.00
44.8934 609.00
45.1976 654.00
45.5019 596.00
45.8062 665.00
46.1104 532.00
46.4147 558.00
46.7189 498.00
47.0232 541.00
47.3275 537.00
47.6317 493.00
47.936 707.00
48.2402 567.00
48.5445 484.00
48.8488 485.00
49.153 714.00
49.4573 890.00
49.7615 656.00
50.0658 736.00
50.3701 1130.00
50.6743 819.00
50.9786 671.00
51.2828 566.00
51.5871 630.00
51.8914 462.00
52.1956 451.00
52.4999 547.00
52.8041 483.00
53.1084 455.00
53.4127 433.00
53.7169 523.00
54.0212 620.00
54.3254 702.00
54.6297 601.00
54.934 592.00
55.2382 571.00
55.5425 775.00
55.8467 891.00
56.151 634.00
56.4553 547.00
56.7595 444.00
57.0638 458.00
57.368 561.00
57.6723 527.00
57.9766 459.00
58.2808 574.00
58.5851 571.00
58.8893 438.00
59.1936 417.00
59.4979 436.00
59.8021 500.00
60.1064 616.00
60.4106 647.00
60.7149 405.00
61.0192 422.00
61.3234 446.00
61.6277 504.00
61.932 542.00
62.2362 598.00
62.5405 638.00
62.8447 532.00
63.149 540.00
63.4533 496.00
63.7575 377.00
64.0618 408.00
64.366 374.00
64.6703 405.00
64.9745 376.00
65.2788 397.00
65.5831 457.00
65.8873 506.00
66.1916 526.00
66.4959 382.00
66.8001 362.00
67.1044 354.00
67.4086 344.00
67.7129 329.00
68.0172 332.00
68.3214 316.00
68.6257 322.00
68.9299 333.00
69.2342 316.00
69.5385 383.00
69.8427 348.00
70.147 397.00
70.4512 340.00
70.7555 330.00
71.0598 361.00
71.364 359.00
71.6683 466.00
71.9725 368.00
72.2768 323.00
72.5811 376.00
72.8853 380.00
73.1896 353.00
73.4938 346.00
73.7981 315.00
74.1024 337.00
74.4066 357.00
74.7109 378.00
75.0151 441.00
75.3194 409.00
75.6237 411.00
75.9279 374.00
76.2322 394.00
76.5364 330.00
76.8407 370.00
77.145 347.00
77.4492 379.00
77.7535 373.00
78.0577 356.00
78.362 326.00
78.6663 366.00
78.9705 383.00
79.2748 381.00
79.579 377.00
79.8833 359.00
80.1876 327.00
80.4918 394.00
80.7961 386.00
81.1003 334.00
81.4046 364.00
81.7089 372.00
82.0131 417.00
82.3174 405.00
82.6217 372.00
82.9259 392.00
83.2302 406.00
83.5344 401.00
83.8387 399.00
84.143 379.00
84.4472 402.00
84.7515 397.00
85.0557 328.00
85.36 341.00
85.6643 331.00
85.9685 318.00
86.2728 304.00
86.577 349.00
86.8813 321.00
87.1856 330.00
87.4898 316.00
87.7941 301.00
88.0983 376.00
88.4026 357.00
88.7069 345.00
89.0111 356.00
89.3154 368.00
89.6196 359.00
89.9239 323.00
90.2282 346.00
90.5324 393.00
90.8367 332.00
91.1409 310.00
91.4452 336.00
91.7495 347.00
92.0537 310.00
92.358 311.00
92.6622 323.00
92.9665 306.00
93.2708 294.00
93.575 307.00
93.8793 296.00
94.1835 328.00
94.4878 311.00
94.7921 316.00
95.0963 309.00
95.4006 359.00
95.7048 323.00
96.0091 336.00
96.3134 340.00
96.6176 333.00
96.9219 367.00
97.2261 332.00
97.5304 359.00
97.8347 352.00
98.1389 349.00
98.4432 304.00
98.7474 338.00
99.0517 296.00
99.356 345.00
99.6602 314.00
99.9645 364.00
100.095 356.00

File: NSC_215.xy
9.903433 2637.00
10.2077 2600.00
10.512 2577.00
10.8162 2432.00
11.1205 2385.00
11.4247 2311.00
11.729 2177.00
12.0333 2091.00
12.3375 2021.00
12.6418 1929.00
12.946 1979.00
13.2503 1929.00
13.5546 2193.00
13.8588 2193.00
14.1631 1816.00
14.4673 1935.00
14.7716 2482.00
15.0759 1665.00
15.3801 1715.00
15.6844 1689.00
15.9886 1781.00
16.2929 1624.00
16.5972 1609.00
16.9014 1569.00
17.2057 1564.00
17.5099 1673.00
17.8142 1483.00
18.1185 1493.00
18.4227 1565.00
18.727 1579.00
19.0312 2571.00
19.3355 3603.00
19.6398 4271.00
19.944 1647.00
20.2483 1671.00
20.5525 1524.00
20.8568 1644.00
21.1611 2730.00
21.4653 2331.00
21.7696 1418.00
22.0738 1694.00
22.3781 3148.00
22.6824 1564.00
22.9866 1975.00
23.2909 1361.00
23.5951 1340.00
23.8994 1448.00
24.2037 1717.00
24.5079 1490.00
24.8122 1260.00
25.1164 1216.00
25.4207 1174.00
25.725 1347.00
26.0292 1253.00
26.3335 1271.00
26.6378 1230.00
26.942 1269.00
27.2463 1269.00
27.5505 2494.00
27.8548 1919.00
28.1591 2308.00
28.4633 2943.00
28.7676 1197.00
29.0718 1137.00
29.3761 1116.00
29.6804 1079.00
29.9846 1094.00
30.2889 1503.00
30.5931 4705.00
30.8974 2979.00
31.2017 1379.00
31.5059 2296.00
31.8102 2049.00
32.1144 1427.00
32.4187 1187.00
32.723 1414.00
33.0272 1925.00
33.3315 1834.00
33.6357 1780.00
33.94 2582.00
34.2443 3256.00
34.5485 2976.00
34.8528 1257.00
35.157 1072.00
35.4613 1609.00
35.7656 1260.00
36.0698 1300.00
36.3741 1009.00
36.6783 1143.00
36.9826 1078.00
37.2869 989.00
37.5911 913.00
37.8954 869.00
38.1996 873.00
38.5039 998.00
38.8082 1193.00
39.1124 1070.00
39.4167 997.00
39.7209 1253.00
40.0252 1172.00
40.3295 982.00
40.6337 1121.00
40.938 1880.00
41.2422 1469.00
41.5465 1297.00
41.8508 1372.00
42.155 1134.00
42.4593 1063.00
42.7635 997.00
43.0678 1012.00
43.3721 1285.00
43.6763 987.00
43.9806 1184.00
44.2849 1116.00
44.5891 1604.00
44.8934 1482.00
45.1976 1172.00
45.5019 1396.00
45.8062 1548.00
46.1104 1362.00
46.4147 1347.00
46.7189 1968.00
47.0232 1713.00
47.3275 1203.00
47.6317 1006.00
47.936 1008.00
48.2402 1024.00
48.5445 869.00
48.8488 918.00
49.153 1114.00
49.4573 1437.00
49.7615 1097.00
50.0658 1420.00
50.3701 2038.00
50.6743 1893.00
50.9786 1308.00
51.2828 1004.00
51.5871 1085.00
51.8914 1093.00
52.1956 1151.00
52.4999 1148.00
52.8041 1111.00
53.1084 1207.00
53.4127 1620.00
53.7169 2368.00
54.0212 1447.00
54.3254 1219.00
54.6297 1150.00
54.934 1063.00
55.2382 1133.00
55.5425 1315.00
55.8467 1285.00
56.151 1231.00
56.4553 1234.00
56.7595 1009.00
57.0638 1141.00
57.368 1428.00
57.6723 1528.00
57.9766 1185.00
58.2808 1506.00
58.5851 1485.00
58.8893 1384.00
59.1936 1496.00
59.4979 1423.00
59.8021 1234.00
60.1064 1569.00
60.4106 1412.00
60.7149 1202.00
61.0192 1146.00
61.3234 1261.00
61.6277 1661.00
61.932 1330.00
62.2362 1350.00
62.5405 1165.00
62.8447 1204.00
63.149 1124.00
63.4533 1013.00
63.7575 933.00
64.0618 944.00
64.366 1067.00
64.6703 1207.00
64.9745 1156.00
65.2788 1316.00
65.5831 1311.00
65.8873 1318.00
66.1916 1266.00
66.4959 1131.00
66.8001 1108.00
67.1044 952.00
67.4086 868.00
67.7129 880.00
68.0172 824.00
68.3214 860.00
68.6257 962.00
68.9299 1046.00
69.2342 1036.00
69.5385 924.00
69.8427 907.00
70.147 927.00
70.4512 1069.00
70.7555 901.00
71.0598 881.00
71.364 985.00
71.6683 1025.00
71.9725 1085.00
72.2768 1212.00
72.5811 1238.00
72.8853 1089.00
73.1896 908.00
73.4938 888.00
73.7981 905.00
74.1024 979.00
74.4066 971.00
74.7109 970.00
75.0151 938.00
75.3194 970.00
75.6237 1044.00
75.9279 1157.00
76.2322 1075.00
76.5364 1020.00
76.8407 971.00
77.145 890.00
77.4492 904.00
77.7535 882.00
78.0577 914.00
78.362 896.00
78.6663 933.00
78.9705 947.00
79.2748 1010.00
79.579 1043.00
79.8833 963.00
80.1876 876.00
80.4918 932.00
80.7961 972.00
81.1003 955.00
81.4046 894.00
81.7089 894.00
82.0131 979.00
82.3174 992.00
82.6217 1055.00
82.9259 970.00
83.2302 1073.00
83.5344 1024.00
83.8387 973.00
84.143 956.00
84.4472 919.00
84.7515 968.00
85.0557 939.00
85.36 933.00
85.6643 990.00
85.9685 900.00
86.2728 1025.00
86.577 1036.00
86.8813 991.00
87.1856 1024.00
87.4898 971.00
87.7941 991.00
88.0983 948.00
88.4026 903.00
88.7069 1021.00
89.0111 1063.00
89.3154 1000.00
89.6196 1030.00
89.9239 1025.00
90.2282 1028.00
90.5324 1006.00
90.8367 921.00
91.1409 942.00
91.4452 967.00
91.7495 980.00
92.0537 1027.00
92.358 937.00
92.6622 1051.00
92.9665 1085.00
93.2708 939.00
93.575 982.00
93.8793 972.00
94.1835 976.00
94.4878 938.00
94.7921 883.00
95.0963 947.00
95.4006 903.00
95.7048 989.00
96.0091 960.00
96.3134 1001.00
96.6176 992.00
96.9219 1032.00
97.2261 1016.00
97.5304 1010.00
97.8347 1022.00
98.1389 989.00
98.4432 1009.00
98.7474 951.00
99.0517 929.00
99.356 1028.00
99.6602 1156.00
99.9645 1171.00
100.095 1081.00

File: NSC_216.xy
9.903433 2951.00
10.2077 2829.00
10.512 2857.00
10.8162 2772.00
11.1205 2598.00
11.4247 2546.00
11.729 2497.00
12.0333 2327.00
12.3375 2276.00
12.6418 2363.00
12.946 2242.00
13.2503 2248.00
13.5546 2234.00
13.8588 2739.00
14.1631 2404.00
14.4673 2206.00
14.7716 2465.00
15.0759 2917.00
15.3801 2034.00
15.6844 2019.00
15.9886 1950.00
16.2929 1973.00
16.5972 2030.00
16.9014 1968.00
17.2057 1971.00
17.5099 1977.00
17.8142 2266.00
18.1185 1805.00
18.4227 1917.00
18.727 1854.00
19.0312 1889.00
19.3355 2485.00
19.6398 9228.00
19.944 4319.00
20.2483 2002.00
20.5525 2182.00
20.8568 2122.00
21.1611 2420.00
21.4653 3517.00
21.7696 2629.00
22.0738 1851.00
22.3781 2292.00
22.6824 3942.00
22.9866 2354.00
23.2909 3047.00
23.5951 1671.00
23.8994 1658.00
24.2037 2230.00
24.5079 2429.00
24.8122 2088.00
25.1164 1603.00
25.4207 1528.00
25.725 1579.00
26.0292 1896.00
26.3335 1598.00
26.6378 1549.00
26.942 1596.00
27.2463 1607.00
27.5505 1657.00
27.8548 3827.00
28.1591 2706.00
28.4633 5370.00
28.7676 4462.00
29.0718 1769.00
29.3761 1603.00
29.6804 1487.00
29.9846 1579.00
30.2889 1704.00
30.5931 2990.00
30.8974 3707.00
31.2017 8955.00
31.5059 3024.00
31.8102 4628.00
32.1144 2755.00
32.4187 2018.00
32.723 1722.00
33.0272 1797.00
33.3315 2774.00
33.6357 2174.00
33.94 2325.00
34.2443 5173.00
34.5485 7817.00
34.8528 2516.00
35.157 1683.00
35.4613 1565.00
35.7656 2481.00
36.0698 1655.00
36.3741 1699.00
36.6783 1392.00
36.9826 1521.00
37.2869 1423.00
37.5911 1233.00
37.8954 1290.00
38.1996 1262.00
38.5039 1253.00
38.8082 1477.00
39.1124 1578.00
39.4167 1320.00
39.7209 1796.00
40.0252 1713.00
40.3295 1369.00
40.6337 1269.00
40.938 1584.00
41.2422 2437.00
41.5465 2012.00
41.8508 2505.00
42.155 1664.00
42.4593 1674.00
42.7635 1227.00
43.0678 1335.00
43.3721 1363.00
43.6763 1555.00
43.9806 1264.00
44.2849 1378.00
44.5891 2392.00
44.8934 2583.00
45.1976 1548.00
45.5019 1542.00
45.8062 1678.00
46.1104 1697.00
46.4147 1621.00
46.7189 2083.00
47.0232 4216.00
47.3275 2252.00
47.6317 1526.00
47.936 1292.00
48.2402 1247.00
48.5445 1309.00
48.8488 1258.00
49.153 1505.00
49.4573 1902.00
49.7615 1904.00
50.0658 1435.00
50.3701 1599.00
50.6743 2321.00
50.9786 2550.00
51.2828 2806.00
51.5871 1707.00
51.8914 1514.00
52.1956 1387.00
52.4999 1405.00
52.8041 1318.00
53.1084 1572.00
53.4127 2809.00
53.7169 2563.00
54.0212 1671.00
54.3254 1568.00
54.6297 1598.00
54.934 1449.00
55.2382 1381.00
55.5425 1553.00
55.8467 1715.00
56.151 1770.00
56.4553 1497.00
56.7595 1407.00
57.0638 1220.00
57.368 1516.00
57.6723 1752.00
57.9766 1550.00
58.2808 1386.00
58.5851 1641.00
58.8893 1747.00
59.1936 2493.00
59.4979 2694.00
59.8021 1566.00
60.1064 1575.00
60.4106 1837.00
60.7149 1830.00
61.0192 1754.00
61.3234 2216.00
61.6277 1814.00
61.932 1408.00
62.2362 1422.00
62.5405 1625.00
62.8447 1818.00
63.149 1717.00
63.4533 1472.00
63.7575 1311.00
64.0618 1090.00
64.366 1186.00
64.6703 1366.00
64.9745 1567.00
65.2788 1398.00
65.5831 1281.00
65.8873 1479.00
66.1916 1658.00
66.4959 2016.00
66.8001 1682.00
67.1044 1201.00
67.4086 1092.00
67.7129 1086.00
68.0172 1079.00
68.3214 1152.00
68.6257 1340.00
68.9299 1135.00
69.2342 1076.00
69.5385 1142.00
69.8427 1142.00
70.147 1165.00
70.4512 1144.00
70.7555 1136.00
71.0598 1129.00
71.364 1189.00
71.6683 1313.00
71.9725 1585.00
72.2768 1605.00
72.5811 1290.00
72.8853 1160.00
73.1896 1157.00
73.4938 1318.00
73.7981 1222.00
74.1024 1129.00
74.4066 1100.00
74.7109 1072.00
75.0151 1124.00
75.3194 1252.00
75.6237 1307.00
75.9279 1263.00
76.2322 1176.00
76.5364 1227.00
76.8407 1211.00
77.145 1269.00
77.4492 1143.00
77.7535 1076.00
78.0577 1039.00
78.362 1103.00
78.6663 1034.00
78.9705 1022.00
79.2748 1105.00
79.579 1165.00
79.8833 1242.00
80.1876 1325.00
80.4918 1396.00
80.7961 1284.00
81.1003 1073.00
81.4046 1078.00
81.7089 1040.00
82.0131 1247.00
82.3174 1303.00
82.6217 1232.00
82.9259 1108.00
83.2302 1150.00
83.5344 1227.00
83.8387 1172.00
84.143 1188.00
84.4472 1046.00
84.7515 1054.00
85.0557 1100.00
85.36 1018.00
85.6643 1062.00
85.9685 1057.00
86.2728 1062.00
86.577 1138.00
86.8813 1336.00
87.1856 1290.00
87.4898 1073.00
87.7941 1125.00
88.0983 1084.00
88.4026 1202.00
88.7069 1204.00
89.0111 1140.00
89.3154 1129.00
89.6196 1164.00
89.9239 1217.00
90.2282 1258.00
90.5324 1233.00
90.8367 1182.00
91.1409 1059.00
91.4452 1042.00
91.7495 1045.00
92.0537 1155.00
92.358 1138.00
92.6622 995.00
92.9665 1002.00
93.2708 1134.00
93.575 1178.00
93.8793 1171.00
94.1835 1063.00
94.4878 1121.00
94.7921 1126.00
95.0963 1151.00
95.4006 1173.00
95.7048 1259.00
96.0091 1174.00
96.3134 1156.00
96.6176 1123.00
96.9219 1175.00
97.2261 1119.00
97.5304 1156.00
97.8347 1139.00
98.1389 1082.00
98.4432 1037.00
98.7474 1088.00
99.0517 1026.00
99.356 1164.00
99.6602 1187.00
99.9645 1327.00
100.095 1397.00