Folder: alab-pipeline/data/xrd_creation/results (part 42)

File: NSC_39.xy
9.903433 3018.00
10.2077 3074.00
10.512 2895.00
10.8162 2758.00
11.1205 2679.00
11.4247 2688.00
11.729 2672.00
12.0333 2555.00
12.3375 2483.00
12.6418 2674.00
12.946 2555.00
13.2503 2530.00
13.5546 2522.00
13.8588 2690.00
14.1631 2547.00
14.4673 2409.00
14.7716 2441.00
15.0759 2499.00
15.3801 2372.00
15.6844 2425.00
15.9886 2236.00
16.2929 2264.00
16.5972 2347.00
16.9014 2294.00
17.2057 2238.00
17.5099 2340.00
17.8142 2424.00
18.1185 2191.00
18.4227 2189.00
18.727 2291.00
19.0312 2230.00
19.3355 2500.00
19.6398 4064.00
19.944 3592.00
20.2483 2388.00
20.5525 2132.00
20.8568 2410.00
21.1611 2379.00
21.4653 2367.00
21.7696 2652.00
22.0738 2457.00
22.3781 2244.00
22.6824 2499.00
22.9866 2473.00
23.2909 2644.00
23.5951 2130.00
23.8994 2088.00
24.2037 2756.00
24.5079 2471.00
24.8122 2893.00
25.1164 1973.00
25.4207 1917.00
25.725 1923.00
26.0292 1925.00
26.3335 1987.00
26.6378 1928.00
26.942 1965.00
27.2463 1950.00
27.5505 2095.00
27.8548 2846.00
28.1591 2707.00
28.4633 10498.00
28.7676 2581.00
29.0718 2083.00
29.3761 1990.00
29.6804 1923.00
29.9846 1956.00
30.2889 1987.00
30.5931 2489.00
30.8974 7130.00
31.2017 4501.00
31.5059 2868.00
31.8102 7242.00
32.1144 2215.00
32.4187 1940.00
32.723 1817.00
33.0272 1982.00
33.3315 1968.00
33.6357 1853.00
33.94 2069.00
34.2443 3343.00
34.5485 5571.00
34.8528 2606.00
35.157 1860.00
35.4613 2352.00
35.7656 3268.00
36.0698 1869.00
36.3741 1688.00
36.6783 1542.00
36.9826 1541.00
37.2869 1560.00
37.5911 1508.00
37.8954 1546.00
38.1996 1489.00
38.5039 1494.00
38.8082 1718.00
39.1124 1541.00
39.4167 1494.00
39.7209 1663.00
40.0252 1558.00
40.3295 1470.00
40.6337 1520.00
40.938 2156.00
41.2422 1962.00
41.5465 1859.00
41.8508 1940.00
42.155 1778.00
42.4593 1603.00
42.7635 1481.00
43.0678 1444.00
43.3721 1537.00
43.6763 1424.00
43.9806 1599.00
44.2849 1511.00
44.5891 1685.00
44.8934 1951.00
45.1976 2051.00
45.5019 1672.00
45.8062 2065.00
46.1104 1723.00
46.4147 1574.00
46.7189 1797.00
47.0232 2473.00
47.3275 1746.00
47.6317 1559.00
47.936 1487.00
48.2402 1495.00
48.5445 1476.00
48.8488 1508.00
49.153 1765.00
49.4573 2717.00
49.7615 1915.00
50.0658 1569.00
50.3701 3031.00
50.6743 2307.00
50.9786 2479.00
51.2828 2992.00
51.5871 1873.00
51.8914 1511.00
52.1956 1502.00
52.4999 1408.00
52.8041 1405.00
53.1084 1511.00
53.4127 1663.00
53.7169 2044.00
54.0212 1662.00
54.3254 2334.00
54.6297 1617.00
54.934 1457.00
55.2382 1514.00
55.5425 2385.00
55.8467 2115.00
56.151 1992.00
56.4553 1728.00
56.7595 1403.00
57.0638 1379.00
57.368 1816.00
57.6723 1677.00
57.9766 1520.00
58.2808 1771.00
58.5851 1657.00
58.8893 1544.00
59.1936 1623.00
59.4979 1889.00
59.8021 1687.00
60.1064 2206.00
60.4106 2017.00
60.7149 1596.00
61.0192 1982.00
61.3234 1790.00
61.6277 2091.00
61.932 1576.00
62.2362 1819.00
62.5405 1525.00
62.8447 1636.00
63.149 1989.00
63.4533 1466.00
63.7575 1390.00
64.0618 1439.00
64.366 1362.00
64.6703 1366.00
64.9745 1383.00
65.2788 1498.00
65.5831 1531.00
65.8873 1839.00
66.1916 1644.00
66.4959 1403.00
66.8001 1379.00
67.1044 1277.00
67.4086 1268.00
67.7129 1238.00
68.0172 1226.00
68.3214 1377.00
68.6257 1257.00
68.9299 1406.00
69.2342 1425.00
69.5385 1235.00
69.8427 1288.00
70.147 1269.00
70.4512 1198.00
70.7555 1246.00
71.0598 1272.00
71.364 1536.00
71.6683 1463.00
71.9725 1304.00
72.2768 1385.00
72.5811 1410.00
72.8853 1346.00
73.1896 1255.00
73.4938 1257.00
73.7981 1192.00
74.1024 1130.00
74.4066 1153.00
74.7109 1225.00
75.0151 1360.00
75.3194 1384.00
75.6237 1349.00
75.9279 1294.00
76.2322 1218.00
76.5364 1260.00
76.8407 1292.00
77.145 1178.00
77.4492 1242.00
77.7535 1222.00
78.0577 1192.00
78.362 1252.00
78.6663 1147.00
78.9705 1232.00
79.2748 1286.00
79.579 1266.00
79.8833 1140.00
80.1876 1189.00
80.4918 1212.00
80.7961 1317.00
81.1003 1230.00
81.4046 1212.00
81.7089 1287.00
82.0131 1260.00
82.3174 1250.00
82.6217 1291.00
82.9259 1289.00
83.2302 1314.00
83.5344 1386.00
83.8387 1251.00
84.143 1312.00
84.4472 1330.00
84.7515 1247.00
85.0557 1205.00
85.36 1242.00
85.6643 1204.00
85.9685 1250.00
86.2728 1313.00
86.577 1242.00
86.8813 1197.00
87.1856 1148.00
87.4898 1251.00
87.7941 1221.00
88.0983 1265.00
88.4026 1376.00
88.7069 1336.00
89.0111 1245.00
89.3154 1203.00
89.6196 1219.00
89.9239 1303.00
90.2282 1328.00
90.5324 1150.00
90.8367 1268.00
91.1409 1181.00
91.4452 1152.00
91.7495 1177.00
92.0537 1166.00
92.358 1155.00
92.6622 1165.00
92.9665 1248.00
93.2708 1219.00
93.575 1163.00
93.8793 1227.00
94.1835 1228.00
94.4878 1146.00
94.7921 1197.00
95.0963 1194.00
95.4006 1229.00
95.7048 1278.00
96.0091 1187.00
96.3134 1261.00
96.6176 1385.00
96.9219 1461.00
97.2261 1404.00
97.5304 1198.00
97.8347 1096.00
98.1389 1200.00
98.4432 1239.00
98.7474 1275.00
99.0517 1259.00
99.356 1346.00
99.6602 1330.00
99.9645 1235.00
100.095 1203.00

File: NSC_40.xy
9.903433 3269.00
10.2077 3149.00
10.512 3093.00
10.8162 3021.00
11.1205 2934.00
11.4247 2956.00
11.729 2987.00
12.0333 2614.00
12.3375 2736.00
12.6418 2938.00
12.946 3081.00
13.2503 3042.00
13.5546 2921.00
13.8588 3128.00
14.1631 2868.00
14.4673 2619.00
14.7716 2605.00
15.0759 2513.00
15.3801 2496.00
15.6844 2433.00
15.9886 2409.00
16.2929 2547.00
16.5972 2454.00
16.9014 2376.00
17.2057 2434.00
17.5099 2422.00
17.8142 2840.00
18.1185 2366.00
18.4227 2282.00
18.727 2385.00
19.0312 2314.00
19.3355 2788.00
19.6398 4707.00
19.944 5371.00
20.2483 2542.00
20.5525 2383.00
20.8568 2597.00
21.1611 2464.00
21.4653 2247.00
21.7696 2694.00
22.0738 2734.00
22.3781 2236.00
22.6824 2205.00
22.9866 2639.00
23.2909 3515.00
23.5951 2425.00
23.8994 2251.00
24.2037 2730.00
24.5079 2619.00
24.8122 3241.00
25.1164 2033.00
25.4207 1940.00
25.725 1953.00
26.0292 1951.00
26.3335 1941.00
26.6378 1886.00
26.942 1902.00
27.2463 1947.00
27.5505 2024.00
27.8548 2958.00
28.1591 2838.00
28.4633 12175.00
28.7676 2829.00
29.0718 2225.00
29.3761 2134.00
29.6804 1821.00
29.9846 1977.00
30.2889 2034.00
30.5931 2529.00
30.8974 8622.00
31.2017 6215.00
31.5059 3245.00
31.8102 8322.00
32.1144 2140.00
32.4187 1845.00
32.723 1754.00
33.0272 1819.00
33.3315 1837.00
33.6357 1857.00
33.94 1932.00
34.2443 3195.00
34.5485 6689.00
34.8528 2950.00
35.157 2012.00
35.4613 2455.00
35.7656 3545.00
36.0698 1882.00
36.3741 1697.00
36.6783 1553.00
36.9826 1556.00
37.2869 1536.00
37.5911 1619.00
37.8954 1623.00
38.1996 1511.00
38.5039 1470.00
38.8082 1875.00
39.1124 1636.00
39.4167 1560.00
39.7209 1689.00
40.0252 1578.00
40.3295 1610.00
40.6337 1525.00
40.938 2156.00
41.2422 2082.00
41.5465 1968.00
41.8508 2132.00
42.155 2092.00
42.4593 1667.00
42.7635 1523.00
43.0678 1522.00
43.3721 1473.00
43.6763 1537.00
43.9806 1497.00
44.2849 1528.00
44.5891 1689.00
44.8934 2009.00
45.1976 2155.00
45.5019 1762.00
45.8062 2289.00
46.1104 1790.00
46.4147 1636.00
46.7189 1825.00
47.0232 2988.00
47.3275 2022.00
47.6317 1550.00
47.936 1522.00
48.2402 1525.00
48.5445 1559.00
48.8488 1523.00
49.153 1791.00
49.4573 2703.00
49.7615 2116.00
50.0658 1587.00
50.3701 3217.00
50.6743 2431.00
50.9786 2777.00
51.2828 3263.00
51.5871 2087.00
51.8914 1582.00
52.1956 1456.00
52.4999 1459.00
52.8041 1469.00
53.1084 1499.00
53.4127 1682.00
53.7169 2189.00
54.0212 1891.00
54.3254 2601.00
54.6297 1608.00
54.934 1601.00
55.2382 1557.00
55.5425 2426.00
55.8467 2256.00
56.151 2010.00
56.4553 1862.00
56.7595 1421.00
57.0638 1448.00
57.368 1816.00
57.6723 1743.00
57.9766 1524.00
58.2808 1787.00
58.5851 1903.00
58.8893 1620.00
59.1936 1696.00
59.4979 2334.00
59.8021 1760.00
60.1064 2385.00
60.4106 2153.00
60.7149 1743.00
61.0192 2160.00
61.3234 1909.00
61.6277 2273.00
61.932 1760.00
62.2362 2085.00
62.5405 1699.00
62.8447 1596.00
63.149 2204.00
63.4533 1418.00
63.7575 1402.00
64.0618 1452.00
64.366 1487.00
64.6703 1564.00
64.9745 1411.00
65.2788 1683.00
65.5831 1691.00
65.8873 2022.00
66.1916 1866.00
66.4959 1503.00
66.8001 1499.00
67.1044 1362.00
67.4086 1228.00
67.7129 1296.00
68.0172 1277.00
68.3214 1326.00
68.6257 1376.00
68.9299 1466.00
69.2342 1605.00
69.5385 1360.00
69.8427 1324.00
70.147 1238.00
70.4512 1335.00
70.7555 1202.00
71.0598 1294.00
71.364 1587.00
71.6683 1486.00
71.9725 1360.00
72.2768 1534.00
72.5811 1456.00
72.8853 1405.00
73.1896 1304.00
73.4938 1290.00
73.7981 1300.00
74.1024 1328.00
74.4066 1243.00
74.7109 1327.00
75.0151 1332.00
75.3194 1638.00
75.6237 1539.00
75.9279 1393.00
76.2322 1256.00
76.5364 1273.00
76.8407 1465.00
77.145 1290.00
77.4492 1392.00
77.7535 1311.00
78.0577 1336.00
78.362 1251.00
78.6663 1367.00
78.9705 1317.00
79.2748 1368.00
79.579 1258.00
79.8833 1173.00
80.1876 1260.00
80.4918 1287.00
80.7961 1395.00
81.1003 1283.00
81.4046 1240.00
81.7089 1400.00
82.0131 1404.00
82.3174 1278.00
82.6217 1308.00
82.9259 1287.00
83.2302 1414.00
83.5344 1444.00
83.8387 1259.00
84.143 1379.00
84.4472 1318.00
84.7515 1329.00
85.0557 1255.00
85.36 1160.00
85.6643 1203.00
85.9685 1375.00
86.2728 1318.00
86.577 1345.00
86.8813 1262.00
87.1856 1294.00
87.4898 1305.00
87.7941 1392.00
88.0983 1401.00
88.4026 1492.00
88.7069 1422.00
89.0111 1324.00
89.3154 1241.00
89.6196 1223.00
89.9239 1436.00
90.2282 1365.00
90.5324 1281.00
90.8367 1255.00
91.1409 1177.00
91.4452 1323.00
91.7495 1241.00
92.0537 1319.00
92.358 1180.00
92.6622 1318.00
92.9665 1235.00
93.2708 1286.00
93.575 1238.00
93.8793 1275.00
94.1835 1276.00
94.4878 1187.00
94.7921 1224.00
95.0963 1315.00
95.4006 1351.00
95.7048 1287.00
96.0091 1278.00
96.3134 1338.00
96.6176 1502.00
96.9219 1542.00
97.2261 1412.00
97.5304 1228.00
97.8347 1208.00
98.1389 1279.00
98.4432 1271.00
98.7474 1273.00
99.0517 1315.00
99.356 1437.00
99.6602 1376.00
99.9645 1315.00
100.095 1300.00

File: NSC_41.xy
9.903433 2661.00
10.2077 2480.00
10.512 2401.00
10.8162 2359.00
11.1205 2219.00
11.4247 2031.00
11.729 1986.00
12.0333 1914.00
12.3375 1812.00
12.6418 1746.00
12.946 1669.00
13.2503 1660.00
13.5546 1627.00
13.8588 1555.00
14.1631 1543.00
14.4673 1532.00
14.7716 1383.00
15.0759 1403.00
15.3801 1310.00
15.6844 1378.00
15.9886 1330.00
16.2929 1353.00
16.5972 1257.00
16.9014 1241.00
17.2057 1185.00
17.5099 1262.00
17.8142 1174.00
18.1185 1225.00
18.4227 1123.00
18.727 1124.00
19.0312 1095.00
19.3355 1157.00
19.6398 1299.00
19.944 1075.00
20.2483 1039.00
20.5525 1516.00
20.8568 1044.00
21.1611 1123.00
21.4653 1009.00
21.7696 966.00
22.0738 987.00
22.3781 913.00
22.6824 938.00
22.9866 1089.00
23.2909 852.00
23.5951 858.00
23.8994 861.00
24.2037 881.00
24.5079 836.00
24.8122 846.00
25.1164 857.00
25.4207 832.00
25.725 827.00
26.0292 790.00
26.3335 872.00
26.6378 737.00
26.942 709.00
27.2463 837.00
27.5505 707.00
27.8548 861.00
28.1591 751.00
28.4633 719.00
28.7676 686.00
29.0718 656.00
29.3761 650.00
29.6804 733.00
29.9846 613.00
30.2889 670.00
30.5931 735.00
30.8974 785.00
31.2017 914.00
31.5059 609.00
31.8102 619.00
32.1144 637.00
32.4187 602.00
32.723 567.00
33.0272 557.00
33.3315 556.00
33.6357 562.00
33.94 598.00
34.2443 769.00
34.5485 678.00
34.8528 542.00
35.157 513.00
35.4613 504.00
35.7656 479.00
36.0698 520.00
36.3741 473.00
36.6783 444.00
36.9826 418.00
37.2869 447.00
37.5911 463.00
37.8954 430.00
38.1996 430.00
38.5039 405.00
38.8082 386.00
39.1124 444.00
39.4167 436.00
39.7209 440.00
40.0252 405.00
40.3295 393.00
40.6337 386.00
40.938 373.00
41.2422 390.00
41.5465 406.00
41.8508 424.00
42.155 384.00
42.4593 378.00
42.7635 356.00
43.0678 397.00
43.3721 390.00
43.6763 334.00
43.9806 369.00
44.2849 339.00
44.5891 356.00
44.8934 343.00
45.1976 317.00
45.5019 333.00
45.8062 336.00
46.1104 296.00
46.4147 331.00
46.7189 325.00
47.0232 339.00
47.3275 387.00
47.6317 363.00
47.936 302.00
48.2402 353.00
48.5445 317.00
48.8488 329.00
49.153 368.00
49.4573 306.00
49.7615 277.00
50.0658 285.00
50.3701 318.00
50.6743 323.00
50.9786 336.00
51.2828 318.00
51.5871 310.00
51.8914 273.00
52.1956 330.00
52.4999 295.00
52.8041 310.00
53.1084 292.00
53.4127 265.00
53.7169 273.00
54.0212 308.00
54.3254 293.00
54.6297 298.00
54.934 276.00
55.2382 282.00
55.5425 242.00
55.8467 301.00
56.151 299.00
56.4553 257.00
56.7595 234.00
57.0638 278.00
57.368 306.00
57.6723 262.00
57.9766 232.00
58.2808 264.00
58.5851 267.00
58.8893 262.00
59.1936 276.00
59.4979 262.00
59.8021 270.00
60.1064 260.00
60.4106 225.00
60.7149 240.00
61.0192 227.00
61.3234 270.00
61.6277 231.00
61.932 242.00
62.2362 228.00
62.5405 245.00
62.8447 233.00
63.149 223.00
63.4533 206.00
63.7575 191.00
64.0618 215.00
64.366 184.00
64.6703 197.00
64.9745 191.00
65.2788 229.00
65.5831 203.00
65.8873 194.00
66.1916 226.00
66.4959 191.00
66.8001 216.00
67.1044 214.00
67.4086 211.00
67.7129 237.00
68.0172 231.00
68.3214 222.00
68.6257 221.00
68.9299 217.00
69.2342 216.00
69.5385 212.00
69.8427 201.00
70.147 185.00
70.4512 203.00
70.7555 204.00
71.0598 215.00
71.364 210.00
71.6683 221.00
71.9725 193.00
72.2768 202.00
72.5811 215.00
72.8853 214.00
73.1896 216.00
73.4938 205.00
73.7981 216.00
74.1024 219.00
74.4066 213.00
74.7109 200.00
75.0151 207.00
75.3194 239.00
75.6237 213.00
75.9279 237.00
76.2322 229.00
76.5364 194.00
76.8407 201.00
77.145 206.00
77.4492 214.00
77.7535 223.00
78.0577 212.00
78.362 206.00
78.6663 224.00
78.9705 220.00
79.2748 238.00
79.579 242.00
79.8833 234.00
80.1876 217.00
80.4918 232.00
80.7961 202.00
81.1003 272.00
81.4046 265.00
81.7089 222.00
82.0131 246.00
82.3174 223.00
82.6217 260.00
82.9259 240.00
83.2302 281.00
83.5344 258.00
83.8387 263.00
84.143 226.00
84.4472 232.00
84.7515 250.00
85.0557 209.00
85.36 237.00
85.6643 249.00
85.9685 219.00
86.2728 215.00
86.577 215.00
86.8813 229.00
87.1856 208.00
87.4898 238.00
87.7941 264.00
88.0983 230.00
88.4026 208.00
88.7069 199.00
89.0111 223.00
89.3154 213.00
89.6196 214.00
89.9239 233.00
90.2282 214.00
90.5324 190.00
90.8367 213.00
91.1409 206.00
91.4452 205.00
91.7495 220.00
92.0537 231.00
92.358 213.00
92.6622 183.00
92.9665 199.00
93.2708 226.00
93.575 206.00
93.8793 217.00
94.1835 207.00
94.4878 205.00
94.7921 245.00
95.0963 235.00
95.4006 187.00
95.7048 200.00
96.0091 238.00
96.3134 221.00
96.6176 195.00
96.9219 222.00
97.2261 189.00
97.5304 211.00
97.8347 197.00
98.1389 175.00
98.4432 214.00
98.7474 198.00
99.0517 191.00
99.356 193.00
99.6602 198.00
99.9645 164.00
100.095 177.00

File: NSC_42.xy
9.903433 3243.00
10.2077 3217.00
10.512 3457.00
10.8162 2805.00
11.1205 2816.00
11.4247 2747.00
11.729 2704.00
12.0333 2638.00
12.3375 2433.00
12.6418 2564.00
12.946 2445.00
13.2503 2387.00
13.5546 2368.00
13.8588 2388.00
14.1631 2316.00
14.4673 2392.00
14.7716 2237.00
15.0759 2256.00
15.3801 2158.00
15.6844 2207.00
15.9886 2073.00
16.2929 2112.00
16.5972 2047.00
16.9014 2042.00
17.2057 1945.00
17.5099 2012.00
17.8142 1968.00
18.1185 2390.00
18.4227 1821.00
18.727 1901.00
19.0312 1836.00
19.3355 1780.00
19.6398 1804.00
19.944 1743.00
20.2483 1945.00
20.5525 2101.00
20.8568 6629.00
21.1611 3236.00
21.4653 3978.00
21.7696 3286.00
22.0738 1673.00
22.3781 1591.00
22.6824 1648.00
22.9866 1627.00
23.2909 2937.00
23.5951 2737.00
23.8994 1625.00
24.2037 2551.00
24.5079 1576.00
24.8122 1442.00
25.1164 1427.00
25.4207 1491.00
25.725 1570.00
26.0292 1406.00
26.3335 1340.00
26.6378 1359.00
26.942 1407.00
27.2463 1537.00
27.5505 4678.00
27.8548 1516.00
28.1591 1484.00
28.4633 1413.00
28.7676 1332.00
29.0718 1422.00
29.3761 1571.00
29.6804 2125.00
29.9846 4659.00
30.2889 1818.00
30.5931 1885.00
30.8974 9502.00
31.2017 2233.00
31.5059 1803.00
31.8102 1408.00
32.1144 1405.00
32.4187 1739.00
32.723 1305.00
33.0272 1335.00
33.3315 1404.00
33.6357 1384.00
33.94 1535.00
34.2443 3739.00
34.5485 8713.00
34.8528 1567.00
35.157 2302.00
35.4613 1497.00
35.7656 3525.00
36.0698 1366.00
36.3741 1461.00
36.6783 1152.00
36.9826 1156.00
37.2869 1195.00
37.5911 1270.00
37.8954 1826.00
38.1996 1238.00
38.5039 1445.00
38.8082 2767.00
39.1124 1423.00
39.4167 2121.00
39.7209 1199.00
40.0252 1132.00
40.3295 1020.00
40.6337 1058.00
40.938 988.00
41.2422 954.00
41.5465 1024.00
41.8508 1052.00
42.155 1465.00
42.4593 1441.00
42.7635 1014.00
43.0678 1153.00
43.3721 972.00
43.6763 1498.00
43.9806 1311.00
44.2849 914.00
44.5891 919.00
44.8934 951.00
45.1976 899.00
45.5019 923.00
45.8062 1238.00
46.1104 1388.00
46.4147 913.00
46.7189 828.00
47.0232 849.00
47.3275 1206.00
47.6317 992.00
47.936 794.00
48.2402 884.00
48.5445 914.00
48.8488 946.00
49.153 1242.00
49.4573 2355.00
49.7615 890.00
50.0658 827.00
50.3701 786.00
50.6743 846.00
50.9786 990.00
51.2828 3613.00
51.5871 975.00
51.8914 814.00
52.1956 837.00
52.4999 822.00
52.8041 824.00
53.1084 831.00
53.4127 803.00
53.7169 819.00
54.0212 873.00
54.3254 860.00
54.6297 881.00
54.934 711.00
55.2382 695.00
55.5425 727.00
55.8467 745.00
56.151 945.00
56.4553 795.00
56.7595 786.00
57.0638 757.00
57.368 1024.00
57.6723 756.00
57.9766 895.00
58.2808 782.00
58.5851 761.00
58.8893 775.00
59.1936 952.00
59.4979 1545.00
59.8021 1123.00
60.1064 787.00
60.4106 792.00
60.7149 1200.00
61.0192 2022.00
61.3234 1955.00
61.6277 1782.00
61.932 743.00
62.2362 803.00
62.5405 899.00
62.8447 724.00
63.149 687.00
63.4533 728.00
63.7575 869.00
64.0618 811.00
64.366 726.00
64.6703 639.00
64.9745 707.00
65.2788 779.00
65.5831 1073.00
65.8873 785.00
66.1916 665.00
66.4959 652.00
66.8001 742.00
67.1044 687.00
67.4086 719.00
67.7129 824.00
68.0172 1090.00
68.3214 785.00
68.6257 730.00
68.9299 699.00
69.2342 588.00
69.5385 588.00
69.8427 604.00
70.147 538.00
70.4512 557.00
70.7555 466.00
71.0598 493.00
71.364 519.00
71.6683 594.00
71.9725 723.00
72.2768 983.00
72.5811 562.00
72.8853 481.00
73.1896 458.00
73.4938 505.00
73.7981 578.00
74.1024 572.00
74.4066 635.00
74.7109 628.00
75.0151 577.00
75.3194 684.00
75.6237 576.00
75.9279 557.00
76.2322 629.00
76.5364 630.00
76.8407 576.00
77.145 540.00
77.4492 587.00
77.7535 531.00
78.0577 571.00
78.362 532.00
78.6663 522.00
78.9705 521.00
79.2748 574.00
79.579 567.00
79.8833 604.00
80.1876 569.00
80.4918 526.00
80.7961 552.00
81.1003 495.00
81.4046 594.00
81.7089 605.00
82.0131 779.00
82.3174 914.00
82.6217 719.00
82.9259 495.00
83.2302 617.00
83.5344 613.00
83.8387 486.00
84.143 491.00
84.4472 479.00
84.7515 478.00
85.0557 501.00
85.36 489.00
85.6643 536.00
85.9685 729.00
86.2728 621.00
86.577 516.00
86.8813 476.00
87.1856 426.00
87.4898 470.00
87.7941 421.00
88.0983 432.00
88.4026 477.00
88.7069 484.00
89.0111 455.00
89.3154 460.00
89.6196 450.00
89.9239 463.00
90.2282 502.00
90.5324 413.00
90.8367 446.00
91.1409 449.00
91.4452 434.00
91.7495 421.00
92.0537 467.00
92.358 505.00
92.6622 557.00
92.9665 473.00
93.2708 450.00
93.575 415.00
93.8793 390.00
94.1835 403.00
94.4878 389.00
94.7921 429.00
95.0963 451.00
95.4006 527.00
95.7048 452.00
96.0091 425.00
96.3134 460.00
96.6176 609.00
96.9219 524.00
97.2261 434.00
97.5304 464.00
97.8347 526.00
98.1389 504.00
98.4432 483.00
98.7474 450.00
99.0517 450.00
99.356 532.00
99.6602 516.00
99.9645 397.00
100.095 431.00

File: NSC_43.xy
9.903433 2772.00
10.2077 2686.00
10.512 2608.00
10.8162 2465.00
11.1205 2421.00
11.4247 2392.00
11.729 2291.00
12.0333 2198.00
12.3375 2153.00
12.6418 2047.00
12.946 2035.00
13.2503 2040.00
13.5546 2015.00
13.8588 2158.00
14.1631 2278.00
14.4673 1812.00
14.7716 1772.00
15.0759 1722.00
15.3801 1862.00
15.6844 1661.00
15.9886 1707.00
16.2929 1588.00
16.5972 1688.00
16.9014 1670.00
17.2057 1575.00
17.5099 1587.00
17.8142 1692.00
18.1185 1503.00
18.4227 1519.00
18.727 1537.00
19.0312 1489.00
19.3355 1644.00
19.6398 3008.00
19.944 3670.00
20.2483 1562.00
20.5525 1982.00
20.8568 4695.00
21.1611 1870.00
21.4653 2006.00
21.7696 1432.00
22.0738 1384.00
22.3781 1391.00
22.6824 1333.00
22.9866 1594.00
23.2909 2854.00
23.5951 1313.00
23.8994 1279.00
24.2037 1345.00
24.5079 1298.00
24.8122 1187.00
25.1164 1178.00
25.4207 1156.00
25.725 1109.00
26.0292 1181.00
26.3335 1115.00
26.6378 1146.00
26.942 1086.00
27.2463 1312.00
27.5505 1632.00
27.8548 1338.00
28.1591 2596.00
28.4633 1174.00
28.7676 1022.00
29.0718 1065.00
29.3761 1145.00
29.6804 1358.00
29.9846 1907.00
30.2889 1113.00
30.5931 1445.00
30.8974 1953.00
31.2017 2609.00
31.5059 4872.00
31.8102 1080.00
32.1144 957.00
32.4187 902.00
32.723 995.00
33.0272 925.00
33.3315 970.00
33.6357 983.00
33.94 1017.00
34.2443 2648.00
34.5485 3958.00
34.8528 4186.00
35.157 1079.00
35.4613 940.00
35.7656 1082.00
36.0698 936.00
36.3741 857.00
36.6783 797.00
36.9826 773.00
37.2869 874.00
37.5911 850.00
37.8954 870.00
38.1996 815.00
38.5039 980.00
38.8082 1159.00
39.1124 942.00
39.4167 958.00
39.7209 794.00
40.0252 879.00
40.3295 847.00
40.6337 915.00
40.938 710.00
41.2422 736.00
41.5465 744.00
41.8508 837.00
42.155 1062.00
42.4593 1165.00
42.7635 1241.00
43.0678 857.00
43.3721 770.00
43.6763 962.00
43.9806 714.00
44.2849 630.00
44.5891 684.00
44.8934 878.00
45.1976 1106.00
45.5019 862.00
45.8062 764.00
46.1104 732.00
46.4147 690.00
46.7189 679.00
47.0232 1076.00
47.3275 1476.00
47.6317 2114.00
47.936 739.00
48.2402 644.00
48.5445 672.00
48.8488 692.00
49.153 961.00
49.4573 1088.00
49.7615 699.00
50.0658 656.00
50.3701 644.00
50.6743 576.00
50.9786 664.00
51.2828 1045.00
51.5871 1485.00
51.8914 781.00
52.1956 651.00
52.4999 613.00
52.8041 557.00
53.1084 615.00
53.4127 607.00
53.7169 664.00
54.0212 1003.00
54.3254 1787.00
54.6297 715.00
54.934 571.00
55.2382 597.00
55.5425 563.00
55.8467 592.00
56.151 626.00
56.4553 585.00
56.7595 571.00
57.0638 642.00
57.368 610.00
57.6723 623.00
57.9766 618.00
58.2808 595.00
58.5851 556.00
58.8893 551.00
59.1936 702.00
59.4979 959.00
59.8021 1184.00
60.1064 1625.00
60.4106 962.00
60.7149 702.00
61.0192 800.00
61.3234 1000.00
61.6277 1282.00
61.932 685.00
62.2362 1016.00
62.5405 695.00
62.8447 564.00
63.149 613.00
63.4533 720.00
63.7575 748.00
64.0618 547.00
64.366 483.00
64.6703 448.00
64.9745 495.00
65.2788 576.00
65.5831 711.00
65.8873 648.00
66.1916 579.00
66.4959 547.00
66.8001 556.00
67.1044 634.00
67.4086 849.00
67.7129 770.00
68.0172 639.00
68.3214 519.00
68.6257 544.00
68.9299 510.00
69.2342 470.00
69.5385 664.00
69.8427 554.00
70.147 462.00
70.4512 444.00
70.7555 472.00
71.0598 442.00
71.364 428.00
71.6683 426.00
71.9725 550.00
72.2768 654.00
72.5811 508.00
72.8853 460.00
73.1896 658.00
73.4938 568.00
73.7981 468.00
74.1024 507.00
74.4066 621.00
74.7109 509.00
75.0151 459.00
75.3194 468.00
75.6237 477.00
75.9279 462.00
76.2322 529.00
76.5364 529.00
76.8407 559.00
77.145 458.00
77.4492 465.00
77.7535 430.00
78.0577 552.00
78.362 465.00
78.6663 417.00
78.9705 406.00
79.2748 397.00
79.579 428.00
79.8833 444.00
80.1876 451.00
80.4918 373.00
80.7961 459.00
81.1003 517.00
81.4046 595.00
81.7089 705.00
82.0131 590.00
82.3174 564.00
82.6217 570.00
82.9259 494.00
83.2302 502.00
83.5344 515.00
83.8387 458.00
84.143 398.00
84.4472 385.00
84.7515 385.00
85.0557 381.00
85.36 409.00
85.6643 424.00
85.9685 404.00
86.2728 414.00
86.577 372.00
86.8813 415.00
87.1856 407.00
87.4898 418.00
87.7941 396.00
88.0983 474.00
88.4026 543.00
88.7069 503.00
89.0111 407.00
89.3154 429.00
89.6196 405.00
89.9239 385.00
90.2282 408.00
90.5324 393.00
90.8367 398.00
91.1409 430.00
91.4452 411.00
91.7495 443.00
92.0537 446.00
92.358 479.00
92.6622 391.00
92.9665 415.00
93.2708 414.00
93.575 456.00
93.8793 431.00
94.1835 404.00
94.4878 400.00
94.7921 426.00
95.0963 527.00
95.4006 443.00
95.7048 441.00
96.0091 447.00
96.3134 393.00
96.6176 432.00
96.9219 402.00
97.2261 476.00
97.5304 422.00
97.8347 386.00
98.1389 392.00
98.4432 370.00
98.7474 327.00
99.0517 363.00
99.356 419.00
99.6602 435.00
99.9645 400.00
100.095 373.00