Folder: alab-pipeline/data/xrd_creation/results (part 81)

File: PG_1320-1.xy
10.0094 3973.00
10.3137 4076.00
10.618 3874.00
10.9222 3891.00
11.2265 3893.00
11.5307 3790.00
11.835 3759.00
12.1393 3708.00
12.4435 3821.00
12.7478 3687.00
13.052 3761.00
13.3563 3666.00
13.6606 3702.00
13.9648 3737.00
14.2691 3686.00
14.5733 3675.00
14.8776 3753.00
15.1819 3615.00
15.4861 3720.00
15.7904 3615.00
16.0946 3732.00
16.3989 3681.00
16.7032 3735.00
17.0074 3623.00
17.3117 3848.00
17.6159 4298.00
17.9202 3658.00
18.2245 3656.00
18.5287 3604.00
18.833 3683.00
19.1372 3677.00
19.4415 3580.00
19.7458 3655.00
20.05 3582.00
20.3543 3563.00
20.6585 3536.00
20.9628 3503.00
21.2671 3522.00
21.5713 3316.00
21.8756 3427.00
22.1798 3506.00
22.4841 3445.00
22.7884 3496.00
23.0926 3487.00
23.3969 3539.00
23.7011 3494.00
24.0054 5156.00
24.3097 5019.00
24.6139 3811.00
24.9182 3399.00
25.2224 3477.00
25.5267 3418.00
25.831 3376.00
26.1352 3350.00
26.4395 3337.00
26.7438 3368.00
27.048 3357.00
27.3523 3338.00
27.6565 3282.00
27.9608 3414.00
28.2651 3428.00
28.5693 3317.00
28.8736 3235.00
29.1778 3252.00
29.4821 3283.00
29.7864 3338.00
30.0906 3862.00
30.3949 3407.00
30.6991 3516.00
31.0034 11329.00
31.3077 3450.00
31.6119 3356.00
31.9162 3289.00
32.2204 3313.00
32.5247 3260.00
32.829 3325.00
33.1332 3561.00
33.4375 9387.00
33.7417 3439.00
34.046 3377.00
34.3503 5094.00
34.6545 3231.00
34.9588 3309.00
35.263 3341.00
35.5673 3946.00
35.8716 5970.00
36.1758 3483.00
36.4801 3206.00
36.7843 3300.00
37.0886 3225.00
37.3929 3129.00
37.6971 3248.00
38.0014 3275.00
38.3056 3291.00
38.6099 3393.00
38.9142 3266.00
39.2184 3156.00
39.5227 3326.00
39.8269 3267.00
40.1312 3120.00
40.4355 3155.00
40.7397 3158.00
41.044 3797.00
41.3482 3291.00
41.6525 3288.00
41.9568 3073.00
42.261 3200.00
42.5653 3165.00
42.8695 3095.00
43.1738 3053.00
43.4781 3213.00
43.7823 3194.00
44.0866 3157.00
44.3909 3110.00
44.6951 3029.00
44.9994 3091.00
45.3036 3137.00
45.6079 3155.00
45.9122 3315.00
46.2164 3453.00
46.5207 3230.00
46.8249 5591.00
47.1292 3104.00
47.4335 3176.00
47.7377 3078.00
48.042 3278.00
48.3462 3081.00
48.6505 3113.00
48.9548 3083.00
49.259 3215.00
49.5633 3362.00
49.8675 4256.00
50.1718 3057.00
50.4761 3051.00
50.7803 3217.00
51.0846 3020.00
51.3888 3076.00
51.6931 3000.00
51.9974 3060.00
52.3016 3037.00
52.6059 3076.00
52.9101 3095.00
53.2144 3042.00
53.5187 2976.00
53.8229 3131.00
54.1272 3310.00
54.4314 4596.00
54.7357 3276.00
55.04 3042.00
55.3442 4158.00
55.6485 3044.00
55.9527 3035.00
56.257 3060.00
56.5613 3119.00
56.8655 3062.00
57.1698 3019.00
57.474 3089.00
57.7783 3526.00
58.0826 3101.00
58.3868 3124.00
58.6911 3696.00
58.9953 3358.00
59.2996 3311.00
59.6039 3102.00
59.9081 3120.00
60.2124 3001.00
60.5166 3092.00
60.8209 3077.00
61.1252 3019.00
61.4294 3109.00
61.7337 3034.00
62.0379 3046.00
62.3422 3132.00
62.6465 4486.00
62.9507 3425.00
63.255 3123.00
63.5592 2980.00
63.8635 3234.00
64.1678 3955.00
64.472 4123.00
64.7763 3090.00
65.0806 2969.00
65.3848 3131.00
65.6891 2900.00
65.9933 3002.00
66.2976 2994.00
66.6019 3092.00
66.9061 3120.00
67.2104 2978.00
67.5146 3071.00
67.8189 2967.00
68.1232 3042.00
68.4274 3087.00
68.7317 3159.00
69.0359 2983.00
69.3402 3094.00
69.6445 3021.00
69.9487 4284.00
70.253 3088.00
70.5572 2922.00
70.8615 2963.00
71.1658 3070.00
71.47 3110.00
71.7743 3251.00
72.0785 3546.00
72.3828 3194.00
72.6871 3056.00
72.9913 3008.00
73.2956 3072.00
73.5998 2886.00
73.9041 3055.00
74.2084 3012.00
74.5126 3139.00
74.8169 3123.00
75.1211 3035.00
75.4254 3094.00
75.7297 3376.00
76.0339 3135.00
76.3382 3041.00
76.6424 3080.00
76.9467 3143.00
77.251 3111.00
77.5552 3033.00
77.8595 3052.00
78.1637 3111.00
78.468 3000.00
78.7723 3011.00
79.0765 3042.00
79.3808 3012.00
79.685 3450.00
79.9893 3461.00
80.2936 3332.00
80.5978 3088.00
80.9021 3306.00
81.2063 3059.00
81.5106 3044.00
81.8149 3156.00
82.1191 3262.00
82.4234 3086.00
82.7277 3124.00
83.0319 3190.00
83.3362 3189.00
83.6404 3015.00
83.9447 3078.00
84.249 2994.00
84.5532 3068.00
84.8575 3070.00
85.1617 3470.00
85.466 3141.00
85.7703 3155.00
86.0745 3003.00
86.3788 2994.00
86.683 2977.00
86.9873 3132.00
87.2916 2993.00
87.5958 2968.00
87.9001 3071.00
88.2043 3041.00
88.5086 3163.00
88.8129 3218.00
89.1171 3152.00
89.4214 3106.00
89.7256 3052.00
90.0299 3120.00
90.3342 3128.00
90.6384 3014.00
90.9427 3014.00
91.2469 3069.00
91.5512 3032.00
91.8555 3113.00
92.1597 3067.00
92.464 3011.00
92.7682 2998.00
93.0725 3027.00
93.3768 3030.00
93.681 3065.00
93.9853 3104.00
94.2895 3086.00
94.5938 3117.00
94.8981 3034.00
95.2023 3078.00
95.5066 3360.00
95.8108 3414.00
96.1151 3108.00
96.4194 3112.00
96.7236 3027.00
97.0279 3046.00
97.3321 3060.00
97.6364 2973.00
97.9407 2976.00
98.2449 3030.00
98.5492 2992.00
98.8534 3074.00
99.1577 3092.00
99.462 3141.00
99.7662 3368.00
99.9944 3098.00

File: PG_1321-1.xy
10.0094 2555.00
10.3137 2459.00
10.618 2327.00
10.9222 2222.00
11.2265 2154.00
11.5307 2125.00
11.835 2029.00
12.1393 2060.00
12.4435 2024.00
12.7478 1891.00
13.052 1795.00
13.3563 1896.00
13.6606 1873.00
13.9648 1878.00
14.2691 1773.00
14.5733 1812.00
14.8776 1797.00
15.1819 1824.00
15.4861 1994.00
15.7904 3930.00
16.0946 3118.00
16.3989 1863.00
16.7032 1782.00
17.0074 1724.00
17.3117 1634.00
17.6159 1662.00
17.9202 1620.00
18.2245 1610.00
18.5287 1510.00
18.833 1629.00
19.1372 1554.00
19.4415 1529.00
19.7458 1541.00
20.05 1460.00
20.3543 1550.00
20.6585 1502.00
20.9628 1383.00
21.2671 1479.00
21.5713 1484.00
21.8756 1328.00
22.1798 1451.00
22.4841 1438.00
22.7884 1354.00
23.0926 1401.00
23.3969 1370.00
23.7011 1365.00
24.0054 1392.00
24.3097 1481.00
24.6139 1342.00
24.9182 1302.00
25.2224 1402.00
25.5267 1255.00
25.831 1313.00
26.1352 1281.00
26.4395 1414.00
26.7438 1367.00
27.048 1493.00
27.3523 2513.00
27.6565 4527.00
27.9608 2374.00
28.2651 7713.00
28.5693 1984.00
28.8736 1414.00
29.1778 1350.00
29.4821 1319.00
29.7864 1251.00
30.0906 1276.00
30.3949 1279.00
30.6991 1243.00
31.0034 1233.00
31.3077 1212.00
31.6119 1446.00
31.9162 2243.00
32.2204 1339.00
32.5247 1314.00
32.829 1247.00
33.1332 1307.00
33.4375 3130.00
33.7417 1272.00
34.046 1186.00
34.3503 1146.00
34.6545 1209.00
34.9588 1210.00
35.263 1287.00
35.5673 1224.00
35.8716 2192.00
36.1758 1537.00
36.4801 1332.00
36.7843 1212.00
37.0886 1175.00
37.3929 1157.00
37.6971 1118.00
38.0014 1198.00
38.3056 1205.00
38.6099 1125.00
38.9142 1174.00
39.2184 1268.00
39.5227 2276.00
39.8269 5038.00
40.1312 1682.00
40.4355 1273.00
40.7397 1162.00
41.044 1404.00
41.3482 1184.00
41.6525 1135.00
41.9568 1143.00
42.261 1287.00
42.5653 1869.00
42.8695 1235.00
43.1738 1168.00
43.4781 1100.00
43.7823 1127.00
44.0866 1105.00
44.3909 1072.00
44.6951 1073.00
44.9994 1152.00
45.3036 1078.00
45.6079 1107.00
45.9122 1081.00
46.2164 1079.00
46.5207 1160.00
46.8249 1119.00
47.1292 1269.00
47.4335 1782.00
47.7377 1246.00
48.042 1308.00
48.3462 2206.00
48.6505 2929.00
48.9548 4534.00
49.259 1857.00
49.5633 1396.00
49.8675 1659.00
50.1718 1620.00
50.4761 1274.00
50.7803 1136.00
51.0846 1096.00
51.3888 1083.00
51.6931 1102.00
51.9974 1020.00
52.3016 1079.00
52.6059 1122.00
52.9101 1052.00
53.2144 1012.00
53.5187 1042.00
53.8229 1138.00
54.1272 1191.00
54.4314 1607.00
54.7357 1153.00
55.04 1090.00
55.3442 1454.00
55.6485 1923.00
55.9527 1242.00
56.257 1160.00
56.5613 1518.00
56.8655 1250.00
57.1698 1094.00
57.474 1151.00
57.7783 1337.00
58.0826 1322.00
58.3868 1201.00
58.6911 1126.00
58.9953 1227.00
59.2996 1221.00
59.6039 1042.00
59.9081 1031.00
60.2124 1033.00
60.5166 1006.00
60.8209 1086.00
61.1252 1081.00
61.4294 1091.00
61.7337 1030.00
62.0379 1007.00
62.3422 1146.00
62.6465 1643.00
62.9507 1167.00
63.255 1158.00
63.5592 1074.00
63.8635 1158.00
64.1678 1924.00
64.472 1799.00
64.7763 1238.00
65.0806 1163.00
65.3848 1389.00
65.6891 1153.00
65.9933 1125.00
66.2976 1205.00
66.6019 1105.00
66.9061 1046.00
67.2104 977.00
67.5146 1055.00
67.8189 1069.00
68.1232 1066.00
68.4274 1076.00
68.7317 1022.00
69.0359 1065.00
69.3402 1097.00
69.6445 1234.00
69.9487 1721.00
70.253 1275.00
70.5572 1128.00
70.8615 1130.00
71.1658 1218.00
71.47 1150.00
71.7743 1117.00
72.0785 1255.00
72.3828 1179.00
72.6871 1068.00
72.9913 1118.00
73.2956 1083.00
73.5998 1047.00
73.9041 1073.00
74.2084 1059.00
74.5126 1028.00
74.8169 1094.00
75.1211 1077.00
75.4254 1047.00
75.7297 1302.00
76.0339 1349.00
76.3382 1414.00
76.6424 1404.00
76.9467 1243.00
77.251 1408.00
77.5552 1739.00
77.8595 1777.00
78.1637 1367.00
78.468 1171.00
78.7723 1301.00
79.0765 1189.00
79.3808 1028.00
79.685 1058.00
79.9893 1014.00
80.2936 1059.00
80.5978 954.00
80.9021 1093.00
81.2063 1041.00
81.5106 1070.00
81.8149 1048.00
82.1191 1082.00
82.4234 1238.00
82.7277 1193.00
83.0319 1196.00
83.3362 1097.00
83.6404 1046.00
83.9447 1019.00
84.249 1043.00
84.5532 1099.00
84.8575 1113.00
85.1617 1270.00
85.466 1220.00
85.7703 1070.00
86.0745 1041.00
86.3788 1080.00
86.683 1040.00
86.9873 1093.00
87.2916 1043.00
87.5958 1042.00
87.9001 991.00
88.2043 1052.00
88.5086 1154.00
88.8129 1402.00
89.1171 1323.00
89.4214 1184.00
89.7256 1058.00
90.0299 1140.00
90.3342 1233.00
90.6384 1264.00
90.9427 1214.00
91.2469 1200.00
91.5512 1193.00
91.8555 1095.00
92.1597 1103.00
92.464 1122.00
92.7682 1066.00
93.0725 1078.00
93.3768 1091.00
93.681 1138.00
93.9853 1081.00
94.2895 1067.00
94.5938 1083.00
94.8981 1074.00
95.2023 1122.00
95.5066 1236.00
95.8108 1412.00
96.1151 1288.00
96.4194 1234.00
96.7236 1267.00
97.0279 1299.00
97.3321 1241.00
97.6364 1137.00
97.9407 1089.00
98.2449 1068.00
98.5492 1064.00
98.8534 1100.00
99.1577 1076.00
99.462 1045.00
99.7662 1093.00
99.9944 1046.00

File: PG_1322-1.xy
10.0094 5416.00
10.3137 5517.00
10.618 5369.00
10.9222 5424.00
11.2265 5664.00
11.5307 5624.00
11.835 5669.00
12.1393 5556.00
12.4435 5540.00
12.7478 5545.00
13.052 5658.00
13.3563 5722.00
13.6606 5659.00
13.9648 5641.00
14.2691 5721.00
14.5733 5677.00
14.8776 5737.00
15.1819 5824.00
15.4861 5796.00
15.7904 5814.00
16.0946 5736.00
16.3989 5787.00
16.7032 5879.00
17.0074 5927.00
17.3117 5786.00
17.6159 5800.00
17.9202 5841.00
18.2245 5906.00
18.5287 5831.00
18.833 5800.00
19.1372 5958.00
19.4415 5814.00
19.7458 5985.00
20.05 5891.00
20.3543 5978.00
20.6585 5908.00
20.9628 5871.00
21.2671 6055.00
21.5713 6306.00
21.8756 6054.00
22.1798 5989.00
22.4841 6024.00
22.7884 6127.00
23.0926 6027.00
23.3969 5903.00
23.7011 6107.00
24.0054 6104.00
24.3097 6565.00
24.6139 6560.00
24.9182 6118.00
25.2224 5964.00
25.5267 6094.00
25.831 6108.00
26.1352 6059.00
26.4395 6018.00
26.7438 5963.00
27.048 5950.00
27.3523 5976.00
27.6565 6077.00
27.9608 6078.00
28.2651 6041.00
28.5693 6009.00
28.8736 6048.00
29.1778 6151.00
29.4821 6032.00
29.7864 6189.00
30.0906 6075.00
30.3949 6124.00
30.6991 6078.00
31.0034 6802.00
31.3077 5978.00
31.6119 6105.00
31.9162 6328.00
32.2204 7361.00
32.5247 6132.00
32.829 6028.00
33.1332 6309.00
33.4375 12357.00
33.7417 6576.00
34.046 6314.00
34.3503 6371.00
34.6545 6060.00
34.9588 5991.00
35.263 6085.00
35.5673 6215.00
35.8716 8581.00
36.1758 6574.00
36.4801 6884.00
36.7843 5971.00
37.0886 6286.00
37.3929 6427.00
37.6971 6244.00
38.0014 6098.00
38.3056 6138.00
38.6099 6022.00
38.9142 6015.00
39.2184 6118.00
39.5227 6144.00
39.8269 6305.00
40.1312 6133.00
40.4355 6200.00
40.7397 6230.00
41.044 6488.00
41.3482 6610.00
41.6525 5974.00
41.9568 6116.00
42.261 6100.00
42.5653 6010.00
42.8695 6211.00
43.1738 6157.00
43.4781 6040.00
43.7823 6313.00
44.0866 6120.00
44.3909 6037.00
44.6951 6110.00
44.9994 5985.00
45.3036 6001.00
45.6079 6228.00
45.9122 6076.00
46.2164 6026.00
46.5207 6082.00
46.8249 6052.00
47.1292 6038.00
47.4335 5975.00
47.7377 6039.00
48.042 6034.00
48.3462 6129.00
48.6505 6130.00
48.9548 6156.00
49.259 6214.00
49.5633 6337.00
49.8675 7955.00
50.1718 6388.00
50.4761 6079.00
50.7803 6174.00
51.0846 6081.00
51.3888 6035.00
51.6931 6207.00
51.9974 6091.00
52.3016 6098.00
52.6059 6155.00
52.9101 6160.00
53.2144 6043.00
53.5187 6065.00
53.8229 6253.00
54.1272 6407.00
54.4314 8610.00
54.7357 6333.00
55.04 6257.00
55.3442 6060.00
55.6485 6057.00
55.9527 6176.00
56.257 6121.00
56.5613 6105.00
56.8655 6053.00
57.1698 6175.00
57.474 6117.00
57.7783 6476.00
58.0826 6489.00
58.3868 6118.00
58.6911 6165.00
58.9953 6222.00
59.2996 6228.00
59.6039 6066.00
59.9081 6215.00
60.2124 6233.00
60.5166 6091.00
60.8209 6181.00
61.1252 6005.00
61.4294 6104.00
61.7337 6054.00
62.0379 6031.00
62.3422 6038.00
62.6465 7241.00
62.9507 7108.00
63.255 6246.00
63.5592 6161.00
63.8635 6335.00
64.1678 6543.00
64.472 7778.00
64.7763 6245.00
65.0806 6085.00
65.3848 6190.00
65.6891 6169.00
65.9933 6168.00
66.2976 6130.00
66.6019 6214.00
66.9061 6237.00
67.2104 6135.00
67.5146 6037.00
67.8189 6274.00
68.1232 6170.00
68.4274 6144.00
68.7317 6316.00
69.0359 6131.00
69.3402 6326.00
69.6445 6184.00
69.9487 6140.00
70.253 6222.00
70.5572 6218.00
70.8615 6164.00
71.1658 6142.00
71.47 6076.00
71.7743 6344.00
72.0785 6563.00
72.3828 6601.00
72.6871 6211.00
72.9913 6136.00
73.2956 6185.00
73.5998 6123.00
73.9041 6252.00
74.2084 6129.00
74.5126 6165.00
74.8169 6255.00
75.1211 6124.00
75.4254 6137.00
75.7297 6717.00
76.0339 6200.00
76.3382 6274.00
76.6424 6122.00
76.9467 6226.00
77.251 6173.00
77.5552 6195.00
77.8595 6269.00
78.1637 6284.00
78.468 6216.00
78.7723 6206.00
79.0765 6238.00
79.3808 6339.00
79.685 6156.00
79.9893 6198.00
80.2936 6182.00
80.5978 6359.00
80.9021 6456.00
81.2063 6392.00
81.5106 6242.00
81.8149 6194.00
82.1191 6262.00
82.4234 6237.00
82.7277 6143.00
83.0319 6066.00
83.3362 6446.00
83.6404 6298.00
83.9447 6195.00
84.249 6214.00
84.5532 6173.00
84.8575 6124.00
85.1617 6844.00
85.466 6442.00
85.7703 6233.00
86.0745 6208.00
86.3788 6198.00
86.683 6112.00
86.9873 6243.00
87.2916 6127.00
87.5958 6146.00
87.9001 6202.00
88.2043 6223.00
88.5086 6279.00
88.8129 6655.00
89.1171 6397.00
89.4214 6191.00
89.7256 6092.00
90.0299 6186.00
90.3342 6167.00
90.6384 6240.00
90.9427 6319.00
91.2469 6243.00
91.5512 6171.00
91.8555 6207.00
92.1597 6201.00
92.464 6234.00
92.7682 6300.00
93.0725 6215.00
93.3768 6282.00
93.681 6289.00
93.9853 6584.00
94.2895 6460.00
94.5938 6352.00
94.8981 6264.00
95.2023 6232.00
95.5066 6221.00
95.8108 6143.00
96.1151 6213.00
96.4194 6123.00
96.7236 6290.00
97.0279 6400.00
97.3321 6251.00
97.6364 6201.00
97.9407 6326.00
98.2449 6125.00
98.5492 6305.00
98.8534 6292.00
99.1577 6208.00
99.462 6082.00
99.7662 6347.00
99.9944 6295.00

File: PG_1417-1.xy
10.0094 2538.00
10.3137 2469.00
10.618 2357.00
10.9222 2355.00
11.2265 2316.00
11.5307 2272.00
11.835 2083.00
12.1393 2079.00
12.4435 2110.00
12.7478 1957.00
13.052 1999.00
13.3563 1942.00
13.6606 1825.00
13.9648 1840.00
14.2691 1806.00
14.5733 1774.00
14.8776 1745.00
15.1819 1736.00
15.4861 1759.00
15.7904 1757.00
16.0946 1691.00
16.3989 1746.00
16.7032 1711.00
17.0074 1681.00
17.3117 1669.00
17.6159 1675.00
17.9202 2044.00
18.2245 1742.00
18.5287 1923.00
18.833 3067.00
19.1372 2216.00
19.4415 1804.00
19.7458 1554.00
20.05 1482.00
20.3543 1482.00
20.6585 1520.00
20.9628 1473.00
21.2671 1376.00
21.5713 1493.00
21.8756 1467.00
22.1798 1409.00
22.4841 1359.00
22.7884 1471.00
23.0926 1536.00
23.3969 1606.00
23.7011 1507.00
24.0054 1507.00
24.3097 1663.00
24.6139 2542.00
24.9182 2348.00
25.2224 1658.00
25.5267 1428.00
25.831 1402.00
26.1352 1384.00
26.4395 1295.00
26.7438 1338.00
27.048 1358.00
27.3523 1354.00
27.6565 1370.00
27.9608 1557.00
28.2651 2190.00
28.5693 4670.00
28.8736 3728.00
29.1778 1636.00
29.4821 1493.00
29.7864 1462.00
30.0906 1950.00
30.3949 1394.00
30.6991 1365.00
31.0034 1331.00
31.3077 1428.00
31.6119 2011.00
31.9162 4336.00
32.2204 2693.00
32.5247 1397.00
32.829 1277.00
33.1332 1274.00
33.4375 1203.00
33.7417 1251.00
34.046 1444.00
34.3503 1604.00
34.6545 3095.00
34.9588 2894.00
35.263 1411.00
35.5673 1485.00
35.8716 2992.00
36.1758 1381.00
36.4801 1642.00
36.7843 1125.00
37.0886 1119.00
37.3929 1181.00
37.6971 1085.00
38.0014 1142.00
38.3056 1128.00
38.6099 1126.00
38.9142 1231.00
39.2184 1619.00
39.5227 1174.00
39.8269 1029.00
40.1312 1120.00
40.4355 1103.00
40.7397 1156.00
41.044 1282.00
41.3482 1928.00
41.6525 1416.00
41.9568 1333.00
42.261 1149.00
42.5653 988.00
42.8695 1072.00
43.1738 1072.00
43.4781 983.00
43.7823 995.00
44.0866 1025.00
44.3909 961.00
44.6951 1012.00
44.9994 1169.00
45.3036 1168.00
45.6079 1219.00
45.9122 1156.00
46.2164 1336.00
46.5207 1088.00
46.8249 1065.00
47.1292 1019.00
47.4335 1060.00
47.7377 984.00
48.042 923.00
48.3462 1004.00
48.6505 995.00
48.9548 1027.00
49.259 1062.00
49.5633 1263.00
49.8675 2193.00
50.1718 1272.00
50.4761 1387.00
50.7803 2684.00
51.0846 1539.00
51.3888 1322.00
51.6931 1091.00
51.9974 1164.00
52.3016 993.00
52.6059 945.00
52.9101 933.00
53.2144 947.00
53.5187 929.00
53.8229 931.00
54.1272 997.00
54.4314 1070.00
54.7357 1572.00
55.04 1124.00
55.3442 1041.00
55.6485 1176.00
55.9527 1760.00
56.257 1668.00
56.5613 1563.00
56.8655 1113.00
57.1698 1055.00
57.474 1068.00
57.7783 1361.00
58.0826 1176.00
58.3868 1185.00
58.6911 1332.00
58.9953 1232.00
59.2996 1025.00
59.6039 975.00
59.9081 972.00
60.2124 1069.00
60.5166 1566.00
60.8209 1329.00
61.1252 993.00
61.4294 1008.00
61.7337 1037.00
62.0379 1340.00
62.3422 1109.00
62.6465 1442.00
62.9507 1085.00
63.255 1069.00
63.5592 1396.00
63.8635 1174.00
64.1678 955.00
64.472 951.00
64.7763 1000.00
65.0806 1056.00
65.3848 959.00
65.6891 977.00
65.9933 1053.00
66.2976 1207.00
66.6019 1249.00
66.9061 964.00
67.2104 898.00
67.5146 911.00
67.8189 896.00
68.1232 902.00
68.4274 904.00
68.7317 869.00
69.0359 922.00
69.3402 909.00
69.6445 1025.00
69.9487 1002.00
70.253 917.00
70.5572 841.00
70.8615 932.00
71.1658 893.00
71.47 951.00
71.7743 1093.00
72.0785 1207.00
72.3828 971.00
72.6871 913.00
72.9913 1046.00
73.2956 1029.00
73.5998 949.00
73.9041 939.00
74.2084 896.00
74.5126 917.00
74.8169 836.00
75.1211 971.00
75.4254 1011.00
75.7297 1070.00
76.0339 1077.00
76.3382 936.00
76.6424 872.00
76.9467 949.00
77.251 1045.00
77.5552 904.00
77.8595 963.00
78.1637 1024.00
78.468 966.00
78.7723 1012.00
79.0765 985.00
79.3808 968.00
79.685 1088.00
79.9893 972.00
80.2936 880.00
80.5978 918.00
80.9021 911.00
81.2063 956.00
81.5106 937.00
81.8149 956.00
82.1191 977.00
82.4234 1073.00
82.7277 967.00
83.0319 953.00
83.3362 1024.00
83.6404 1005.00
83.9447 1125.00
84.249 966.00
84.5532 974.00
84.8575 1047.00
85.1617 995.00
85.466 966.00
85.7703 1013.00
86.0745 952.00
86.3788 948.00
86.683 938.00
86.9873 1024.00
87.2916 953.00
87.5958 939.00
87.9001 965.00
88.2043 1049.00
88.5086 961.00
88.8129 1009.00
89.1171 1104.00
89.4214 1098.00
89.7256 1016.00
90.0299 965.00
90.3342 1070.00
90.6384 1045.00
90.9427 1076.00
91.2469 999.00
91.5512 946.00
91.8555 957.00
92.1597 969.00
92.464 974.00
92.7682 955.00
93.0725 903.00
93.3768 952.00
93.681 944.00
93.9853 987.00
94.2895 950.00
94.5938 959.00
94.8981 1025.00
95.2023 937.00
95.5066 994.00
95.8108 1032.00
96.1151 1118.00
96.4194 1032.00
96.7236 979.00
97.0279 1128.00
97.3321 1125.00
97.6364 1185.00
97.9407 1201.00
98.2449 1033.00
98.5492 1005.00
98.8534 1105.00
99.1577 1022.00
99.462 1121.00
99.7662 1122.00
99.9944 1112.00

File: PG_1418-1.xy
10.0094 3437.00
10.3137 3432.00
10.618 3291.00
10.9222 3243.00
11.2265 3225.00
11.5307 3123.00
11.835 3313.00
12.1393 3158.00
12.4435 3041.00
12.7478 3036.00
13.052 3019.00
13.3563 2936.00
13.6606 2991.00
13.9648 2880.00
14.2691 3039.00
14.5733 2876.00
14.8776 2924.00
15.1819 2829.00
15.4861 2916.00
15.7904 2935.00
16.0946 2811.00
16.3989 2849.00
16.7032 2836.00
17.0074 2896.00
17.3117 2974.00
17.6159 2894.00
17.9202 2960.00
18.2245 3122.00
18.5287 3913.00
18.833 6512.00
19.1372 5791.00
19.4415 2996.00
19.7458 2836.00
20.05 2782.00
20.3543 2696.00
20.6585 2773.00
20.9628 2795.00
21.2671 2716.00
21.5713 3048.00
21.8756 3818.00
22.1798 2778.00
22.4841 2774.00
22.7884 2689.00
23.0926 3127.00
23.3969 2780.00
23.7011 2784.00
24.0054 2704.00
24.3097 2627.00
24.6139 2818.00
24.9182 2988.00
25.2224 2671.00
25.5267 2567.00
25.831 2431.00
26.1352 2503.00
26.4395 2482.00
26.7438 2583.00
27.048 2470.00
27.3523 2523.00
27.6565 2486.00
27.9608 2418.00
28.2651 2489.00
28.5693 2461.00
28.8736 2421.00
29.1778 2543.00
29.4821 2563.00
29.7864 2987.00
30.0906 4567.00
30.3949 3202.00
30.6991 6466.00
31.0034 8846.00
31.3077 2971.00
31.6119 2514.00
31.9162 2361.00
32.2204 2356.00
32.5247 2442.00
32.829 2285.00
33.1332 2309.00
33.4375 2515.00
33.7417 2330.00
34.046 3104.00
34.3503 2570.00
34.6545 2619.00
34.9588 2375.00
35.263 2518.00
35.5673 3330.00
35.8716 4869.00
36.1758 2423.00
36.4801 2274.00
36.7843 2270.00
37.0886 2261.00
37.3929 2235.00
37.6971 2361.00
38.0014 3398.00
38.3056 2276.00
38.6099 2251.00
38.9142 2205.00
39.2184 2189.00
39.5227 2151.00
39.8269 2199.00
40.1312 2628.00
40.4355 2283.00
40.7397 2353.00
41.044 2182.00
41.3482 2125.00
41.6525 2247.00
41.9568 2361.00
42.261 2577.00
42.5653 2265.00
42.8695 2350.00
43.1738 2251.00
43.4781 2222.00
43.7823 2025.00
44.0866 2385.00
44.3909 2220.00
44.6951 2261.00
44.9994 2420.00
45.3036 2278.00
45.6079 2301.00
45.9122 3642.00
46.2164 2356.00
46.5207 2242.00
46.8249 2458.00
47.1292 2357.00
47.4335 2405.00
47.7377 2257.00
48.042 2089.00
48.3462 2411.00
48.6505 2144.00
48.9548 2020.00
49.259 2112.00
49.5633 2734.00
49.8675 2180.00
50.1718 2163.00
50.4761 2659.00
50.7803 2482.00
51.0846 2964.00
51.3888 6739.00
51.6931 2546.00
51.9974 2096.00
52.3016 2048.00
52.6059 2100.00
52.9101 2365.00
53.2144 2233.00
53.5187 2087.00
53.8229 2072.00
54.1272 2023.00
54.4314 2102.00
54.7357 2066.00
55.04 2050.00
55.3442 2090.00
55.6485 1997.00
55.9527 2167.00
56.257 3039.00
56.5613 2194.00
56.8655 2073.00
57.1698 2075.00
57.474 2127.00
57.7783 2205.00
58.0826 2162.00
58.3868 2075.00
58.6911 2055.00
58.9953 2074.00
59.2996 2481.00
59.6039 2272.00
59.9081 2072.00
60.2124 2235.00
60.5166 2411.00
60.8209 4164.00
61.1252 4175.00
61.4294 2257.00
61.7337 2165.00
62.0379 2172.00
62.3422 2524.00
62.6465 2425.00
62.9507 2059.00
63.255 2021.00
63.5592 2134.00
63.8635 2690.00
64.1678 2180.00
64.472 2085.00
64.7763 1958.00
65.0806 2044.00
65.3848 2505.00
65.6891 2012.00
65.9933 1994.00
66.2976 2004.00
66.6019 1993.00
66.9061 2077.00
67.2104 1985.00
67.5146 2025.00
67.8189 1945.00
68.1232 2105.00
68.4274 2241.00
68.7317 2010.00
69.0359 2079.00
69.3402 1939.00
69.6445 2238.00
69.9487 2085.00
70.253 1976.00
70.5572 1900.00
70.8615 2002.00
71.1658 2018.00
71.47 2033.00
71.7743 1963.00
72.0785 1936.00
72.3828 1909.00
72.6871 1984.00
72.9913 1992.00
73.2956 1963.00
73.5998 2050.00
73.9041 2256.00
74.2084 2054.00
74.5126 1908.00
74.8169 2013.00
75.1211 2098.00
75.4254 2252.00
75.7297 2096.00
76.0339 2023.00
76.3382 2005.00
76.6424 2596.00
76.9467 2071.00
77.251 1928.00
77.5552 2049.00
77.8595 1999.00
78.1637 2076.00
78.468 2033.00
78.7723 1933.00
79.0765 1970.00
79.3808 2292.00
79.685 2080.00
79.9893 2020.00
80.2936 2009.00
80.5978 2095.00
80.9021 2111.00
81.2063 1961.00
81.5106 1981.00
81.8149 2018.00
82.1191 2216.00
82.4234 2099.00
82.7277 2009.00
83.0319 2028.00
83.3362 2905.00
83.6404 2471.00
83.9447 1963.00
84.249 1917.00
84.5532 1956.00
84.8575 1988.00
85.1617 1924.00
85.466 1917.00
85.7703 2022.00
86.0745 2460.00
86.3788 2120.00
86.683 1958.00
86.9873 1948.00
87.2916 1983.00
87.5958 1993.00
87.9001 1922.00
88.2043 1884.00
88.5086 1903.00
88.8129 2022.00
89.1171 1939.00
89.4214 1995.00
89.7256 1993.00
90.0299 2261.00
90.3342 2112.00
90.6384 1973.00
90.9427 1913.00
91.2469 1893.00
91.5512 1924.00
91.8555 1978.00
92.1597 1939.00
92.464 1983.00
92.7682 2100.00
93.0725 2048.00
93.3768 2006.00
93.681 1993.00
93.9853 1865.00
94.2895 1981.00
94.5938 1949.00
94.8981 1962.00
95.2023 2088.00
95.5066 2006.00
95.8108 1978.00
96.1151 2019.00
96.4194 2043.00
96.7236 2308.00
97.0279 2222.00
97.3321 1969.00
97.6364 1992.00
97.9407 2192.00
98.2449 2081.00
98.5492 1917.00
98.8534 1881.00
99.1577 1952.00
99.462 2070.00
99.7662 2007.00
99.9944 1932.00