Folder: alab-pipeline/data/xrd_creation/results (part 79)

File: PG_1120-1.xy
10.0094 2696.00
10.3137 2560.00
10.618 2423.00
10.9222 2475.00
11.2265 2375.00
11.5307 2188.00
11.835 2081.00
12.1393 2188.00
12.4435 2013.00
12.7478 2003.00
13.052 1946.00
13.3563 1845.00
13.6606 1860.00
13.9648 1827.00
14.2691 1879.00
14.5733 1811.00
14.8776 1775.00
15.1819 1718.00
15.4861 1712.00
15.7904 1707.00
16.0946 1673.00
16.3989 1653.00
16.7032 1651.00
17.0074 1654.00
17.3117 2778.00
17.6159 1563.00
17.9202 1640.00
18.2245 1593.00
18.5287 1545.00
18.833 1546.00
19.1372 1555.00
19.4415 1506.00
19.7458 1488.00
20.05 1437.00
20.3543 1339.00
20.6585 1438.00
20.9628 1416.00
21.2671 1373.00
21.5713 1410.00
21.8756 1330.00
22.1798 1295.00
22.4841 1382.00
22.7884 1348.00
23.0926 1390.00
23.3969 1426.00
23.7011 6537.00
24.0054 1756.00
24.3097 1352.00
24.6139 1345.00
24.9182 1304.00
25.2224 1251.00
25.5267 1189.00
25.831 1220.00
26.1352 1227.00
26.4395 1198.00
26.7438 1230.00
27.048 1269.00
27.3523 1219.00
27.6565 1246.00
27.9608 1222.00
28.2651 1229.00
28.5693 1212.00
28.8736 1156.00
29.1778 1211.00
29.4821 1470.00
29.7864 1241.00
30.0906 1224.00
30.3949 1505.00
30.6991 7202.00
31.0034 1296.00
31.3077 1164.00
31.6119 1160.00
31.9162 1127.00
32.2204 1183.00
32.5247 1322.00
32.829 1096.00
33.1332 1042.00
33.4375 1129.00
33.7417 1328.00
34.046 1802.00
34.3503 1161.00
34.6545 1108.00
34.9588 1419.00
35.263 3507.00
35.5673 3712.00
35.8716 1376.00
36.1758 1173.00
36.4801 1097.00
36.7843 1056.00
37.0886 1089.00
37.3929 1104.00
37.6971 1209.00
38.0014 1465.00
38.3056 2740.00
38.6099 4159.00
38.9142 2698.00
39.2184 1393.00
39.5227 1033.00
39.8269 986.00
40.1312 993.00
40.4355 1056.00
40.7397 1040.00
41.044 978.00
41.3482 929.00
41.6525 937.00
41.9568 877.00
42.261 927.00
42.5653 924.00
42.8695 927.00
43.1738 914.00
43.4781 903.00
43.7823 851.00
44.0866 929.00
44.3909 890.00
44.6951 862.00
44.9994 903.00
45.3036 893.00
45.6079 1501.00
45.9122 1063.00
46.2164 1339.00
46.5207 2788.00
46.8249 929.00
47.1292 918.00
47.4335 887.00
47.7377 919.00
48.042 928.00
48.3462 1042.00
48.6505 1580.00
48.9548 1304.00
49.259 956.00
49.5633 872.00
49.8675 833.00
50.1718 862.00
50.4761 784.00
50.7803 819.00
51.0846 780.00
51.3888 814.00
51.6931 766.00
51.9974 825.00
52.3016 879.00
52.6059 824.00
52.9101 863.00
53.2144 928.00
53.5187 950.00
53.8229 923.00
54.1272 842.00
54.4314 754.00
54.7357 814.00
55.04 1233.00
55.3442 807.00
55.6485 779.00
55.9527 780.00
56.257 760.00
56.5613 749.00
56.8655 767.00
57.1698 783.00
57.474 859.00
57.7783 824.00
58.0826 975.00
58.3868 1318.00
58.6911 1376.00
58.9953 884.00
59.2996 717.00
59.6039 769.00
59.9081 824.00
60.2124 719.00
60.5166 736.00
60.8209 750.00
61.1252 839.00
61.4294 1161.00
61.7337 987.00
62.0379 781.00
62.3422 778.00
62.6465 732.00
62.9507 732.00
63.255 717.00
63.5592 833.00
63.8635 1222.00
64.1678 831.00
64.472 784.00
64.7763 789.00
65.0806 744.00
65.3848 868.00
65.6891 983.00
65.9933 977.00
66.2976 1061.00
66.6019 885.00
66.9061 776.00
67.2104 772.00
67.5146 822.00
67.8189 1050.00
68.1232 1021.00
68.4274 821.00
68.7317 742.00
69.0359 703.00
69.3402 709.00
69.6445 1112.00
69.9487 752.00
70.253 648.00
70.5572 615.00
70.8615 671.00
71.1658 682.00
71.47 853.00
71.7743 727.00
72.0785 762.00
72.3828 791.00
72.6871 716.00
72.9913 713.00
73.2956 639.00
73.5998 705.00
73.9041 689.00
74.2084 748.00
74.5126 858.00
74.8169 794.00
75.1211 885.00
75.4254 732.00
75.7297 703.00
76.0339 640.00
76.3382 634.00
76.6424 756.00
76.9467 635.00
77.251 640.00
77.5552 650.00
77.8595 630.00
78.1637 626.00
78.468 657.00
78.7723 638.00
79.0765 682.00
79.3808 990.00
79.685 977.00
79.9893 807.00
80.2936 734.00
80.5978 670.00
80.9021 696.00
81.2063 690.00
81.5106 776.00
81.8149 812.00
82.1191 664.00
82.4234 740.00
82.7277 717.00
83.0319 752.00
83.3362 691.00
83.6404 694.00
83.9447 632.00
84.249 676.00
84.5532 665.00
84.8575 641.00
85.1617 663.00
85.466 718.00
85.7703 671.00
86.0745 630.00
86.3788 634.00
86.683 682.00
86.9873 654.00
87.2916 617.00
87.5958 592.00
87.9001 642.00
88.2043 623.00
88.5086 632.00
88.8129 587.00
89.1171 663.00
89.4214 642.00
89.7256 658.00
90.0299 645.00
90.3342 606.00
90.6384 634.00
90.9427 615.00
91.2469 652.00
91.5512 582.00
91.8555 587.00
92.1597 612.00
92.464 590.00
92.7682 580.00
93.0725 534.00
93.3768 592.00
93.681 594.00
93.9853 596.00
94.2895 606.00
94.5938 591.00
94.8981 614.00
95.2023 753.00
95.5066 680.00
95.8108 647.00
96.1151 614.00
96.4194 622.00
96.7236 607.00
97.0279 576.00
97.3321 633.00
97.6364 584.00
97.9407 625.00
98.2449 643.00
98.5492 597.00
98.8534 608.00
99.1577 687.00
99.462 849.00
99.7662 738.00
99.9944 597.00

File: PG_1121-1.xy
10.0094 2372.00
10.3137 2295.00
10.618 2261.00
10.9222 2201.00
11.2265 2105.00
11.5307 2044.00
11.835 1995.00
12.1393 1988.00
12.4435 1882.00
12.7478 1872.00
13.052 1802.00
13.3563 1765.00
13.6606 1665.00
13.9648 1680.00
14.2691 1716.00
14.5733 1631.00
14.8776 1690.00
15.1819 1683.00
15.4861 2112.00
15.7904 4731.00
16.0946 3634.00
16.3989 1888.00
16.7032 1671.00
17.0074 1597.00
17.3117 1535.00
17.6159 1549.00
17.9202 1483.00
18.2245 1463.00
18.5287 1356.00
18.833 1417.00
19.1372 1409.00
19.4415 1334.00
19.7458 1282.00
20.05 1267.00
20.3543 1281.00
20.6585 1232.00
20.9628 1296.00
21.2671 1285.00
21.5713 1183.00
21.8756 1199.00
22.1798 1231.00
22.4841 1185.00
22.7884 1225.00
23.0926 1192.00
23.3969 1196.00
23.7011 1157.00
24.0054 1109.00
24.3097 1016.00
24.6139 1128.00
24.9182 1059.00
25.2224 1151.00
25.5267 1122.00
25.831 1096.00
26.1352 1105.00
26.4395 1073.00
26.7438 1128.00
27.048 1284.00
27.3523 2724.00
27.6565 5476.00
27.9608 2448.00
28.2651 9455.00
28.5693 2046.00
28.8736 1268.00
29.1778 1072.00
29.4821 1057.00
29.7864 989.00
30.0906 965.00
30.3949 1025.00
30.6991 946.00
31.0034 980.00
31.3077 994.00
31.6119 1217.00
31.9162 2262.00
32.2204 1090.00
32.5247 967.00
32.829 1088.00
33.1332 921.00
33.4375 930.00
33.7417 861.00
34.046 932.00
34.3503 884.00
34.6545 871.00
34.9588 889.00
35.263 971.00
35.5673 1517.00
35.8716 2496.00
36.1758 1432.00
36.4801 1155.00
36.7843 856.00
37.0886 826.00
37.3929 888.00
37.6971 860.00
38.0014 881.00
38.3056 979.00
38.6099 1163.00
38.9142 2145.00
39.2184 2100.00
39.5227 2572.00
39.8269 6181.00
40.1312 1595.00
40.4355 969.00
40.7397 848.00
41.044 781.00
41.3482 865.00
41.6525 825.00
41.9568 842.00
42.261 1050.00
42.5653 1748.00
42.8695 965.00
43.1738 830.00
43.4781 805.00
43.7823 834.00
44.0866 775.00
44.3909 757.00
44.6951 734.00
44.9994 718.00
45.3036 761.00
45.6079 738.00
45.9122 767.00
46.2164 799.00
46.5207 860.00
46.8249 781.00
47.1292 1028.00
47.4335 1731.00
47.7377 954.00
48.042 1068.00
48.3462 2104.00
48.6505 3131.00
48.9548 5591.00
49.259 2113.00
49.5633 1004.00
49.8675 941.00
50.1718 1470.00
50.4761 968.00
50.7803 819.00
51.0846 732.00
51.3888 723.00
51.6931 734.00
51.9974 656.00
52.3016 743.00
52.6059 734.00
52.9101 704.00
53.2144 746.00
53.5187 751.00
53.8229 820.00
54.1272 738.00
54.4314 723.00
54.7357 727.00
55.04 812.00
55.3442 1239.00
55.6485 1884.00
55.9527 938.00
56.257 956.00
56.5613 1340.00
56.8655 961.00
57.1698 787.00
57.474 774.00
57.7783 825.00
58.0826 1032.00
58.3868 979.00
58.6911 914.00
58.9953 1074.00
59.2996 856.00
59.6039 720.00
59.9081 688.00
60.2124 674.00
60.5166 697.00
60.8209 705.00
61.1252 645.00
61.4294 721.00
61.7337 904.00
62.0379 868.00
62.3422 696.00
62.6465 685.00
62.9507 733.00
63.255 702.00
63.5592 717.00
63.8635 862.00
64.1678 1525.00
64.472 1337.00
64.7763 891.00
65.0806 982.00
65.3848 1061.00
65.6891 907.00
65.9933 969.00
66.2976 968.00
66.6019 977.00
66.9061 822.00
67.2104 717.00
67.5146 711.00
67.8189 751.00
68.1232 910.00
68.4274 889.00
68.7317 773.00
69.0359 680.00
69.3402 767.00
69.6445 938.00
69.9487 1453.00
70.253 1032.00
70.5572 783.00
70.8615 792.00
71.1658 929.00
71.47 764.00
71.7743 681.00
72.0785 676.00
72.3828 705.00
72.6871 822.00
72.9913 853.00
73.2956 744.00
73.5998 689.00
73.9041 646.00
74.2084 708.00
74.5126 692.00
74.8169 710.00
75.1211 812.00
75.4254 817.00
75.7297 799.00
76.0339 1047.00
76.3382 1076.00
76.6424 1106.00
76.9467 1011.00
77.251 1106.00
77.5552 1486.00
77.8595 1598.00
78.1637 1061.00
78.468 912.00
78.7723 916.00
79.0765 826.00
79.3808 658.00
79.685 693.00
79.9893 662.00
80.2936 701.00
80.5978 727.00
80.9021 624.00
81.2063 653.00
81.5106 640.00
81.8149 649.00
82.1191 724.00
82.4234 942.00
82.7277 942.00
83.0319 790.00
83.3362 740.00
83.6404 725.00
83.9447 727.00
84.249 677.00
84.5532 635.00
84.8575 722.00
85.1617 746.00
85.466 738.00
85.7703 705.00
86.0745 686.00
86.3788 710.00
86.683 698.00
86.9873 614.00
87.2916 645.00
87.5958 661.00
87.9001 688.00
88.2043 673.00
88.5086 757.00
88.8129 943.00
89.1171 1038.00
89.4214 847.00
89.7256 721.00
90.0299 808.00
90.3342 897.00
90.6384 925.00
90.9427 771.00
91.2469 778.00
91.5512 760.00
91.8555 766.00
92.1597 738.00
92.464 672.00
92.7682 694.00
93.0725 684.00
93.3768 646.00
93.681 650.00
93.9853 638.00
94.2895 622.00
94.5938 683.00
94.8981 689.00
95.2023 737.00
95.5066 910.00
95.8108 1020.00
96.1151 1013.00
96.4194 894.00
96.7236 894.00
97.0279 995.00
97.3321 788.00
97.6364 712.00
97.9407 691.00
98.2449 680.00
98.5492 669.00
98.8534 719.00
99.1577 694.00
99.462 675.00
99.7662 671.00
99.9944 670.00

File: PG_1122-1.xy
10.0094 3171.00
10.3137 3107.00
10.618 2987.00
10.9222 3024.00
11.2265 2932.00
11.5307 2961.00
11.835 2793.00
12.1393 2777.00
12.4435 2891.00
12.7478 2776.00
13.052 2787.00
13.3563 2687.00
13.6606 2733.00
13.9648 2713.00
14.2691 2725.00
14.5733 2736.00
14.8776 2781.00
15.1819 2746.00
15.4861 2784.00
15.7904 2716.00
16.0946 2851.00
16.3989 2699.00
16.7032 2930.00
17.0074 2846.00
17.3117 2757.00
17.6159 2883.00
17.9202 2930.00
18.2245 2907.00
18.5287 2923.00
18.833 3035.00
19.1372 2891.00
19.4415 2879.00
19.7458 2884.00
20.05 2934.00
20.3543 2882.00
20.6585 2824.00
20.9628 3008.00
21.2671 4427.00
21.5713 4413.00
21.8756 2939.00
22.1798 2880.00
22.4841 2916.00
22.7884 2919.00
23.0926 2909.00
23.3969 3279.00
23.7011 3142.00
24.0054 2860.00
24.3097 2826.00
24.6139 2907.00
24.9182 2886.00
25.2224 2924.00
25.5267 3078.00
25.831 2980.00
26.1352 2879.00
26.4395 2895.00
26.7438 2974.00
27.048 2898.00
27.3523 2891.00
27.6565 2961.00
27.9608 2798.00
28.2651 2905.00
28.5693 2875.00
28.8736 2881.00
29.1778 3066.00
29.4821 3563.00
29.7864 3101.00
30.0906 2974.00
30.3949 3380.00
30.6991 5393.00
31.0034 3292.00
31.3077 2948.00
31.6119 3838.00
31.9162 6494.00
32.2204 3562.00
32.5247 4582.00
32.829 3700.00
33.1332 2965.00
33.4375 3062.00
33.7417 3030.00
34.046 3598.00
34.3503 3860.00
34.6545 3482.00
34.9588 3830.00
35.263 7914.00
35.5673 23073.00
35.8716 10787.00
36.1758 4942.00
36.4801 3535.00
36.7843 3553.00
37.0886 4783.00
37.3929 3563.00
37.6971 3594.00
38.0014 4121.00
38.3056 5885.00
38.6099 15251.00
38.9142 21416.00
39.2184 8724.00
39.5227 4511.00
39.8269 3965.00
40.1312 3516.00
40.4355 3064.00
40.7397 2924.00
41.044 2977.00
41.3482 2962.00
41.6525 3021.00
41.9568 2980.00
42.261 3037.00
42.5653 2965.00
42.8695 2967.00
43.1738 2978.00
43.4781 3037.00
43.7823 2975.00
44.0866 2923.00
44.3909 2917.00
44.6951 2844.00
44.9994 2856.00
45.3036 2847.00
45.6079 2874.00
45.9122 2953.00
46.2164 3200.00
46.5207 3084.00
46.8249 2871.00
47.1292 2798.00
47.4335 2841.00
47.7377 2897.00
48.042 3130.00
48.3462 3437.00
48.6505 5791.00
48.9548 8113.00
49.259 4309.00
49.5633 3253.00
49.8675 2972.00
50.1718 2967.00
50.4761 3034.00
50.7803 2912.00
51.0846 2832.00
51.3888 3111.00
51.6931 2942.00
51.9974 2837.00
52.3016 2828.00
52.6059 2985.00
52.9101 3042.00
53.2144 3369.00
53.5187 4199.00
53.8229 3567.00
54.1272 3098.00
54.4314 2837.00
54.7357 2809.00
55.04 2778.00
55.3442 2908.00
55.6485 2882.00
55.9527 2876.00
56.257 2768.00
56.5613 2967.00
56.8655 3060.00
57.1698 2860.00
57.474 2892.00
57.7783 3391.00
58.0826 4038.00
58.3868 5069.00
58.6911 3862.00
58.9953 3314.00
59.2996 3127.00
59.6039 2952.00
59.9081 3132.00
60.2124 2775.00
60.5166 2832.00
60.8209 3056.00
61.1252 3435.00
61.4294 5173.00
61.7337 5926.00
62.0379 3719.00
62.3422 2917.00
62.6465 2875.00
62.9507 2820.00
63.255 2794.00
63.5592 3075.00
63.8635 2882.00
64.1678 2835.00
64.472 2957.00
64.7763 3054.00
65.0806 3235.00
65.3848 3581.00
65.6891 4538.00
65.9933 5034.00
66.2976 5760.00
66.6019 4713.00
66.9061 3530.00
67.2104 3307.00
67.5146 3547.00
67.8189 4474.00
68.1232 5863.00
68.4274 4330.00
68.7317 3189.00
69.0359 2841.00
69.3402 2861.00
69.6445 2858.00
69.9487 2822.00
70.253 2742.00
70.5572 2725.00
70.8615 2752.00
71.1658 2725.00
71.47 2815.00
71.7743 2887.00
72.0785 3091.00
72.3828 3678.00
72.6871 3480.00
72.9913 2907.00
73.2956 2683.00
73.5998 2791.00
73.9041 2910.00
74.2084 2858.00
74.5126 2905.00
74.8169 3484.00
75.1211 4443.00
75.4254 3953.00
75.7297 3013.00
76.0339 2744.00
76.3382 2753.00
76.6424 2638.00
76.9467 2658.00
77.251 2672.00
77.5552 2764.00
77.8595 2734.00
78.1637 2663.00
78.468 2615.00
78.7723 2670.00
79.0765 2639.00
79.3808 2683.00
79.685 2739.00
79.9893 2835.00
80.2936 3025.00
80.5978 2813.00
80.9021 2770.00
81.2063 2613.00
81.5106 2760.00
81.8149 2702.00
82.1191 2973.00
82.4234 3326.00
82.7277 3334.00
83.0319 3360.00
83.3362 3344.00
83.6404 3222.00
83.9447 3053.00
84.249 2725.00
84.5532 2695.00
84.8575 2689.00
85.1617 2646.00
85.466 2731.00
85.7703 2670.00
86.0745 2642.00
86.3788 2778.00
86.683 2785.00
86.9873 2927.00
87.2916 2689.00
87.5958 2675.00
87.9001 2720.00
88.2043 2698.00
88.5086 2669.00
88.8129 2687.00
89.1171 2811.00
89.4214 2892.00
89.7256 3164.00
90.0299 3115.00
90.3342 2820.00
90.6384 2781.00
90.9427 2747.00
91.2469 2730.00
91.5512 2744.00
91.8555 2794.00
92.1597 2728.00
92.464 2847.00
92.7682 2670.00
93.0725 2573.00
93.3768 2664.00
93.681 2652.00
93.9853 2517.00
94.2895 2590.00
94.5938 2589.00
94.8981 2625.00
95.2023 2572.00
95.5066 2657.00
95.8108 2704.00
96.1151 2669.00
96.4194 2603.00
96.7236 2711.00
97.0279 2642.00
97.3321 2631.00
97.6364 2649.00
97.9407 2676.00
98.2449 2798.00
98.5492 2900.00
98.8534 2880.00
99.1577 2864.00
99.462 2988.00
99.7662 3032.00
99.9944 3008.00

File: PG_1217-1.xy
10.0094 2403.00
10.3137 2256.00
10.618 2199.00
10.9222 2056.00
11.2265 2007.00
11.5307 1987.00
11.835 1948.00
12.1393 1874.00
12.4435 1836.00
12.7478 1742.00
13.052 1707.00
13.3563 1606.00
13.6606 1647.00
13.9648 1607.00
14.2691 1549.00
14.5733 1548.00
14.8776 1433.00
15.1819 1501.00
15.4861 1505.00
15.7904 1394.00
16.0946 1467.00
16.3989 1351.00
16.7032 1396.00
17.0074 1415.00
17.3117 1365.00
17.6159 1492.00
17.9202 1320.00
18.2245 1330.00
18.5287 1355.00
18.833 1244.00
19.1372 1237.00
19.4415 1277.00
19.7458 1243.00
20.05 1148.00
20.3543 1167.00
20.6585 1124.00
20.9628 1174.00
21.2671 1159.00
21.5713 1081.00
21.8756 1117.00
22.1798 1127.00
22.4841 1083.00
22.7884 1135.00
23.0926 1136.00
23.3969 1053.00
23.7011 1141.00
24.0054 1138.00
24.3097 1715.00
24.6139 1294.00
24.9182 1539.00
25.2224 1076.00
25.5267 1018.00
25.831 1085.00
26.1352 1011.00
26.4395 965.00
26.7438 1019.00
27.048 982.00
27.3523 971.00
27.6565 1050.00
27.9608 1137.00
28.2651 1576.00
28.5693 6611.00
28.8736 1556.00
29.1778 1124.00
29.4821 1022.00
29.7864 1045.00
30.0906 1070.00
30.3949 1040.00
30.6991 1000.00
31.0034 1045.00
31.3077 1075.00
31.6119 1598.00
31.9162 5623.00
32.2204 1300.00
32.5247 996.00
32.829 996.00
33.1332 1095.00
33.4375 1868.00
33.7417 1003.00
34.046 995.00
34.3503 1298.00
34.6545 2368.00
34.9588 1991.00
35.263 1081.00
35.5673 1499.00
35.8716 2600.00
36.1758 1194.00
36.4801 1107.00
36.7843 997.00
37.0886 897.00
37.3929 893.00
37.6971 925.00
38.0014 880.00
38.3056 953.00
38.6099 945.00
38.9142 1260.00
39.2184 1193.00
39.5227 921.00
39.8269 940.00
40.1312 911.00
40.4355 963.00
40.7397 962.00
41.044 1571.00
41.3482 1570.00
41.6525 1282.00
41.9568 1109.00
42.261 946.00
42.5653 918.00
42.8695 922.00
43.1738 914.00
43.4781 895.00
43.7823 973.00
44.0866 883.00
44.3909 890.00
44.6951 912.00
44.9994 994.00
45.3036 1291.00
45.6079 963.00
45.9122 1290.00
46.2164 1096.00
46.5207 947.00
46.8249 943.00
47.1292 878.00
47.4335 894.00
47.7377 960.00
48.042 914.00
48.3462 953.00
48.6505 966.00
48.9548 1051.00
49.259 1065.00
49.5633 1630.00
49.8675 2208.00
50.1718 1130.00
50.4761 1371.00
50.7803 2362.00
51.0846 1969.00
51.3888 1120.00
51.6931 1290.00
51.9974 1084.00
52.3016 965.00
52.6059 987.00
52.9101 964.00
53.2144 968.00
53.5187 1010.00
53.8229 989.00
54.1272 1278.00
54.4314 1544.00
54.7357 1671.00
55.04 1103.00
55.3442 1084.00
55.6485 1235.00
55.9527 2162.00
56.257 1582.00
56.5613 1703.00
56.8655 1059.00
57.1698 1056.00
57.474 1160.00
57.7783 1739.00
58.0826 1127.00
58.3868 1382.00
58.6911 1456.00
58.9953 1259.00
59.2996 1125.00
59.6039 1065.00
59.9081 1020.00
60.2124 1244.00
60.5166 1884.00
60.8209 1300.00
61.1252 1055.00
61.4294 1013.00
61.7337 1319.00
62.0379 1447.00
62.3422 1384.00
62.6465 1878.00
62.9507 1183.00
63.255 1375.00
63.5592 1721.00
63.8635 1199.00
64.1678 1481.00
64.472 1069.00
64.7763 1293.00
65.0806 1167.00
65.3848 1154.00
65.6891 1143.00
65.9933 1367.00
66.2976 1774.00
66.6019 1462.00
66.9061 1104.00
67.2104 1074.00
67.5146 1077.00
67.8189 1100.00
68.1232 1063.00
68.4274 1068.00
68.7317 1062.00
69.0359 997.00
69.3402 1059.00
69.6445 1359.00
69.9487 1124.00
70.253 1224.00
70.5572 1138.00
70.8615 1119.00
71.1658 1091.00
71.47 1148.00
71.7743 1601.00
72.0785 1538.00
72.3828 1232.00
72.6871 1259.00
72.9913 1205.00
73.2956 1310.00
73.5998 1149.00
73.9041 1140.00
74.2084 1153.00
74.5126 1142.00
74.8169 1131.00
75.1211 1130.00
75.4254 1341.00
75.7297 1520.00
76.0339 1447.00
76.3382 1205.00
76.6424 1141.00
76.9467 1196.00
77.251 1358.00
77.5552 1217.00
77.8595 1222.00
78.1637 1308.00
78.468 1206.00
78.7723 1273.00
79.0765 1211.00
79.3808 1219.00
79.685 1403.00
79.9893 1268.00
80.2936 1116.00
80.5978 1143.00
80.9021 1199.00
81.2063 1214.00
81.5106 1256.00
81.8149 1221.00
82.1191 1320.00
82.4234 1321.00
82.7277 1233.00
83.0319 1371.00
83.3362 1412.00
83.6404 1408.00
83.9447 1354.00
84.249 1298.00
84.5532 1350.00
84.8575 1455.00
85.1617 1363.00
85.466 1311.00
85.7703 1331.00
86.0745 1164.00
86.3788 1218.00
86.683 1263.00
86.9873 1318.00
87.2916 1211.00
87.5958 1286.00
87.9001 1325.00
88.2043 1410.00
88.5086 1435.00
88.8129 1546.00
89.1171 1524.00
89.4214 1471.00
89.7256 1379.00
90.0299 1344.00
90.3342 1420.00
90.6384 1535.00
90.9427 1367.00
91.2469 1310.00
91.5512 1276.00
91.8555 1340.00
92.1597 1307.00
92.464 1262.00
92.7682 1274.00
93.0725 1210.00
93.3768 1330.00
93.681 1359.00
93.9853 1328.00
94.2895 1238.00
94.5938 1366.00
94.8981 1361.00
95.2023 1324.00
95.5066 1331.00
95.8108 1428.00
96.1151 1561.00
96.4194 1445.00
96.7236 1344.00
97.0279 1577.00
97.3321 1615.00
97.6364 1707.00
97.9407 1541.00
98.2449 1405.00
98.5492 1395.00
98.8534 1456.00
99.1577 1448.00
99.462 1491.00
99.7662 1499.00
99.9944 1517.00

File: PG_1218-1.xy
10.0094 2441.00
10.3137 2353.00
10.618 2358.00
10.9222 2162.00
11.2265 2168.00
11.5307 2116.00
11.835 2009.00
12.1393 1982.00
12.4435 1954.00
12.7478 1821.00
13.052 1728.00
13.3563 1713.00
13.6606 1757.00
13.9648 1654.00
14.2691 1618.00
14.5733 1633.00
14.8776 1636.00
15.1819 1669.00
15.4861 1552.00
15.7904 1572.00
16.0946 1534.00
16.3989 1606.00
16.7032 1465.00
17.0074 1575.00
17.3117 1533.00
17.6159 1492.00
17.9202 1354.00
18.2245 1453.00
18.5287 1355.00
18.833 1411.00
19.1372 1372.00
19.4415 1418.00
19.7458 1269.00
20.05 1379.00
20.3543 1272.00
20.6585 1304.00
20.9628 1281.00
21.2671 1260.00
21.5713 1423.00
21.8756 1411.00
22.1798 1209.00
22.4841 1218.00
22.7884 1209.00
23.0926 1180.00
23.3969 1200.00
23.7011 1184.00
24.0054 1189.00
24.3097 1383.00
24.6139 1067.00
24.9182 1096.00
25.2224 1169.00
25.5267 1125.00
25.831 1066.00
26.1352 1049.00
26.4395 1034.00
26.7438 1070.00
27.048 1065.00
27.3523 1009.00
27.6565 1061.00
27.9608 967.00
28.2651 975.00
28.5693 1002.00
28.8736 951.00
29.1778 1008.00
29.4821 995.00
29.7864 969.00
30.0906 1061.00
30.3949 1193.00
30.6991 3332.00
31.0034 2540.00
31.3077 1065.00
31.6119 992.00
31.9162 967.00
32.2204 954.00
32.5247 972.00
32.829 970.00
33.1332 1155.00
33.4375 1704.00
33.7417 1053.00
34.046 977.00
34.3503 925.00
34.6545 955.00
34.9588 983.00
35.263 1040.00
35.5673 1905.00
35.8716 2119.00
36.1758 983.00
36.4801 954.00
36.7843 898.00
37.0886 858.00
37.3929 912.00
37.6971 948.00
38.0014 1235.00
38.3056 990.00
38.6099 860.00
38.9142 922.00
39.2184 918.00
39.5227 941.00
39.8269 906.00
40.1312 970.00
40.4355 902.00
40.7397 901.00
41.044 1126.00
41.3482 885.00
41.6525 919.00
41.9568 1037.00
42.261 958.00
42.5653 940.00
42.8695 786.00
43.1738 891.00
43.4781 926.00
43.7823 916.00
44.0866 1013.00
44.3909 841.00
44.6951 843.00
44.9994 887.00
45.3036 850.00
45.6079 904.00
45.9122 1543.00
46.2164 902.00
46.5207 846.00
46.8249 855.00
47.1292 903.00
47.4335 897.00
47.7377 886.00
48.042 858.00
48.3462 875.00
48.6505 862.00
48.9548 903.00
49.259 910.00
49.5633 1531.00
49.8675 971.00
50.1718 884.00
50.4761 948.00
50.7803 965.00
51.0846 1511.00
51.3888 3000.00
51.6931 1089.00
51.9974 880.00
52.3016 893.00
52.6059 858.00
52.9101 1052.00
53.2144 983.00
53.5187 860.00
53.8229 937.00
54.1272 1393.00
54.4314 1021.00
54.7357 902.00
55.04 873.00
55.3442 848.00
55.6485 822.00
55.9527 963.00
56.257 1325.00
56.5613 922.00
56.8655 904.00
57.1698 937.00
57.474 957.00
57.7783 1080.00
58.0826 883.00
58.3868 901.00
58.6911 864.00
58.9953 927.00
59.2996 1229.00
59.6039 999.00
59.9081 939.00
60.2124 985.00
60.5166 1009.00
60.8209 2563.00
61.1252 1749.00
61.4294 934.00
61.7337 920.00
62.0379 953.00
62.3422 1502.00
62.6465 1345.00
62.9507 927.00
63.255 947.00
63.5592 960.00
63.8635 1632.00
64.1678 1169.00
64.472 912.00
64.7763 922.00
65.0806 938.00
65.3848 1142.00
65.6891 934.00
65.9933 874.00
66.2976 912.00
66.6019 917.00
66.9061 1007.00
67.2104 1003.00
67.5146 859.00
67.8189 908.00
68.1232 1046.00
68.4274 1108.00
68.7317 936.00
69.0359 983.00
69.3402 867.00
69.6445 1133.00
69.9487 1019.00
70.253 894.00
70.5572 975.00
70.8615 896.00
71.1658 972.00
71.47 971.00
71.7743 968.00
72.0785 1074.00
72.3828 972.00
72.6871 947.00
72.9913 921.00
73.2956 933.00
73.5998 948.00
73.9041 1171.00
74.2084 1050.00
74.5126 982.00
74.8169 979.00
75.1211 1096.00
75.4254 1219.00
75.7297 990.00
76.0339 1003.00
76.3382 930.00
76.6424 1285.00
76.9467 1096.00
77.251 965.00
77.5552 969.00
77.8595 1054.00
78.1637 1016.00
78.468 1006.00
78.7723 1033.00
79.0765 967.00
79.3808 1092.00
79.685 998.00
79.9893 1009.00
80.2936 983.00
80.5978 1096.00
80.9021 1099.00
81.2063 922.00
81.5106 1029.00
81.8149 1019.00
82.1191 1194.00
82.4234 1035.00
82.7277 1084.00
83.0319 1135.00
83.3362 1614.00
83.6404 1325.00
83.9447 1056.00
84.249 999.00
84.5532 1078.00
84.8575 1133.00
85.1617 1054.00
85.466 1055.00
85.7703 1093.00
86.0745 1333.00
86.3788 1113.00
86.683 1009.00
86.9873 1046.00
87.2916 1032.00
87.5958 1078.00
87.9001 1035.00
88.2043 1019.00
88.5086 1134.00
88.8129 1061.00
89.1171 1069.00
89.4214 1008.00
89.7256 1057.00
90.0299 1267.00
90.3342 1086.00
90.6384 1054.00
90.9427 1088.00
91.2469 1102.00
91.5512 1087.00
91.8555 1033.00
92.1597 1055.00
92.464 1094.00
92.7682 1089.00
93.0725 1071.00
93.3768 997.00
93.681 1094.00
93.9853 1074.00
94.2895 1048.00
94.5938 1022.00
94.8981 1028.00
95.2023 1209.00
95.5066 1170.00
95.8108 1135.00
96.1151 1116.00
96.4194 1175.00
96.7236 1333.00
97.0279 1239.00
97.3321 1096.00
97.6364 1176.00
97.9407 1279.00
98.2449 1234.00
98.5492 1095.00
98.8534 1106.00
99.1577 1105.00
99.462 1182.00
99.7662 1126.00
99.9944 1129.00