Folder: alab-pipeline/data/xrd_creation/results (part 5)

File: MINES_20.xy
9.903433 2624.00
10.2077 2607.00
10.512 2442.00
10.8162 2281.00
11.1205 2262.00
11.4247 2208.00
11.729 2017.00
12.0333 1917.00
12.3375 1925.00
12.6418 1797.00
12.946 1692.00
13.2503 1680.00
13.5546 1633.00
13.8588 1568.00
14.1631 1448.00
14.4673 1316.00
14.7716 1400.00
15.0759 1424.00
15.3801 1464.00
15.6844 1386.00
15.9886 1375.00
16.2929 1459.00
16.5972 1418.00
16.9014 1227.00
17.2057 1192.00
17.5099 1187.00
17.8142 1143.00
18.1185 1073.00
18.4227 1119.00
18.727 1097.00
19.0312 1074.00
19.3355 1249.00
19.6398 1338.00
19.944 1110.00
20.2483 994.00
20.5525 1147.00
20.8568 1553.00
21.1611 1035.00
21.4653 933.00
21.7696 898.00
22.0738 903.00
22.3781 920.00
22.6824 1072.00
22.9866 1444.00
23.2909 1017.00
23.5951 1136.00
23.8994 1931.00
24.2037 1282.00
24.5079 1468.00
24.8122 2494.00
25.1164 1964.00
25.4207 3417.00
25.725 4568.00
26.0292 2135.00
26.3335 1929.00
26.6378 4094.00
26.942 1509.00
27.2463 740.00
27.5505 745.00
27.8548 728.00
28.1591 805.00
28.4633 856.00
28.7676 674.00
29.0718 657.00
29.3761 642.00
29.6804 613.00
29.9846 619.00
30.2889 627.00
30.5931 698.00
30.8974 734.00
31.2017 621.00
31.5059 584.00
31.8102 606.00
32.1144 633.00
32.4187 577.00
32.723 553.00
33.0272 511.00
33.3315 535.00
33.6357 475.00
33.94 530.00
34.2443 566.00
34.5485 478.00
34.8528 503.00
35.157 462.00
35.4613 483.00
35.7656 472.00
36.0698 493.00
36.3741 721.00
36.6783 625.00
36.9826 500.00
37.2869 605.00
37.5911 1100.00
37.8954 1011.00
38.1996 840.00
38.5039 652.00
38.8082 507.00
39.1124 567.00
39.4167 823.00
39.7209 674.00
40.0252 534.00
40.3295 500.00
40.6337 381.00
40.938 383.00
41.2422 355.00
41.5465 392.00
41.8508 386.00
42.155 469.00
42.4593 469.00
42.7635 381.00
43.0678 444.00
43.3721 433.00
43.6763 374.00
43.9806 447.00
44.2849 385.00
44.5891 335.00
44.8934 375.00
45.1976 402.00
45.5019 479.00
45.8062 598.00
46.1104 665.00
46.4147 472.00
46.7189 358.00
47.0232 387.00
47.3275 359.00
47.6317 423.00
47.936 480.00
48.2402 512.00
48.5445 584.00
48.8488 456.00
49.153 375.00
49.4573 358.00
49.7615 427.00
50.0658 610.00
50.3701 436.00
50.6743 428.00
50.9786 338.00
51.2828 309.00
51.5871 293.00
51.8914 292.00
52.1956 278.00
52.4999 286.00
52.8041 315.00
53.1084 319.00
53.4127 284.00
53.7169 300.00
54.0212 261.00
54.3254 309.00
54.6297 314.00
54.934 329.00
55.2382 277.00
55.5425 295.00
55.8467 335.00
56.151 410.00
56.4553 373.00
56.7595 308.00
57.0638 321.00
57.368 276.00
57.6723 248.00
57.9766 235.00
58.2808 271.00
58.5851 276.00
58.8893 244.00
59.1936 258.00
59.4979 325.00
59.8021 371.00
60.1064 316.00
60.4106 357.00
60.7149 347.00
61.0192 369.00
61.3234 330.00
61.6277 279.00
61.932 249.00
62.2362 273.00
62.5405 242.00
62.8447 271.00
63.149 348.00
63.4533 352.00
63.7575 325.00
64.0618 331.00
64.366 333.00
64.6703 322.00
64.9745 320.00
65.2788 322.00
65.5831 386.00
65.8873 369.00
66.1916 302.00
66.4959 340.00
66.8001 462.00
67.1044 503.00
67.4086 423.00
67.7129 405.00
68.0172 453.00
68.3214 422.00
68.6257 333.00
68.9299 261.00
69.2342 266.00
69.5385 244.00
69.8427 207.00
70.147 239.00
70.4512 218.00
70.7555 199.00
71.0598 259.00
71.364 239.00
71.6683 280.00
71.9725 263.00
72.2768 283.00
72.5811 238.00
72.8853 262.00
73.1896 266.00
73.4938 241.00
73.7981 233.00
74.1024 216.00
74.4066 221.00
74.7109 204.00
75.0151 235.00
75.3194 266.00
75.6237 258.00
75.9279 290.00
76.2322 326.00
76.5364 280.00
76.8407 246.00
77.145 303.00
77.4492 278.00
77.7535 312.00
78.0577 358.00
78.362 287.00
78.6663 246.00
78.9705 292.00
79.2748 302.00
79.579 324.00
79.8833 326.00
80.1876 256.00
80.4918 286.00
80.7961 286.00
81.1003 349.00
81.4046 278.00
81.7089 268.00
82.0131 227.00
82.3174 206.00
82.6217 278.00
82.9259 214.00
83.2302 228.00
83.5344 268.00
83.8387 261.00
84.143 210.00
84.4472 263.00
84.7515 264.00
85.0557 294.00
85.36 228.00
85.6643 259.00
85.9685 243.00
86.2728 234.00
86.577 240.00
86.8813 217.00
87.1856 196.00
87.4898 245.00
87.7941 239.00
88.0983 221.00
88.4026 214.00
88.7069 204.00
89.0111 213.00
89.3154 212.00
89.6196 219.00
89.9239 202.00
90.2282 211.00
90.5324 219.00
90.8367 236.00
91.1409 194.00
91.4452 212.00
91.7495 203.00
92.0537 204.00
92.358 215.00
92.6622 229.00
92.9665 202.00
93.2708 238.00
93.575 219.00
93.8793 233.00
94.1835 245.00
94.4878 231.00
94.7921 243.00
95.0963 207.00
95.4006 204.00
95.7048 198.00
96.0091 230.00
96.3134 204.00
96.6176 185.00
96.9219 226.00
97.2261 229.00
97.5304 232.00
97.8347 199.00
98.1389 229.00
98.4432 215.00
98.7474 207.00
99.0517 212.00
99.356 178.00
99.6602 189.00
99.9645 232.00
100.095 203.00

File: MINES_21.xy
9.903433 2749.00
10.2077 2638.00
10.512 2558.00
10.8162 2423.00
11.1205 2316.00
11.4247 2143.00
11.729 2345.00
12.0333 2055.00
12.3375 2098.00
12.6418 2043.00
12.946 1992.00
13.2503 2024.00
13.5546 1820.00
13.8588 1753.00
14.1631 1731.00
14.4673 1708.00
14.7716 1643.00
15.0759 1765.00
15.3801 2232.00
15.6844 2074.00
15.9886 1591.00
16.2929 1739.00
16.5972 2093.00
16.9014 1627.00
17.2057 1404.00
17.5099 1428.00
17.8142 1458.00
18.1185 1393.00
18.4227 1356.00
18.727 1340.00
19.0312 1441.00
19.3355 1813.00
19.6398 3174.00
19.944 1424.00
20.2483 1304.00
20.5525 1331.00
20.8568 2194.00
21.1611 2216.00
21.4653 1304.00
21.7696 1325.00
22.0738 2389.00
22.3781 3156.00
22.6824 2388.00
22.9866 5994.00
23.2909 1743.00
23.5951 1432.00
23.8994 3003.00
24.2037 2096.00
24.5079 3537.00
24.8122 2285.00
25.1164 7387.00
25.4207 3284.00
25.725 12850.00
26.0292 12146.00
26.3335 2482.00
26.6378 5026.00
26.942 5310.00
27.2463 1284.00
27.5505 1257.00
27.8548 1301.00
28.1591 2523.00
28.4633 2556.00
28.7676 1381.00
29.0718 1090.00
29.3761 1024.00
29.6804 960.00
29.9846 1003.00
30.2889 945.00
30.5931 1408.00
30.8974 2294.00
31.2017 1810.00
31.5059 1100.00
31.8102 1193.00
32.1144 1492.00
32.4187 1478.00
32.723 1150.00
33.0272 905.00
33.3315 1101.00
33.6357 902.00
33.94 1054.00
34.2443 1170.00
34.5485 1037.00
34.8528 1184.00
35.157 1327.00
35.4613 1022.00
35.7656 1211.00
36.0698 1333.00
36.3741 3581.00
36.6783 4023.00
36.9826 1538.00
37.2869 1334.00
37.5911 1714.00
37.8954 2976.00
38.1996 1867.00
38.5039 2015.00
38.8082 991.00
39.1124 1281.00
39.4167 2568.00
39.7209 2130.00
40.0252 1591.00
40.3295 1402.00
40.6337 838.00
40.938 713.00
41.2422 743.00
41.5465 916.00
41.8508 778.00
42.155 816.00
42.4593 1000.00
42.7635 859.00
43.0678 1220.00
43.3721 1274.00
43.6763 841.00
43.9806 955.00
44.2849 1560.00
44.5891 947.00
44.8934 822.00
45.1976 1009.00
45.5019 1052.00
45.8062 1359.00
46.1104 1402.00
46.4147 1727.00
46.7189 858.00
47.0232 1126.00
47.3275 1197.00
47.6317 838.00
47.936 1089.00
48.2402 1601.00
48.5445 2281.00
48.8488 2372.00
49.153 927.00
49.4573 936.00
49.7615 725.00
50.0658 1253.00
50.3701 1630.00
50.6743 1000.00
50.9786 844.00
51.2828 938.00
51.5871 722.00
51.8914 652.00
52.1956 613.00
52.4999 651.00
52.8041 773.00
53.1084 670.00
53.4127 641.00
53.7169 642.00
54.0212 667.00
54.3254 777.00
54.6297 1011.00
54.934 1264.00
55.2382 935.00
55.5425 1012.00
55.8467 1491.00
56.151 1518.00
56.4553 1060.00
56.7595 631.00
57.0638 702.00
57.368 761.00
57.6723 751.00
57.9766 724.00
58.2808 949.00
58.5851 1393.00
58.8893 1215.00
59.1936 838.00
59.4979 795.00
59.8021 1192.00
60.1064 1101.00
60.4106 1091.00
60.7149 1235.00
61.0192 1032.00
61.3234 1039.00
61.6277 877.00
61.932 688.00
62.2362 711.00
62.5405 903.00
62.8447 853.00
63.149 1002.00
63.4533 995.00
63.7575 1110.00
64.0618 1675.00
64.366 2482.00
64.6703 1538.00
64.9745 1011.00
65.2788 963.00
65.5831 1289.00
65.8873 1133.00
66.1916 821.00
66.4959 887.00
66.8001 1422.00
67.1044 1547.00
67.4086 1333.00
67.7129 1347.00
68.0172 1432.00
68.3214 1487.00
68.6257 1077.00
68.9299 754.00
69.2342 776.00
69.5385 807.00
69.8427 736.00
70.147 691.00
70.4512 593.00
70.7555 722.00
71.0598 783.00
71.364 789.00
71.6683 771.00
71.9725 716.00
72.2768 732.00
72.5811 727.00
72.8853 766.00
73.1896 661.00
73.4938 671.00
73.7981 638.00
74.1024 550.00
74.4066 622.00
74.7109 593.00
75.0151 661.00
75.3194 652.00
75.6237 716.00
75.9279 795.00
76.2322 1009.00
76.5364 870.00
76.8407 798.00
77.145 986.00
77.4492 1006.00
77.7535 857.00
78.0577 759.00
78.362 792.00
78.6663 651.00
78.9705 687.00
79.2748 674.00
79.579 626.00
79.8833 683.00
80.1876 503.00
80.4918 511.00
80.7961 646.00
81.1003 840.00
81.4046 798.00
81.7089 653.00
82.0131 526.00
82.3174 495.00
82.6217 429.00
82.9259 506.00
83.2302 526.00
83.5344 507.00
83.8387 483.00
84.143 486.00
84.4472 512.00
84.7515 541.00
85.0557 557.00
85.36 563.00
85.6643 616.00
85.9685 493.00
86.2728 481.00
86.577 458.00
86.8813 452.00
87.1856 451.00
87.4898 519.00
87.7941 481.00
88.0983 585.00
88.4026 541.00
88.7069 573.00
89.0111 488.00
89.3154 571.00
89.6196 598.00
89.9239 477.00
90.2282 490.00
90.5324 554.00
90.8367 501.00
91.1409 472.00
91.4452 450.00
91.7495 531.00
92.0537 600.00
92.358 747.00
92.6622 745.00
92.9665 701.00
93.2708 623.00
93.575 550.00
93.8793 609.00
94.1835 564.00
94.4878 538.00
94.7921 562.00
95.0963 534.00
95.4006 499.00
95.7048 517.00
96.0091 532.00
96.3134 508.00
96.6176 537.00
96.9219 555.00
97.2261 599.00
97.5304 608.00
97.8347 581.00
98.1389 513.00
98.4432 513.00
98.7474 475.00
99.0517 465.00
99.356 458.00
99.6602 446.00
99.9645 452.00
100.095 506.00

File: MINES_23.xy
9.903433 2783.00
10.2077 2742.00
10.512 2682.00
10.8162 2603.00
11.1205 2373.00
11.4247 2287.00
11.729 2265.00
12.0333 2179.00
12.3375 2249.00
12.6418 2023.00
12.946 1945.00
13.2503 2004.00
13.5546 1923.00
13.8588 1912.00
14.1631 1718.00
14.4673 1794.00
14.7716 1663.00
15.0759 1737.00
15.3801 1810.00
15.6844 1958.00
15.9886 1714.00
16.2929 1822.00
16.5972 2126.00
16.9014 1612.00
17.2057 1488.00
17.5099 1422.00
17.8142 1430.00
18.1185 1460.00
18.4227 1384.00
18.727 1347.00
19.0312 1343.00
19.3355 1813.00
19.6398 2865.00
19.944 1575.00
20.2483 1388.00
20.5525 1616.00
20.8568 2401.00
21.1611 1457.00
21.4653 1165.00
21.7696 1232.00
22.0738 1472.00
22.3781 1316.00
22.6824 1486.00
22.9866 3145.00
23.2909 3258.00
23.5951 1737.00
23.8994 4156.00
24.2037 2250.00
24.5079 3605.00
24.8122 3942.00
25.1164 6941.00
25.4207 5464.00
25.725 12835.00
26.0292 10583.00
26.3335 3562.00
26.6378 8358.00
26.942 2682.00
27.2463 1217.00
27.5505 1240.00
27.8548 1149.00
28.1591 1258.00
28.4633 1870.00
28.7676 1591.00
29.0718 1383.00
29.3761 1758.00
29.6804 1061.00
29.9846 1144.00
30.2889 1152.00
30.5931 1356.00
30.8974 1604.00
31.2017 1213.00
31.5059 1177.00
31.8102 1131.00
32.1144 1530.00
32.4187 1734.00
32.723 1068.00
33.0272 1081.00
33.3315 1146.00
33.6357 911.00
33.94 939.00
34.2443 1199.00
34.5485 1127.00
34.8528 816.00
35.157 766.00
35.4613 782.00
35.7656 756.00
36.0698 937.00
36.3741 1132.00
36.6783 1137.00
36.9826 981.00
37.2869 1203.00
37.5911 2359.00
37.8954 3345.00
38.1996 1884.00
38.5039 1794.00
38.8082 836.00
39.1124 1044.00
39.4167 2000.00
39.7209 1742.00
40.0252 1252.00
40.3295 1057.00
40.6337 800.00
40.938 705.00
41.2422 713.00
41.5465 699.00
41.8508 747.00
42.155 881.00
42.4593 958.00
42.7635 719.00
43.0678 1027.00
43.3721 1075.00
43.6763 895.00
43.9806 892.00
44.2849 1011.00
44.5891 688.00
44.8934 838.00
45.1976 1090.00
45.5019 1184.00
45.8062 1467.00
46.1104 1852.00
46.4147 1562.00
46.7189 660.00
47.0232 787.00
47.3275 1041.00
47.6317 1140.00
47.936 1204.00
48.2402 1619.00
48.5445 1724.00
48.8488 1834.00
49.153 1238.00
49.4573 1055.00
49.7615 910.00
50.0658 1518.00
50.3701 992.00
50.6743 1211.00
50.9786 834.00
51.2828 788.00
51.5871 619.00
51.8914 647.00
52.1956 640.00
52.4999 696.00
52.8041 728.00
53.1084 679.00
53.4127 652.00
53.7169 622.00
54.0212 568.00
54.3254 662.00
54.6297 871.00
54.934 741.00
55.2382 664.00
55.5425 640.00
55.8467 947.00
56.151 1134.00
56.4553 1120.00
56.7595 835.00
57.0638 700.00
57.368 600.00
57.6723 609.00
57.9766 675.00
58.2808 519.00
58.5851 566.00
58.8893 557.00
59.1936 590.00
59.4979 792.00
59.8021 942.00
60.1064 778.00
60.4106 932.00
60.7149 1292.00
61.0192 1118.00
61.3234 894.00
61.6277 652.00
61.932 622.00
62.2362 581.00
62.5405 629.00
62.8447 622.00
63.149 840.00
63.4533 876.00
63.7575 1035.00
64.0618 983.00
64.366 830.00
64.6703 856.00
64.9745 928.00
65.2788 824.00
65.5831 1049.00
65.8873 1077.00
66.1916 808.00
66.4959 874.00
66.8001 1334.00
67.1044 1730.00
67.4086 1306.00
67.7129 1052.00
68.0172 1172.00
68.3214 1153.00
68.6257 917.00
68.9299 719.00
69.2342 725.00
69.5385 613.00
69.8427 566.00
70.147 557.00
70.4512 500.00
70.7555 507.00
71.0598 509.00
71.364 632.00
71.6683 567.00
71.9725 610.00
72.2768 725.00
72.5811 683.00
72.8853 509.00
73.1896 512.00
73.4938 572.00
73.7981 483.00
74.1024 413.00
74.4066 445.00
74.7109 482.00
75.0151 580.00
75.3194 661.00
75.6237 591.00
75.9279 625.00
76.2322 732.00
76.5364 698.00
76.8407 606.00
77.145 722.00
77.4492 745.00
77.7535 824.00
78.0577 835.00
78.362 790.00
78.6663 680.00
78.9705 671.00
79.2748 724.00
79.579 731.00
79.8833 568.00
80.1876 447.00
80.4918 492.00
80.7961 533.00
81.1003 625.00
81.4046 587.00
81.7089 479.00
82.0131 456.00
82.3174 406.00
82.6217 425.00
82.9259 446.00
83.2302 416.00
83.5344 437.00
83.8387 373.00
84.143 438.00
84.4472 432.00
84.7515 512.00
85.0557 563.00
85.36 474.00
85.6643 547.00
85.9685 521.00
86.2728 420.00
86.577 371.00
86.8813 353.00
87.1856 401.00
87.4898 460.00
87.7941 470.00
88.0983 500.00
88.4026 521.00
88.7069 429.00
89.0111 439.00
89.3154 385.00
89.6196 446.00
89.9239 448.00
90.2282 445.00
90.5324 451.00
90.8367 412.00
91.1409 427.00
91.4452 349.00
91.7495 384.00
92.0537 444.00
92.358 382.00
92.6622 372.00
92.9665 467.00
93.2708 453.00
93.575 495.00
93.8793 479.00
94.1835 476.00
94.4878 475.00
94.7921 470.00
95.0963 435.00
95.4006 432.00
95.7048 430.00
96.0091 454.00
96.3134 438.00
96.6176 448.00
96.9219 487.00
97.2261 463.00
97.5304 458.00
97.8347 470.00
98.1389 481.00
98.4432 440.00
98.7474 429.00
99.0517 381.00
99.356 374.00
99.6602 364.00
99.9645 421.00
100.095 389.00

File: MINES_24.xy
9.903433 2618.00
10.2077 2466.00
10.512 2409.00
10.8162 2293.00
11.1205 2120.00
11.4247 2051.00
11.729 1991.00
12.0333 1944.00
12.3375 1850.00
12.6418 1754.00
12.946 1703.00
13.2503 1601.00
13.5546 1512.00
13.8588 1504.00
14.1631 1476.00
14.4673 1347.00
14.7716 1398.00
15.0759 1390.00
15.3801 1345.00
15.6844 1386.00
15.9886 1293.00
16.2929 1341.00
16.5972 1225.00
16.9014 1194.00
17.2057 1209.00
17.5099 1134.00
17.8142 1112.00
18.1185 1139.00
18.4227 1127.00
18.727 1116.00
19.0312 1044.00
19.3355 1084.00
19.6398 1004.00
19.944 963.00
20.2483 984.00
20.5525 974.00
20.8568 984.00
21.1611 876.00
21.4653 890.00
21.7696 1016.00
22.0738 838.00
22.3781 858.00
22.6824 866.00
22.9866 918.00
23.2909 769.00
23.5951 934.00
23.8994 910.00
24.2037 1039.00
24.5079 832.00
24.8122 1418.00
25.1164 781.00
25.4207 1067.00
25.725 938.00
26.0292 907.00
26.3335 979.00
26.6378 987.00
26.942 685.00
27.2463 679.00
27.5505 692.00
27.8548 641.00
28.1591 700.00
28.4633 653.00
28.7676 809.00
29.0718 1377.00
29.3761 692.00
29.6804 636.00
29.9846 604.00
30.2889 564.00
30.5931 674.00
30.8974 588.00
31.2017 668.00
31.5059 528.00
31.8102 586.00
32.1144 1051.00
32.4187 558.00
32.723 699.00
33.0272 548.00
33.3315 531.00
33.6357 552.00
33.94 550.00
34.2443 491.00
34.5485 518.00
34.8528 439.00
35.157 436.00
35.4613 446.00
35.7656 481.00
36.0698 448.00
36.3741 482.00
36.6783 456.00
36.9826 411.00
37.2869 447.00
37.5911 588.00
37.8954 405.00
38.1996 521.00
38.5039 409.00
38.8082 406.00
39.1124 436.00
39.4167 453.00
39.7209 426.00
40.0252 422.00
40.3295 382.00
40.6337 409.00
40.938 354.00
41.2422 350.00
41.5465 359.00
41.8508 339.00
42.155 419.00
42.4593 377.00
42.7635 377.00
43.0678 380.00
43.3721 369.00
43.6763 417.00
43.9806 383.00
44.2849 339.00
44.5891 316.00
44.8934 393.00
45.1976 346.00
45.5019 314.00
45.8062 359.00
46.1104 446.00
46.4147 353.00
46.7189 298.00
47.0232 356.00
47.3275 409.00
47.6317 336.00
47.936 344.00
48.2402 316.00
48.5445 548.00
48.8488 377.00
49.153 358.00
49.4573 345.00
49.7615 356.00
50.0658 417.00
50.3701 408.00
50.6743 374.00
50.9786 326.00
51.2828 279.00
51.5871 301.00
51.8914 331.00
52.1956 331.00
52.4999 324.00
52.8041 370.00
53.1084 305.00
53.4127 300.00
53.7169 257.00
54.0212 263.00
54.3254 250.00
54.6297 338.00
54.934 241.00
55.2382 271.00
55.5425 297.00
55.8467 275.00
56.151 294.00
56.4553 256.00
56.7595 277.00
57.0638 279.00
57.368 228.00
57.6723 367.00
57.9766 245.00
58.2808 249.00
58.5851 222.00
58.8893 274.00
59.1936 262.00
59.4979 264.00
59.8021 270.00
60.1064 270.00
60.4106 276.00
60.7149 261.00
61.0192 302.00
61.3234 235.00
61.6277 228.00
61.932 278.00
62.2362 205.00
62.5405 174.00
62.8447 192.00
63.149 267.00
63.4533 237.00
63.7575 282.00
64.0618 303.00
64.366 219.00
64.6703 275.00
64.9745 259.00
65.2788 241.00
65.5831 270.00
65.8873 266.00
66.1916 236.00
66.4959 219.00
66.8001 209.00
67.1044 231.00
67.4086 233.00
67.7129 231.00
68.0172 244.00
68.3214 237.00
68.6257 198.00
68.9299 241.00
69.2342 239.00
69.5385 220.00
69.8427 245.00
70.147 217.00
70.4512 223.00
70.7555 209.00
71.0598 218.00
71.364 230.00
71.6683 210.00
71.9725 198.00
72.2768 229.00
72.5811 224.00
72.8853 249.00
73.1896 240.00
73.4938 229.00
73.7981 192.00
74.1024 210.00
74.4066 220.00
74.7109 228.00
75.0151 233.00
75.3194 226.00
75.6237 239.00
75.9279 270.00
76.2322 284.00
76.5364 245.00
76.8407 248.00
77.145 271.00
77.4492 262.00
77.7535 241.00
78.0577 219.00
78.362 246.00
78.6663 288.00
78.9705 271.00
79.2748 264.00
79.579 235.00
79.8833 222.00
80.1876 227.00
80.4918 202.00
80.7961 268.00
81.1003 270.00
81.4046 276.00
81.7089 223.00
82.0131 242.00
82.3174 224.00
82.6217 268.00
82.9259 232.00
83.2302 235.00
83.5344 237.00
83.8387 216.00
84.143 242.00
84.4472 257.00
84.7515 249.00
85.0557 235.00
85.36 238.00
85.6643 237.00
85.9685 239.00
86.2728 195.00
86.577 216.00
86.8813 198.00
87.1856 213.00
87.4898 209.00
87.7941 231.00
88.0983 210.00
88.4026 234.00
88.7069 196.00
89.0111 186.00
89.3154 231.00
89.6196 213.00
89.9239 206.00
90.2282 208.00
90.5324 203.00
90.8367 216.00
91.1409 211.00
91.4452 191.00
91.7495 219.00
92.0537 197.00
92.358 220.00
92.6622 239.00
92.9665 178.00
93.2708 211.00
93.575 204.00
93.8793 225.00
94.1835 197.00
94.4878 223.00
94.7921 179.00
95.0963 195.00
95.4006 186.00
95.7048 236.00
96.0091 195.00
96.3134 226.00
96.6176 203.00
96.9219 214.00
97.2261 187.00
97.5304 215.00
97.8347 230.00
98.1389 227.00
98.4432 201.00
98.7474 196.00
99.0517 184.00
99.356 192.00
99.6602 206.00
99.9645 222.00
100.095 209.00

File: Na_13.xy
9.903433 2601.00
10.2077 2546.00
10.512 2391.00
10.8162 2284.00
11.1205 2160.00
11.4247 2128.00
11.729 2102.00
12.0333 1940.00
12.3375 1883.00
12.6418 1653.00
12.946 1710.00
13.2503 1679.00
13.5546 1648.00
13.8588 1529.00
14.1631 1505.00
14.4673 1439.00
14.7716 1412.00
15.0759 1375.00
15.3801 1404.00
15.6844 1383.00
15.9886 1249.00
16.2929 1238.00
16.5972 1270.00
16.9014 1162.00
17.2057 1186.00
17.5099 1160.00
17.8142 1063.00
18.1185 1106.00
18.4227 1058.00
18.727 1073.00
19.0312 1076.00
19.3355 1035.00
19.6398 991.00
19.944 987.00
20.2483 977.00
20.5525 900.00
20.8568 874.00
21.1611 902.00
21.4653 843.00
21.7696 894.00
22.0738 857.00
22.3781 827.00
22.6824 811.00
22.9866 775.00
23.2909 760.00
23.5951 805.00
23.8994 752.00
24.2037 745.00
24.5079 758.00
24.8122 757.00
25.1164 732.00
25.4207 689.00
25.725 691.00
26.0292 672.00
26.3335 733.00
26.6378 724.00
26.942 649.00
27.2463 710.00
27.5505 689.00
27.8548 668.00
28.1591 664.00
28.4633 618.00
28.7676 597.00
29.0718 583.00
29.3761 539.00
29.6804 595.00
29.9846 719.00
30.2889 569.00
30.5931 556.00
30.8974 601.00
31.2017 520.00
31.5059 958.00
31.8102 572.00
32.1144 570.00
32.4187 591.00
32.723 465.00
33.0272 479.00
33.3315 497.00
33.6357 449.00
33.94 473.00
34.2443 497.00
34.5485 507.00
34.8528 436.00
35.157 507.00
35.4613 447.00
35.7656 444.00
36.0698 431.00
36.3741 417.00
36.6783 458.00
36.9826 386.00
37.2869 381.00
37.5911 407.00
37.8954 474.00
38.1996 366.00
38.5039 400.00
38.8082 352.00
39.1124 384.00
39.4167 369.00
39.7209 342.00
40.0252 385.00
40.3295 363.00
40.6337 358.00
40.938 341.00
41.2422 337.00
41.5465 348.00
41.8508 295.00
42.155 303.00
42.4593 361.00
42.7635 338.00
43.0678 374.00
43.3721 372.00
43.6763 327.00
43.9806 349.00
44.2849 317.00
44.5891 295.00
44.8934 331.00
45.1976 324.00
45.5019 428.00
45.8062 288.00
46.1104 315.00
46.4147 319.00
46.7189 313.00
47.0232 294.00
47.3275 288.00
47.6317 273.00
47.936 303.00
48.2402 265.00
48.5445 277.00
48.8488 258.00
49.153 291.00
49.4573 224.00
49.7615 297.00
50.0658 270.00
50.3701 263.00
50.6743 285.00
50.9786 265.00
51.2828 249.00
51.5871 283.00
51.8914 269.00
52.1956 264.00
52.4999 283.00
52.8041 266.00
53.1084 289.00
53.4127 236.00
53.7169 237.00
54.0212 256.00
54.3254 243.00
54.6297 219.00
54.934 209.00
55.2382 247.00
55.5425 212.00
55.8467 229.00
56.151 225.00
56.4553 257.00
56.7595 214.00
57.0638 204.00
57.368 197.00
57.6723 213.00
57.9766 209.00
58.2808 211.00
58.5851 211.00
58.8893 188.00
59.1936 240.00
59.4979 190.00
59.8021 225.00
60.1064 223.00
60.4106 209.00
60.7149 178.00
61.0192 182.00
61.3234 219.00
61.6277 191.00
61.932 206.00
62.2362 196.00
62.5405 222.00
62.8447 197.00
63.149 216.00
63.4533 179.00
63.7575 201.00
64.0618 197.00
64.366 169.00
64.6703 222.00
64.9745 206.00
65.2788 171.00
65.5831 192.00
65.8873 194.00
66.1916 183.00
66.4959 193.00
66.8001 207.00
67.1044 193.00
67.4086 196.00
67.7129 178.00
68.0172 165.00
68.3214 213.00
68.6257 183.00
68.9299 196.00
69.2342 191.00
69.5385 217.00
69.8427 193.00
70.147 205.00
70.4512 196.00
70.7555 197.00
71.0598 215.00
71.364 182.00
71.6683 189.00
71.9725 209.00
72.2768 187.00
72.5811 186.00
72.8853 207.00
73.1896 191.00
73.4938 208.00
73.7981 210.00
74.1024 215.00
74.4066 179.00
74.7109 208.00
75.0151 206.00
75.3194 245.00
75.6237 203.00
75.9279 173.00
76.2322 198.00
76.5364 181.00
76.8407 203.00
77.145 226.00
77.4492 197.00
77.7535 195.00
78.0577 200.00
78.362 226.00
78.6663 236.00
78.9705 191.00
79.2748 220.00
79.579 207.00
79.8833 220.00
80.1876 213.00
80.4918 246.00
80.7961 229.00
81.1003 220.00
81.4046 245.00
81.7089 230.00
82.0131 212.00
82.3174 230.00
82.6217 233.00
82.9259 202.00
83.2302 192.00
83.5344 238.00
83.8387 248.00
84.143 228.00
84.4472 220.00
84.7515 209.00
85.0557 218.00
85.36 211.00
85.6643 209.00
85.9685 224.00
86.2728 218.00
86.577 169.00
86.8813 189.00
87.1856 164.00
87.4898 214.00
87.7941 195.00
88.0983 193.00
88.4026 233.00
88.7069 183.00
89.0111 188.00
89.3154 194.00
89.6196 173.00
89.9239 206.00
90.2282 189.00
90.5324 179.00
90.8367 173.00
91.1409 174.00
91.4452 167.00
91.7495 178.00
92.0537 183.00
92.358 184.00
92.6622 148.00
92.9665 198.00
93.2708 184.00
93.575 186.00
93.8793 211.00
94.1835 173.00
94.4878 176.00
94.7921 194.00
95.0963 180.00
95.4006 169.00
95.7048 175.00
96.0091 187.00
96.3134 169.00
96.6176 200.00
96.9219 159.00
97.2261 202.00
97.5304 170.00
97.8347 157.00
98.1389 178.00
98.4432 165.00
98.7474 195.00
99.0517 197.00
99.356 191.00
99.6602 203.00
99.9645 162.00
100.095 184.00