Folder: alab-pipeline/data/xrd_creation/results (part 83)

File: PG_1518-1.xy
10.0094 2328.00
10.3137 2195.00
10.618 2222.00
10.9222 2082.00
11.2265 1932.00
11.5307 1862.00
11.835 1827.00
12.1393 1781.00
12.4435 1762.00
12.7478 1679.00
13.052 1562.00
13.3563 1560.00
13.6606 1487.00
13.9648 1445.00
14.2691 1444.00
14.5733 1414.00
14.8776 1378.00
15.1819 1319.00
15.4861 1371.00
15.7904 1324.00
16.0946 1356.00
16.3989 1290.00
16.7032 1320.00
17.0074 1248.00
17.3117 1199.00
17.6159 1266.00
17.9202 1191.00
18.2245 1172.00
18.5287 1189.00
18.833 1186.00
19.1372 1381.00
19.4415 1116.00
19.7458 1109.00
20.05 990.00
20.3543 1058.00
20.6585 1005.00
20.9628 1042.00
21.2671 981.00
21.5713 1411.00
21.8756 2015.00
22.1798 941.00
22.4841 926.00
22.7884 886.00
23.0926 934.00
23.3969 849.00
23.7011 837.00
24.0054 876.00
24.3097 840.00
24.6139 795.00
24.9182 818.00
25.2224 798.00
25.5267 756.00
25.831 751.00
26.1352 707.00
26.4395 752.00
26.7438 711.00
27.048 734.00
27.3523 700.00
27.6565 725.00
27.9608 700.00
28.2651 758.00
28.5693 733.00
28.8736 801.00
29.1778 792.00
29.4821 845.00
29.7864 987.00
30.0906 1311.00
30.3949 2229.00
30.6991 6190.00
31.0034 7516.00
31.3077 1295.00
31.6119 1278.00
31.9162 2606.00
32.2204 1292.00
32.5247 831.00
32.829 729.00
33.1332 816.00
33.4375 1116.00
33.7417 1118.00
34.046 834.00
34.3503 814.00
34.6545 897.00
34.9588 949.00
35.263 1878.00
35.5673 2779.00
35.8716 3680.00
36.1758 787.00
36.4801 706.00
36.7843 676.00
37.0886 777.00
37.3929 916.00
37.6971 1295.00
38.0014 2192.00
38.3056 959.00
38.6099 1522.00
38.9142 777.00
39.2184 571.00
39.5227 507.00
39.8269 596.00
40.1312 774.00
40.4355 509.00
40.7397 489.00
41.044 486.00
41.3482 544.00
41.6525 545.00
41.9568 623.00
42.261 1057.00
42.5653 534.00
42.8695 583.00
43.1738 618.00
43.4781 534.00
43.7823 463.00
44.0866 714.00
44.3909 479.00
44.6951 525.00
44.9994 608.00
45.3036 584.00
45.6079 664.00
45.9122 2528.00
46.2164 880.00
46.5207 483.00
46.8249 430.00
47.1292 481.00
47.4335 493.00
47.7377 458.00
48.042 477.00
48.3462 487.00
48.6505 632.00
48.9548 684.00
49.259 481.00
49.5633 1193.00
49.8675 561.00
50.1718 521.00
50.4761 469.00
50.7803 525.00
51.0846 1328.00
51.3888 5951.00
51.6931 687.00
51.9974 488.00
52.3016 472.00
52.6059 503.00
52.9101 826.00
53.2144 490.00
53.5187 457.00
53.8229 446.00
54.1272 446.00
54.4314 475.00
54.7357 613.00
55.04 478.00
55.3442 408.00
55.6485 426.00
55.9527 491.00
56.257 1738.00
56.5613 571.00
56.8655 537.00
57.1698 542.00
57.474 624.00
57.7783 1154.00
58.0826 709.00
58.3868 522.00
58.6911 482.00
58.9953 538.00
59.2996 1126.00
59.6039 863.00
59.9081 740.00
60.2124 835.00
60.5166 871.00
60.8209 3134.00
61.1252 3389.00
61.4294 735.00
61.7337 517.00
62.0379 540.00
62.3422 1138.00
62.6465 1107.00
62.9507 665.00
63.255 585.00
63.5592 587.00
63.8635 1415.00
64.1678 1042.00
64.472 980.00
64.7763 1392.00
65.0806 942.00
65.3848 1087.00
65.6891 469.00
65.9933 405.00
66.2976 399.00
66.6019 459.00
66.9061 561.00
67.2104 377.00
67.5146 385.00
67.8189 423.00
68.1232 545.00
68.4274 803.00
68.7317 445.00
69.0359 464.00
69.3402 526.00
69.6445 875.00
69.9487 674.00
70.253 540.00
70.5572 554.00
70.8615 450.00
71.1658 382.00
71.47 349.00
71.7743 406.00
72.0785 376.00
72.3828 444.00
72.6871 503.00
72.9913 430.00
73.2956 375.00
73.5998 436.00
73.9041 1003.00
74.2084 512.00
74.5126 420.00
74.8169 445.00
75.1211 521.00
75.4254 726.00
75.7297 416.00
76.0339 389.00
76.3382 394.00
76.6424 1236.00
76.9467 565.00
77.251 357.00
77.5552 345.00
77.8595 511.00
78.1637 568.00
78.468 371.00
78.7723 428.00
79.0765 399.00
79.3808 771.00
79.685 449.00
79.9893 352.00
80.2936 359.00
80.5978 446.00
80.9021 498.00
81.2063 360.00
81.5106 373.00
81.8149 458.00
82.1191 649.00
82.4234 456.00
82.7277 424.00
83.0319 454.00
83.3362 1592.00
83.6404 1253.00
83.9447 447.00
84.249 428.00
84.5532 470.00
84.8575 434.00
85.1617 411.00
85.466 408.00
85.7703 460.00
86.0745 1315.00
86.3788 719.00
86.683 352.00
86.9873 378.00
87.2916 441.00
87.5958 441.00
87.9001 342.00
88.2043 348.00
88.5086 382.00
88.8129 400.00
89.1171 437.00
89.4214 424.00
89.7256 353.00
90.0299 907.00
90.3342 669.00
90.6384 407.00
90.9427 385.00
91.2469 460.00
91.5512 495.00
91.8555 421.00
92.1597 413.00
92.464 451.00
92.7682 617.00
93.0725 472.00
93.3768 431.00
93.681 404.00
93.9853 385.00
94.2895 468.00
94.5938 504.00
94.8981 447.00
95.2023 605.00
95.5066 564.00
95.8108 493.00
96.1151 565.00
96.4194 639.00
96.7236 1119.00
97.0279 724.00
97.3321 398.00
97.6364 395.00
97.9407 755.00
98.2449 577.00
98.5492 450.00
98.8534 427.00
99.1577 526.00
99.462 521.00
99.7662 475.00
99.9944 366.00

File: PG_1520-1.xy
10.0094 2256.00
10.3137 2166.00
10.618 2082.00
10.9222 1944.00
11.2265 1870.00
11.5307 1895.00
11.835 1853.00
12.1393 1745.00
12.4435 1670.00
12.7478 1683.00
13.052 1635.00
13.3563 1606.00
13.6606 1484.00
13.9648 1456.00
14.2691 1518.00
14.5733 1419.00
14.8776 1474.00
15.1819 1418.00
15.4861 1376.00
15.7904 1353.00
16.0946 1378.00
16.3989 1302.00
16.7032 1292.00
17.0074 1296.00
17.3117 1382.00
17.6159 2816.00
17.9202 1184.00
18.2245 1140.00
18.5287 1122.00
18.833 1187.00
19.1372 1499.00
19.4415 1109.00
19.7458 1034.00
20.05 1020.00
20.3543 1042.00
20.6585 985.00
20.9628 982.00
21.2671 880.00
21.5713 955.00
21.8756 948.00
22.1798 936.00
22.4841 916.00
22.7884 933.00
23.0926 927.00
23.3969 967.00
23.7011 1262.00
24.0054 6625.00
24.3097 1440.00
24.6139 1036.00
24.9182 903.00
25.2224 734.00
25.5267 812.00
25.831 803.00
26.1352 733.00
26.4395 769.00
26.7438 747.00
27.048 733.00
27.3523 790.00
27.6565 772.00
27.9608 797.00
28.2651 723.00
28.5693 734.00
28.8736 722.00
29.1778 715.00
29.4821 884.00
29.7864 1480.00
30.0906 2042.00
30.3949 3408.00
30.6991 4566.00
31.0034 16367.00
31.3077 1358.00
31.6119 1673.00
31.9162 4706.00
32.2204 2049.00
32.5247 1087.00
32.829 867.00
33.1332 822.00
33.4375 1046.00
33.7417 1621.00
34.046 1378.00
34.3503 2564.00
34.6545 847.00
34.9588 1063.00
35.263 2953.00
35.5673 4825.00
35.8716 1134.00
36.1758 794.00
36.4801 750.00
36.7843 758.00
37.0886 835.00
37.3929 1322.00
37.6971 1971.00
38.0014 1105.00
38.3056 1617.00
38.6099 4099.00
38.9142 1408.00
39.2184 765.00
39.5227 633.00
39.8269 566.00
40.1312 510.00
40.4355 503.00
40.7397 747.00
41.044 635.00
41.3482 553.00
41.6525 479.00
41.9568 545.00
42.261 529.00
42.5653 523.00
42.8695 700.00
43.1738 1000.00
43.4781 773.00
43.7823 553.00
44.0866 479.00
44.3909 487.00
44.6951 573.00
44.9994 706.00
45.3036 603.00
45.6079 725.00
45.9122 2176.00
46.2164 1359.00
46.5207 1686.00
46.8249 4530.00
47.1292 594.00
47.4335 513.00
47.7377 655.00
48.042 766.00
48.3462 603.00
48.6505 908.00
48.9548 1182.00
49.259 667.00
49.5633 562.00
49.8675 625.00
50.1718 494.00
50.4761 449.00
50.7803 455.00
51.0846 539.00
51.3888 439.00
51.6931 428.00
51.9974 423.00
52.3016 436.00
52.6059 532.00
52.9101 415.00
53.2144 412.00
53.5187 436.00
53.8229 402.00
54.1272 512.00
54.4314 567.00
54.7357 660.00
55.04 606.00
55.3442 1325.00
55.6485 438.00
55.9527 391.00
56.257 428.00
56.5613 466.00
56.8655 520.00
57.1698 476.00
57.474 728.00
57.7783 1331.00
58.0826 997.00
58.3868 691.00
58.6911 1095.00
58.9953 1770.00
59.2996 926.00
59.6039 653.00
59.9081 907.00
60.2124 1338.00
60.5166 1020.00
60.8209 1118.00
61.1252 1294.00
61.4294 967.00
61.7337 596.00
62.0379 552.00
62.3422 507.00
62.6465 642.00
62.9507 813.00
63.255 583.00
63.5592 546.00
63.8635 809.00
64.1678 2197.00
64.472 1588.00
64.7763 2660.00
65.0806 1968.00
65.3848 757.00
65.6891 544.00
65.9933 431.00
66.2976 394.00
66.6019 462.00
66.9061 504.00
67.2104 399.00
67.5146 397.00
67.8189 426.00
68.1232 420.00
68.4274 451.00
68.7317 466.00
69.0359 540.00
69.3402 768.00
69.6445 963.00
69.9487 1924.00
70.253 786.00
70.5572 868.00
70.8615 699.00
71.1658 473.00
71.47 438.00
71.7743 912.00
72.0785 441.00
72.3828 476.00
72.6871 599.00
72.9913 514.00
73.2956 427.00
73.5998 466.00
73.9041 568.00
74.2084 610.00
74.5126 761.00
74.8169 824.00
75.1211 383.00
75.4254 364.00
75.7297 340.00
76.0339 365.00
76.3382 368.00
76.6424 378.00
76.9467 423.00
77.251 360.00
77.5552 357.00
77.8595 431.00
78.1637 443.00
78.468 431.00
78.7723 439.00
79.0765 402.00
79.3808 493.00
79.685 1392.00
79.9893 1066.00
80.2936 775.00
80.5978 382.00
80.9021 352.00
81.2063 364.00
81.5106 387.00
81.8149 885.00
82.1191 551.00
82.4234 484.00
82.7277 411.00
83.0319 347.00
83.3362 368.00
83.6404 401.00
83.9447 428.00
84.249 439.00
84.5532 490.00
84.8575 459.00
85.1617 424.00
85.466 418.00
85.7703 541.00
86.0745 457.00
86.3788 360.00
86.683 349.00
86.9873 350.00
87.2916 350.00
87.5958 309.00
87.9001 337.00
88.2043 323.00
88.5086 311.00
88.8129 338.00
89.1171 409.00
89.4214 444.00
89.7256 379.00
90.0299 408.00
90.3342 435.00
90.6384 457.00
90.9427 444.00
91.2469 525.00
91.5512 575.00
91.8555 477.00
92.1597 411.00
92.464 378.00
92.7682 375.00
93.0725 402.00
93.3768 370.00
93.681 417.00
93.9853 418.00
94.2895 582.00
94.5938 612.00
94.8981 548.00
95.2023 571.00
95.5066 735.00
95.8108 688.00
96.1151 621.00
96.4194 800.00
96.7236 693.00
97.0279 498.00
97.3321 403.00
97.6364 387.00
97.9407 346.00
98.2449 397.00
98.5492 462.00
98.8534 458.00
99.1577 553.00
99.462 558.00
99.7662 719.00
99.9944 702.00

File: PG_1521-1.xy
10.0094 2326.00
10.3137 2235.00
10.618 2157.00
10.9222 2145.00
11.2265 2031.00
11.5307 1971.00
11.835 1866.00
12.1393 1849.00
12.4435 1710.00
12.7478 1671.00
13.052 1677.00
13.3563 1604.00
13.6606 1562.00
13.9648 1612.00
14.2691 1558.00
14.5733 1547.00
14.8776 1500.00
15.1819 1543.00
15.4861 1917.00
15.7904 4823.00
16.0946 4994.00
16.3989 1772.00
16.7032 1450.00
17.0074 1330.00
17.3117 1280.00
17.6159 1223.00
17.9202 1254.00
18.2245 1148.00
18.5287 1223.00
18.833 1226.00
19.1372 1407.00
19.4415 1157.00
19.7458 1092.00
20.05 1110.00
20.3543 1030.00
20.6585 1013.00
20.9628 1029.00
21.2671 1008.00
21.5713 942.00
21.8756 1015.00
22.1798 1009.00
22.4841 931.00
22.7884 924.00
23.0926 884.00
23.3969 936.00
23.7011 899.00
24.0054 831.00
24.3097 875.00
24.6139 840.00
24.9182 765.00
25.2224 822.00
25.5267 786.00
25.831 837.00
26.1352 818.00
26.4395 814.00
26.7438 915.00
27.048 1081.00
27.3523 2309.00
27.6565 6891.00
27.9608 2276.00
28.2651 10121.00
28.5693 2106.00
28.8736 1023.00
29.1778 836.00
29.4821 879.00
29.7864 875.00
30.0906 951.00
30.3949 1511.00
30.6991 2143.00
31.0034 1169.00
31.3077 912.00
31.6119 1237.00
31.9162 3426.00
32.2204 1571.00
32.5247 875.00
32.829 696.00
33.1332 698.00
33.4375 629.00
33.7417 831.00
34.046 687.00
34.3503 624.00
34.6545 658.00
34.9588 651.00
35.263 892.00
35.5673 1508.00
35.8716 820.00
36.1758 964.00
36.4801 891.00
36.7843 593.00
37.0886 587.00
37.3929 647.00
37.6971 835.00
38.0014 655.00
38.3056 732.00
38.6099 1047.00
38.9142 910.00
39.2184 869.00
39.5227 2002.00
39.8269 6472.00
40.1312 1385.00
40.4355 663.00
40.7397 578.00
41.044 489.00
41.3482 480.00
41.6525 507.00
41.9568 555.00
42.261 708.00
42.5653 1554.00
42.8695 705.00
43.1738 606.00
43.4781 575.00
43.7823 443.00
44.0866 459.00
44.3909 485.00
44.6951 488.00
44.9994 535.00
45.3036 458.00
45.6079 509.00
45.9122 556.00
46.2164 606.00
46.5207 502.00
46.8249 499.00
47.1292 678.00
47.4335 1449.00
47.7377 686.00
48.042 714.00
48.3462 1632.00
48.6505 3058.00
48.9548 5555.00
49.259 1756.00
49.5633 726.00
49.8675 643.00
50.1718 1092.00
50.4761 679.00
50.7803 455.00
51.0846 470.00
51.3888 442.00
51.6931 399.00
51.9974 393.00
52.3016 354.00
52.6059 391.00
52.9101 362.00
53.2144 375.00
53.5187 359.00
53.8229 347.00
54.1272 380.00
54.4314 424.00
54.7357 480.00
55.04 497.00
55.3442 837.00
55.6485 1584.00
55.9527 628.00
56.257 571.00
56.5613 1098.00
56.8655 669.00
57.1698 485.00
57.474 433.00
57.7783 666.00
58.0826 902.00
58.3868 578.00
58.6911 481.00
58.9953 709.00
59.2996 682.00
59.6039 471.00
59.9081 438.00
60.2124 498.00
60.5166 503.00
60.8209 498.00
61.1252 537.00
61.4294 482.00
61.7337 405.00
62.0379 376.00
62.3422 359.00
62.6465 390.00
62.9507 472.00
63.255 430.00
63.5592 439.00
63.8635 556.00
64.1678 1324.00
64.472 1398.00
64.7763 1009.00
65.0806 1049.00
65.3848 916.00
65.6891 559.00
65.9933 440.00
66.2976 509.00
66.6019 419.00
66.9061 331.00
67.2104 301.00
67.5146 312.00
67.8189 302.00
68.1232 343.00
68.4274 317.00
68.7317 368.00
69.0359 365.00
69.3402 436.00
69.6445 628.00
69.9487 1274.00
70.253 760.00
70.5572 539.00
70.8615 493.00
71.1658 675.00
71.47 477.00
71.7743 382.00
72.0785 322.00
72.3828 314.00
72.6871 384.00
72.9913 484.00
73.2956 436.00
73.5998 361.00
73.9041 364.00
74.2084 359.00
74.5126 315.00
74.8169 341.00
75.1211 351.00
75.4254 338.00
75.7297 416.00
76.0339 645.00
76.3382 715.00
76.6424 775.00
76.9467 668.00
77.251 791.00
77.5552 1210.00
77.8595 1257.00
78.1637 758.00
78.468 522.00
78.7723 569.00
79.0765 467.00
79.3808 378.00
79.685 301.00
79.9893 310.00
80.2936 281.00
80.5978 303.00
80.9021 289.00
81.2063 283.00
81.5106 281.00
81.8149 304.00
82.1191 334.00
82.4234 512.00
82.7277 577.00
83.0319 414.00
83.3362 318.00
83.6404 307.00
83.9447 284.00
84.249 316.00
84.5532 354.00
84.8575 365.00
85.1617 390.00
85.466 419.00
85.7703 344.00
86.0745 338.00
86.3788 324.00
86.683 272.00
86.9873 290.00
87.2916 295.00
87.5958 260.00
87.9001 298.00
88.2043 333.00
88.5086 393.00
88.8129 611.00
89.1171 678.00
89.4214 519.00
89.7256 397.00
90.0299 382.00
90.3342 560.00
90.6384 611.00
90.9427 491.00
91.2469 436.00
91.5512 444.00
91.8555 424.00
92.1597 398.00
92.464 340.00
92.7682 284.00
93.0725 278.00
93.3768 284.00
93.681 353.00
93.9853 289.00
94.2895 350.00
94.5938 333.00
94.8981 394.00
95.2023 439.00
95.5066 553.00
95.8108 739.00
96.1151 679.00
96.4194 619.00
96.7236 591.00
97.0279 646.00
97.3321 502.00
97.6364 433.00
97.9407 317.00
98.2449 319.00
98.5492 315.00
98.8534 347.00
99.1577 362.00
99.462 329.00
99.7662 293.00
99.9944 308.00

File: PG_1522-1.xy
10.0094 2349.00
10.3137 2176.00
10.618 2112.00
10.9222 2146.00
11.2265 2031.00
11.5307 1911.00
11.835 1831.00
12.1393 1782.00
12.4435 1742.00
12.7478 1737.00
13.052 1670.00
13.3563 1635.00
13.6606 1607.00
13.9648 1556.00
14.2691 1555.00
14.5733 1434.00
14.8776 1455.00
15.1819 1481.00
15.4861 1489.00
15.7904 1583.00
16.0946 1668.00
16.3989 1461.00
16.7032 1445.00
17.0074 1320.00
17.3117 1365.00
17.6159 1308.00
17.9202 1264.00
18.2245 1266.00
18.5287 1339.00
18.833 1461.00
19.1372 3172.00
19.4415 1581.00
19.7458 1240.00
20.05 1135.00
20.3543 1145.00
20.6585 1103.00
20.9628 1127.00
21.2671 1174.00
21.5713 4103.00
21.8756 1167.00
22.1798 1085.00
22.4841 1065.00
22.7884 1040.00
23.0926 994.00
23.3969 1094.00
23.7011 1562.00
24.0054 1017.00
24.3097 1166.00
24.6139 1250.00
24.9182 1026.00
25.2224 1005.00
25.5267 927.00
25.831 983.00
26.1352 937.00
26.4395 931.00
26.7438 928.00
27.048 944.00
27.3523 935.00
27.6565 908.00
27.9608 955.00
28.2651 915.00
28.5693 965.00
28.8736 1046.00
29.1778 1093.00
29.4821 1318.00
29.7864 2880.00
30.0906 3731.00
30.3949 9626.00
30.6991 13654.00
31.0034 6306.00
31.3077 2757.00
31.6119 3901.00
31.9162 14575.00
32.2204 8113.00
32.5247 2533.00
32.829 1737.00
33.1332 1521.00
33.4375 1892.00
33.7417 3807.00
34.046 2149.00
34.3503 2899.00
34.6545 1618.00
34.9588 2048.00
35.263 5731.00
35.5673 12371.00
35.8716 3004.00
36.1758 1904.00
36.4801 1962.00
36.7843 1531.00
37.0886 2132.00
37.3929 3401.00
37.6971 4948.00
38.0014 2366.00
38.3056 2928.00
38.6099 7430.00
38.9142 3687.00
39.2184 1603.00
39.5227 1147.00
39.8269 2058.00
40.1312 1151.00
40.4355 842.00
40.7397 830.00
41.044 749.00
41.3482 764.00
41.6525 714.00
41.9568 770.00
42.261 798.00
42.5653 888.00
42.8695 1276.00
43.1738 2091.00
43.4781 1774.00
43.7823 1280.00
44.0866 868.00
44.3909 826.00
44.6951 1030.00
44.9994 1452.00
45.3036 1109.00
45.6079 1209.00
45.9122 2564.00
46.2164 2735.00
46.5207 1159.00
46.8249 827.00
47.1292 786.00
47.4335 751.00
47.7377 763.00
48.042 781.00
48.3462 1159.00
48.6505 1896.00
48.9548 3264.00
49.259 1352.00
49.5633 1072.00
49.8675 1405.00
50.1718 832.00
50.4761 819.00
50.7803 873.00
51.0846 1104.00
51.3888 882.00
51.6931 626.00
51.9974 657.00
52.3016 658.00
52.6059 699.00
52.9101 698.00
53.2144 659.00
53.5187 650.00
53.8229 644.00
54.1272 714.00
54.4314 870.00
54.7357 1305.00
55.04 987.00
55.3442 738.00
55.6485 658.00
55.9527 671.00
56.257 748.00
56.5613 834.00
56.8655 959.00
57.1698 1150.00
57.474 1433.00
57.7783 3463.00
58.0826 2900.00
58.3868 1411.00
58.6911 1138.00
58.9953 1260.00
59.2996 2395.00
59.6039 1656.00
59.9081 2182.00
60.2124 3012.00
60.5166 2445.00
60.8209 2512.00
61.1252 3290.00
61.4294 2598.00
61.7337 1459.00
62.0379 1017.00
62.3422 1058.00
62.6465 1326.00
62.9507 1999.00
63.255 1374.00
63.5592 1221.00
63.8635 1495.00
64.1678 2579.00
64.472 4106.00
64.7763 6897.00
65.0806 6016.00
65.3848 1983.00
65.6891 1284.00
65.9933 778.00
66.2976 732.00
66.6019 741.00
66.9061 704.00
67.2104 649.00
67.5146 748.00
67.8189 722.00
68.1232 660.00
68.4274 653.00
68.7317 734.00
69.0359 957.00
69.3402 1390.00
69.6445 1939.00
69.9487 1772.00
70.253 1465.00
70.5572 1813.00
70.8615 1481.00
71.1658 988.00
71.47 808.00
71.7743 687.00
72.0785 793.00
72.3828 925.00
72.6871 1335.00
72.9913 1020.00
73.2956 756.00
73.5998 785.00
73.9041 1268.00
74.2084 1300.00
74.5126 817.00
74.8169 727.00
75.1211 710.00
75.4254 642.00
75.7297 584.00
76.0339 524.00
76.3382 571.00
76.6424 570.00
76.9467 618.00
77.251 579.00
77.5552 604.00
77.8595 691.00
78.1637 767.00
78.468 743.00
78.7723 727.00
79.0765 769.00
79.3808 685.00
79.685 579.00
79.9893 548.00
80.2936 518.00
80.5978 527.00
80.9021 536.00
81.2063 484.00
81.5106 475.00
81.8149 504.00
82.1191 684.00
82.4234 795.00
82.7277 712.00
83.0319 559.00
83.3362 591.00
83.6404 664.00
83.9447 705.00
84.249 853.00
84.5532 1174.00
84.8575 965.00
85.1617 732.00
85.466 786.00
85.7703 792.00
86.0745 768.00
86.3788 786.00
86.683 627.00
86.9873 550.00
87.2916 519.00
87.5958 485.00
87.9001 517.00
88.2043 524.00
88.5086 556.00
88.8129 687.00
89.1171 786.00
89.4214 834.00
89.7256 695.00
90.0299 758.00
90.3342 852.00
90.6384 801.00
90.9427 796.00
91.2469 1043.00
91.5512 1240.00
91.8555 1113.00
92.1597 827.00
92.464 767.00
92.7682 733.00
93.0725 799.00
93.3768 764.00
93.681 812.00
93.9853 839.00
94.2895 928.00
94.5938 1158.00
94.8981 1149.00
95.2023 1110.00
95.5066 1088.00
95.8108 1163.00
96.1151 1357.00
96.4194 1521.00
96.7236 1345.00
97.0279 985.00
97.3321 742.00
97.6364 704.00
97.9407 658.00
98.2449 752.00
98.5492 836.00
98.8534 881.00
99.1577 996.00
99.462 875.00
99.7662 773.00
99.9944 702.00

File: PG_1619-1.xy
10.0094 2352.00
10.3137 2436.00
10.618 2326.00
10.9222 2342.00
11.2265 2912.00
11.5307 5836.00
11.835 2493.00
12.1393 2097.00
12.4435 1891.00
12.7478 1806.00
13.052 1694.00
13.3563 1638.00
13.6606 1472.00
13.9648 1466.00
14.2691 1529.00
14.5733 1457.00
14.8776 1568.00
15.1819 1653.00
15.4861 1392.00
15.7904 1312.00
16.0946 1410.00
16.3989 1446.00
16.7032 1259.00
17.0074 1240.00
17.3117 1340.00
17.6159 1667.00
17.9202 1304.00
18.2245 1420.00
18.5287 1185.00
18.833 1184.00
19.1372 1241.00
19.4415 1136.00
19.7458 1512.00
20.05 1994.00
20.3543 1186.00
20.6585 1184.00
20.9628 1048.00
21.2671 1006.00
21.5713 1032.00
21.8756 1060.00
22.1798 950.00
22.4841 1078.00
22.7884 1280.00
23.0926 2281.00
23.3969 1170.00
23.7011 1177.00
24.0054 1040.00
24.3097 1171.00
24.6139 979.00
24.9182 1055.00
25.2224 1053.00
25.5267 987.00
25.831 1167.00
26.1352 1026.00
26.4395 902.00
26.7438 851.00
27.048 903.00
27.3523 973.00
27.6565 996.00
27.9608 1193.00
28.2651 3068.00
28.5693 2333.00
28.8736 1152.00
29.1778 1019.00
29.4821 1209.00
29.7864 944.00
30.0906 1242.00
30.3949 1054.00
30.6991 906.00
31.0034 933.00
31.3077 2088.00
31.6119 3212.00
31.9162 2448.00
32.2204 1369.00
32.5247 1273.00
32.829 2758.00
33.1332 1393.00
33.4375 991.00
33.7417 1025.00
34.046 1004.00
34.3503 1216.00
34.6545 1140.00
34.9588 1753.00
35.263 998.00
35.5673 1152.00
35.8716 970.00
36.1758 1018.00
36.4801 973.00
36.7843 2636.00
37.0886 1521.00
37.3929 900.00
37.6971 936.00
38.0014 957.00
38.3056 894.00
38.6099 1804.00
38.9142 1255.00
39.2184 860.00
39.5227 809.00
39.8269 837.00
40.1312 710.00
40.4355 1073.00
40.7397 931.00
41.044 712.00
41.3482 726.00
41.6525 615.00
41.9568 604.00
42.261 655.00
42.5653 661.00
42.8695 669.00
43.1738 581.00
43.4781 603.00
43.7823 818.00
44.0866 818.00
44.3909 690.00
44.6951 664.00
44.9994 645.00
45.3036 582.00
45.6079 562.00
45.9122 604.00
46.2164 542.00
46.5207 531.00
46.8249 566.00
47.1292 782.00
47.4335 533.00
47.7377 568.00
48.042 630.00
48.3462 717.00
48.6505 1146.00
48.9548 670.00
49.259 692.00
49.5633 779.00
49.8675 1162.00
50.1718 1307.00
50.4761 691.00
50.7803 576.00
51.0846 665.00
51.3888 631.00
51.6931 630.00
51.9974 586.00
52.3016 684.00
52.6059 621.00
52.9101 870.00
53.2144 1050.00
53.5187 807.00
53.8229 808.00
54.1272 583.00
54.4314 625.00
54.7357 510.00
55.04 491.00
55.3442 518.00
55.6485 797.00
55.9527 620.00
56.257 661.00
56.5613 580.00
56.8655 626.00
57.1698 659.00
57.474 518.00
57.7783 522.00
58.0826 535.00
58.3868 669.00
58.6911 801.00
58.9953 620.00
59.2996 577.00
59.6039 811.00
59.9081 932.00
60.2124 771.00
60.5166 487.00
60.8209 521.00
61.1252 747.00
61.4294 590.00
61.7337 609.00
62.0379 571.00
62.3422 791.00
62.6465 721.00
62.9507 502.00
63.255 671.00
63.5592 754.00
63.8635 472.00
64.1678 447.00
64.472 479.00
64.7763 436.00
65.0806 483.00
65.3848 523.00
65.6891 480.00
65.9933 632.00
66.2976 683.00
66.6019 649.00
66.9061 558.00
67.2104 439.00
67.5146 480.00
67.8189 457.00
68.1232 473.00
68.4274 653.00
68.7317 869.00
69.0359 846.00
69.3402 602.00
69.6445 755.00
69.9487 863.00
70.253 749.00
70.5572 530.00
70.8615 512.00
71.1658 560.00
71.47 554.00
71.7743 577.00
72.0785 582.00
72.3828 582.00
72.6871 491.00
72.9913 500.00
73.2956 432.00
73.5998 541.00
73.9041 471.00
74.2084 486.00
74.5126 467.00
74.8169 480.00
75.1211 415.00
75.4254 419.00
75.7297 564.00
76.0339 608.00
76.3382 546.00
76.6424 448.00
76.9467 392.00
77.251 414.00
77.5552 365.00
77.8595 367.00
78.1637 421.00
78.468 471.00
78.7723 476.00
79.0765 477.00
79.3808 554.00
79.685 535.00
79.9893 445.00
80.2936 413.00
80.5978 381.00
80.9021 353.00
81.2063 456.00
81.5106 537.00
81.8149 513.00
82.1191 456.00
82.4234 455.00
82.7277 405.00
83.0319 383.00
83.3362 373.00
83.6404 374.00
83.9447 384.00
84.249 356.00
84.5532 356.00
84.8575 351.00
85.1617 379.00
85.466 372.00
85.7703 357.00
86.0745 359.00
86.3788 359.00
86.683 359.00
86.9873 349.00
87.2916 388.00
87.5958 367.00
87.9001 395.00
88.2043 391.00
88.5086 420.00
88.8129 410.00
89.1171 345.00
89.4214 381.00
89.7256 433.00
90.0299 421.00
90.3342 407.00
90.6384 368.00
90.9427 411.00
91.2469 380.00
91.5512 381.00
91.8555 333.00
92.1597 315.00
92.464 376.00
92.7682 369.00
93.0725 366.00
93.3768 344.00
93.681 383.00
93.9853 329.00
94.2895 408.00
94.5938 354.00
94.8981 356.00
95.2023 360.00
95.5066 335.00
95.8108 305.00
96.1151 316.00
96.4194 343.00
96.7236 392.00
97.0279 391.00
97.3321 417.00
97.6364 398.00
97.9407 403.00
98.2449 384.00
98.5492 418.00
98.8534 368.00
99.1577 406.00
99.462 359.00
99.7662 434.00
99.9944 424.00