Folder: alab-pipeline/data/xrd_creation/results (part 80)

File: PG_1221-1.xy
10.0094 2619.00
10.3137 2617.00
10.618 2500.00
10.9222 2477.00
11.2265 2372.00
11.5307 2250.00
11.835 2244.00
12.1393 2158.00
12.4435 2192.00
12.7478 2080.00
13.052 2107.00
13.3563 2038.00
13.6606 2046.00
13.9648 2066.00
14.2691 1885.00
14.5733 1969.00
14.8776 1946.00
15.1819 1955.00
15.4861 2204.00
15.7904 4034.00
16.0946 5568.00
16.3989 2219.00
16.7032 1984.00
17.0074 1899.00
17.3117 1918.00
17.6159 1773.00
17.9202 1818.00
18.2245 1784.00
18.5287 1799.00
18.833 1730.00
19.1372 1783.00
19.4415 1669.00
19.7458 1759.00
20.05 1654.00
20.3543 1582.00
20.6585 1717.00
20.9628 1633.00
21.2671 1574.00
21.5713 1665.00
21.8756 1545.00
22.1798 1567.00
22.4841 1483.00
22.7884 1593.00
23.0926 1515.00
23.3969 1582.00
23.7011 1542.00
24.0054 1548.00
24.3097 1556.00
24.6139 1518.00
24.9182 1505.00
25.2224 1430.00
25.5267 1570.00
25.831 1453.00
26.1352 1537.00
26.4395 1482.00
26.7438 1517.00
27.048 1605.00
27.3523 2381.00
27.6565 6720.00
27.9608 2607.00
28.2651 7822.00
28.5693 2754.00
28.8736 1656.00
29.1778 1522.00
29.4821 1512.00
29.7864 1455.00
30.0906 1437.00
30.3949 1607.00
30.6991 1557.00
31.0034 1487.00
31.3077 1482.00
31.6119 1499.00
31.9162 2559.00
32.2204 1580.00
32.5247 1348.00
32.829 1367.00
33.1332 1371.00
33.4375 1342.00
33.7417 1319.00
34.046 1297.00
34.3503 1297.00
34.6545 1261.00
34.9588 1325.00
35.263 1306.00
35.5673 1341.00
35.8716 3799.00
36.1758 1677.00
36.4801 1534.00
36.7843 1325.00
37.0886 1256.00
37.3929 1282.00
37.6971 1297.00
38.0014 1214.00
38.3056 1209.00
38.6099 1234.00
38.9142 1316.00
39.2184 1454.00
39.5227 2139.00
39.8269 6189.00
40.1312 2101.00
40.4355 1369.00
40.7397 1235.00
41.044 1219.00
41.3482 1234.00
41.6525 1252.00
41.9568 1216.00
42.261 1359.00
42.5653 2067.00
42.8695 1370.00
43.1738 1240.00
43.4781 1468.00
43.7823 1379.00
44.0866 1166.00
44.3909 1195.00
44.6951 1135.00
44.9994 1141.00
45.3036 1261.00
45.6079 1108.00
45.9122 1243.00
46.2164 1182.00
46.5207 1183.00
46.8249 1198.00
47.1292 1298.00
47.4335 2109.00
47.7377 1455.00
48.042 1355.00
48.3462 2025.00
48.6505 3333.00
48.9548 5264.00
49.259 2394.00
49.5633 1477.00
49.8675 1314.00
50.1718 1625.00
50.4761 1477.00
50.7803 1216.00
51.0846 1139.00
51.3888 1172.00
51.6931 1156.00
51.9974 1206.00
52.3016 1101.00
52.6059 1080.00
52.9101 1135.00
53.2144 1049.00
53.5187 1152.00
53.8229 1147.00
54.1272 1259.00
54.4314 1183.00
54.7357 1141.00
55.04 1118.00
55.3442 1427.00
55.6485 2157.00
55.9527 1401.00
56.257 1305.00
56.5613 1701.00
56.8655 1407.00
57.1698 1178.00
57.474 1859.00
57.7783 1326.00
58.0826 1405.00
58.3868 1255.00
58.6911 1137.00
58.9953 1406.00
59.2996 1354.00
59.6039 1212.00
59.9081 1109.00
60.2124 1081.00
60.5166 1099.00
60.8209 1101.00
61.1252 1084.00
61.4294 1150.00
61.7337 1165.00
62.0379 1057.00
62.3422 1149.00
62.6465 1115.00
62.9507 1370.00
63.255 1820.00
63.5592 1175.00
63.8635 1271.00
64.1678 1731.00
64.472 1805.00
64.7763 1299.00
65.0806 1245.00
65.3848 1428.00
65.6891 1283.00
65.9933 1224.00
66.2976 1199.00
66.6019 1157.00
66.9061 1102.00
67.2104 1079.00
67.5146 1149.00
67.8189 1121.00
68.1232 1114.00
68.4274 1128.00
68.7317 1117.00
69.0359 1090.00
69.3402 1149.00
69.6445 1286.00
69.9487 1666.00
70.253 1365.00
70.5572 1265.00
70.8615 1231.00
71.1658 1360.00
71.47 1310.00
71.7743 1120.00
72.0785 1148.00
72.3828 1110.00
72.6871 1108.00
72.9913 1221.00
73.2956 1207.00
73.5998 1099.00
73.9041 1090.00
74.2084 1158.00
74.5126 1170.00
74.8169 1164.00
75.1211 1098.00
75.4254 1145.00
75.7297 1190.00
76.0339 1312.00
76.3382 1379.00
76.6424 1545.00
76.9467 1359.00
77.251 1468.00
77.5552 1803.00
77.8595 1907.00
78.1637 1471.00
78.468 1230.00
78.7723 1326.00
79.0765 1204.00
79.3808 1114.00
79.685 1149.00
79.9893 1118.00
80.2936 1107.00
80.5978 1055.00
80.9021 1085.00
81.2063 1155.00
81.5106 1066.00
81.8149 1143.00
82.1191 1136.00
82.4234 1202.00
82.7277 1280.00
83.0319 1152.00
83.3362 1055.00
83.6404 1079.00
83.9447 1065.00
84.249 1093.00
84.5532 1153.00
84.8575 1119.00
85.1617 1173.00
85.466 1142.00
85.7703 1070.00
86.0745 1135.00
86.3788 1123.00
86.683 1140.00
86.9873 1092.00
87.2916 1125.00
87.5958 1197.00
87.9001 1055.00
88.2043 1140.00
88.5086 1128.00
88.8129 1300.00
89.1171 1384.00
89.4214 1297.00
89.7256 1147.00
90.0299 1185.00
90.3342 1437.00
90.6384 1427.00
90.9427 1212.00
91.2469 1143.00
91.5512 1234.00
91.8555 1172.00
92.1597 1207.00
92.464 1120.00
92.7682 1081.00
93.0725 1128.00
93.3768 1089.00
93.681 1081.00
93.9853 1101.00
94.2895 1160.00
94.5938 1143.00
94.8981 1174.00
95.2023 1253.00
95.5066 1247.00
95.8108 1473.00
96.1151 1377.00
96.4194 1242.00
96.7236 1308.00
97.0279 1305.00
97.3321 1270.00
97.6364 1179.00
97.9407 1120.00
98.2449 1101.00
98.5492 1139.00
98.8534 1070.00
99.1577 1091.00
99.462 1090.00
99.7662 1057.00
99.9944 1131.00

File: PG_1222-1.xy
10.0094 5411.00
10.3137 5558.00
10.618 5450.00
10.9222 5566.00
11.2265 5447.00
11.5307 5560.00
11.835 5528.00
12.1393 5389.00
12.4435 5593.00
12.7478 5473.00
13.052 5585.00
13.3563 5639.00
13.6606 5526.00
13.9648 5624.00
14.2691 5543.00
14.5733 5611.00
14.8776 5731.00
15.1819 5766.00
15.4861 5899.00
15.7904 5747.00
16.0946 5783.00
16.3989 5687.00
16.7032 5858.00
17.0074 5721.00
17.3117 5970.00
17.6159 5797.00
17.9202 5866.00
18.2245 6072.00
18.5287 5922.00
18.833 6286.00
19.1372 5822.00
19.4415 6062.00
19.7458 6013.00
20.05 6002.00
20.3543 6043.00
20.6585 6046.00
20.9628 5977.00
21.2671 6166.00
21.5713 6398.00
21.8756 6273.00
22.1798 6146.00
22.4841 6049.00
22.7884 6121.00
23.0926 6209.00
23.3969 6289.00
23.7011 6247.00
24.0054 6306.00
24.3097 6596.00
24.6139 6282.00
24.9182 6129.00
25.2224 6075.00
25.5267 6183.00
25.831 6288.00
26.1352 6344.00
26.4395 6360.00
26.7438 6284.00
27.048 6277.00
27.3523 6101.00
27.6565 6280.00
27.9608 6159.00
28.2651 6133.00
28.5693 6175.00
28.8736 6088.00
29.1778 6158.00
29.4821 6130.00
29.7864 6268.00
30.0906 6246.00
30.3949 6444.00
30.6991 10452.00
31.0034 6982.00
31.3077 6154.00
31.6119 6283.00
31.9162 6434.00
32.2204 8578.00
32.5247 6415.00
32.829 6257.00
33.1332 6200.00
33.4375 6181.00
33.7417 6259.00
34.046 6375.00
34.3503 6420.00
34.6545 6428.00
34.9588 6345.00
35.263 6190.00
35.5673 6335.00
35.8716 7669.00
36.1758 12294.00
36.4801 7462.00
36.7843 6354.00
37.0886 6316.00
37.3929 6732.00
37.6971 6457.00
38.0014 6201.00
38.3056 6195.00
38.6099 6129.00
38.9142 6258.00
39.2184 6271.00
39.5227 6183.00
39.8269 6327.00
40.1312 6209.00
40.4355 6113.00
40.7397 6139.00
41.044 6242.00
41.3482 6217.00
41.6525 6224.00
41.9568 6097.00
42.261 6066.00
42.5653 6070.00
42.8695 6157.00
43.1738 6200.00
43.4781 6153.00
43.7823 7963.00
44.0866 6288.00
44.3909 6225.00
44.6951 6064.00
44.9994 6046.00
45.3036 6120.00
45.6079 6237.00
45.9122 6087.00
46.2164 6083.00
46.5207 6260.00
46.8249 6155.00
47.1292 6152.00
47.4335 6068.00
47.7377 6214.00
48.042 6158.00
48.3462 6254.00
48.6505 6131.00
48.9548 6249.00
49.259 6311.00
49.5633 6173.00
49.8675 6191.00
50.1718 6278.00
50.4761 6284.00
50.7803 6190.00
51.0846 6099.00
51.3888 6145.00
51.6931 6031.00
51.9974 6244.00
52.3016 6246.00
52.6059 6169.00
52.9101 6081.00
53.2144 6253.00
53.5187 6084.00
53.8229 6024.00
54.1272 7454.00
54.4314 6407.00
54.7357 6158.00
55.04 6097.00
55.3442 6190.00
55.6485 6098.00
55.9527 6221.00
56.257 6242.00
56.5613 6180.00
56.8655 6259.00
57.1698 6367.00
57.474 6417.00
57.7783 8156.00
58.0826 6479.00
58.3868 6336.00
58.6911 6324.00
58.9953 6269.00
59.2996 6302.00
59.6039 6215.00
59.9081 6210.00
60.2124 6273.00
60.5166 6209.00
60.8209 6231.00
61.1252 6235.00
61.4294 6157.00
61.7337 6259.00
62.0379 6151.00
62.3422 6254.00
62.6465 6369.00
62.9507 6384.00
63.255 9317.00
63.5592 7473.00
63.8635 6338.00
64.1678 6344.00
64.472 6224.00
64.7763 6127.00
65.0806 6178.00
65.3848 6185.00
65.6891 6202.00
65.9933 6315.00
66.2976 6208.00
66.6019 6294.00
66.9061 6214.00
67.2104 6161.00
67.5146 6326.00
67.8189 6092.00
68.1232 6068.00
68.4274 6204.00
68.7317 6288.00
69.0359 6256.00
69.3402 6247.00
69.6445 6273.00
69.9487 6360.00
70.253 6189.00
70.5572 6217.00
70.8615 6283.00
71.1658 6323.00
71.47 6213.00
71.7743 6774.00
72.0785 6456.00
72.3828 6292.00
72.6871 6263.00
72.9913 6296.00
73.2956 6228.00
73.5998 6363.00
73.9041 6313.00
74.2084 6348.00
74.5126 6350.00
74.8169 7113.00
75.1211 6344.00
75.4254 6282.00
75.7297 6170.00
76.0339 6314.00
76.3382 6313.00
76.6424 6376.00
76.9467 6421.00
77.251 6024.00
77.5552 6254.00
77.8595 6187.00
78.1637 5994.00
78.468 6317.00
78.7723 6208.00
79.0765 6243.00
79.3808 6152.00
79.685 6351.00
79.9893 6355.00
80.2936 6188.00
80.5978 6070.00
80.9021 6374.00
81.2063 6196.00
81.5106 6296.00
81.8149 6254.00
82.1191 6270.00
82.4234 6167.00
82.7277 6296.00
83.0319 6276.00
83.3362 6187.00
83.6404 6344.00
83.9447 6313.00
84.249 6364.00
84.5532 6192.00
84.8575 6194.00
85.1617 6316.00
85.466 6357.00
85.7703 6285.00
86.0745 6269.00
86.3788 6246.00
86.683 6218.00
86.9873 6125.00
87.2916 6278.00
87.5958 6347.00
87.9001 6375.00
88.2043 6274.00
88.5086 6155.00
88.8129 6216.00
89.1171 6256.00
89.4214 6330.00
89.7256 6355.00
90.0299 6268.00
90.3342 6280.00
90.6384 6998.00
90.9427 6627.00
91.2469 6335.00
91.5512 6327.00
91.8555 6254.00
92.1597 6339.00
92.464 6250.00
92.7682 6329.00
93.0725 6332.00
93.3768 6196.00
93.681 6360.00
93.9853 6152.00
94.2895 6386.00
94.5938 6265.00
94.8981 6295.00
95.2023 6297.00
95.5066 6581.00
95.8108 6426.00
96.1151 6407.00
96.4194 6421.00
96.7236 6178.00
97.0279 6161.00
97.3321 6276.00
97.6364 6378.00
97.9407 6364.00
98.2449 6499.00
98.5492 6353.00
98.8534 6312.00
99.1577 6192.00
99.462 6205.00
99.7662 6260.00
99.9944 6229.00

File: PG_1317-1.xy
10.0094 2337.00
10.3137 2205.00
10.618 2090.00
10.9222 2110.00
11.2265 1993.00
11.5307 1873.00
11.835 1836.00
12.1393 1768.00
12.4435 1794.00
12.7478 1709.00
13.052 1657.00
13.3563 1561.00
13.6606 1575.00
13.9648 1488.00
14.2691 1463.00
14.5733 1510.00
14.8776 1498.00
15.1819 1455.00
15.4861 1412.00
15.7904 1392.00
16.0946 1371.00
16.3989 1329.00
16.7032 1334.00
17.0074 1364.00
17.3117 1232.00
17.6159 1434.00
17.9202 1325.00
18.2245 1259.00
18.5287 1262.00
18.833 1197.00
19.1372 1242.00
19.4415 1251.00
19.7458 1180.00
20.05 1087.00
20.3543 1072.00
20.6585 1181.00
20.9628 1162.00
21.2671 1136.00
21.5713 1144.00
21.8756 1055.00
22.1798 1134.00
22.4841 1058.00
22.7884 1053.00
23.0926 1080.00
23.3969 1100.00
23.7011 1023.00
24.0054 1104.00
24.3097 1691.00
24.6139 1331.00
24.9182 1444.00
25.2224 989.00
25.5267 977.00
25.831 999.00
26.1352 959.00
26.4395 949.00
26.7438 989.00
27.048 962.00
27.3523 1004.00
27.6565 1062.00
27.9608 1120.00
28.2651 1902.00
28.5693 5114.00
28.8736 1384.00
29.1778 1047.00
29.4821 913.00
29.7864 932.00
30.0906 922.00
30.3949 881.00
30.6991 956.00
31.0034 930.00
31.3077 1106.00
31.6119 1925.00
31.9162 4210.00
32.2204 1230.00
32.5247 1024.00
32.829 1007.00
33.1332 1157.00
33.4375 1522.00
33.7417 915.00
34.046 900.00
34.3503 1445.00
34.6545 2033.00
34.9588 1598.00
35.263 997.00
35.5673 1634.00
35.8716 2141.00
36.1758 1189.00
36.4801 977.00
36.7843 886.00
37.0886 880.00
37.3929 907.00
37.6971 841.00
38.0014 833.00
38.3056 898.00
38.6099 922.00
38.9142 1269.00
39.2184 1024.00
39.5227 953.00
39.8269 897.00
40.1312 856.00
40.4355 877.00
40.7397 931.00
41.044 1562.00
41.3482 1345.00
41.6525 1221.00
41.9568 973.00
42.261 855.00
42.5653 849.00
42.8695 806.00
43.1738 865.00
43.4781 910.00
43.7823 865.00
44.0866 875.00
44.3909 797.00
44.6951 850.00
44.9994 930.00
45.3036 1141.00
45.6079 961.00
45.9122 1263.00
46.2164 962.00
46.5207 901.00
46.8249 865.00
47.1292 900.00
47.4335 870.00
47.7377 829.00
48.042 893.00
48.3462 867.00
48.6505 858.00
48.9548 877.00
49.259 999.00
49.5633 1725.00
49.8675 1825.00
50.1718 1071.00
50.4761 1549.00
50.7803 1946.00
51.0846 1768.00
51.3888 1043.00
51.6931 1174.00
51.9974 965.00
52.3016 955.00
52.6059 931.00
52.9101 891.00
53.2144 892.00
53.5187 872.00
53.8229 919.00
54.1272 1272.00
54.4314 1585.00
54.7357 1577.00
55.04 1032.00
55.3442 1069.00
55.6485 1248.00
55.9527 2094.00
56.257 1416.00
56.5613 1445.00
56.8655 986.00
57.1698 962.00
57.474 1137.00
57.7783 1598.00
58.0826 1078.00
58.3868 1363.00
58.6911 1341.00
58.9953 1157.00
59.2996 957.00
59.6039 1031.00
59.9081 1025.00
60.2124 1320.00
60.5166 1707.00
60.8209 1232.00
61.1252 996.00
61.4294 1032.00
61.7337 1192.00
62.0379 1402.00
62.3422 1402.00
62.6465 1818.00
62.9507 1155.00
63.255 1354.00
63.5592 1596.00
63.8635 1124.00
64.1678 1419.00
64.472 1148.00
64.7763 1211.00
65.0806 1154.00
65.3848 1007.00
65.6891 1082.00
65.9933 1314.00
66.2976 1725.00
66.6019 1258.00
66.9061 1037.00
67.2104 1076.00
67.5146 979.00
67.8189 1020.00
68.1232 1014.00
68.4274 1025.00
68.7317 1049.00
69.0359 985.00
69.3402 1069.00
69.6445 1228.00
69.9487 1022.00
70.253 1057.00
70.5572 1051.00
70.8615 1018.00
71.1658 1108.00
71.47 1179.00
71.7743 1549.00
72.0785 1383.00
72.3828 1227.00
72.6871 1230.00
72.9913 1263.00
73.2956 1228.00
73.5998 1133.00
73.9041 1076.00
74.2084 1088.00
74.5126 1057.00
74.8169 1051.00
75.1211 1089.00
75.4254 1242.00
75.7297 1482.00
76.0339 1316.00
76.3382 1127.00
76.6424 1105.00
76.9467 1157.00
77.251 1290.00
77.5552 1148.00
77.8595 1249.00
78.1637 1268.00
78.468 1197.00
78.7723 1246.00
79.0765 1189.00
79.3808 1225.00
79.685 1315.00
79.9893 1155.00
80.2936 1137.00
80.5978 1134.00
80.9021 1170.00
81.2063 1177.00
81.5106 1134.00
81.8149 1192.00
82.1191 1335.00
82.4234 1265.00
82.7277 1188.00
83.0319 1297.00
83.3362 1386.00
83.6404 1298.00
83.9447 1377.00
84.249 1276.00
84.5532 1341.00
84.8575 1493.00
85.1617 1332.00
85.466 1284.00
85.7703 1314.00
86.0745 1171.00
86.3788 1201.00
86.683 1277.00
86.9873 1294.00
87.2916 1229.00
87.5958 1168.00
87.9001 1158.00
88.2043 1440.00
88.5086 1355.00
88.8129 1430.00
89.1171 1442.00
89.4214 1391.00
89.7256 1327.00
90.0299 1312.00
90.3342 1336.00
90.6384 1453.00
90.9427 1409.00
91.2469 1231.00
91.5512 1308.00
91.8555 1284.00
92.1597 1295.00
92.464 1316.00
92.7682 1210.00
93.0725 1217.00
93.3768 1197.00
93.681 1338.00
93.9853 1327.00
94.2895 1301.00
94.5938 1370.00
94.8981 1321.00
95.2023 1281.00
95.5066 1360.00
95.8108 1435.00
96.1151 1451.00
96.4194 1410.00
96.7236 1427.00
97.0279 1530.00
97.3321 1697.00
97.6364 1591.00
97.9407 1553.00
98.2449 1384.00
98.5492 1308.00
98.8534 1498.00
99.1577 1467.00
99.462 1497.00
99.7662 1495.00
99.9944 1538.00

File: PG_1318-1.xy
10.0094 2234.00
10.3137 2221.00
10.618 2225.00
10.9222 2066.00
11.2265 2017.00
11.5307 1926.00
11.835 1982.00
12.1393 1859.00
12.4435 1746.00
12.7478 1754.00
13.052 1738.00
13.3563 1614.00
13.6606 1606.00
13.9648 1505.00
14.2691 1628.00
14.5733 1539.00
14.8776 1524.00
15.1819 1493.00
15.4861 1489.00
15.7904 1426.00
16.0946 1413.00
16.3989 1463.00
16.7032 1451.00
17.0074 1392.00
17.3117 1320.00
17.6159 1337.00
17.9202 1368.00
18.2245 1362.00
18.5287 1307.00
18.833 1382.00
19.1372 1275.00
19.4415 1257.00
19.7458 1269.00
20.05 1225.00
20.3543 1184.00
20.6585 1195.00
20.9628 1249.00
21.2671 1231.00
21.5713 1385.00
21.8756 1304.00
22.1798 1178.00
22.4841 1171.00
22.7884 1051.00
23.0926 1142.00
23.3969 1132.00
23.7011 1028.00
24.0054 1197.00
24.3097 1238.00
24.6139 1071.00
24.9182 1030.00
25.2224 982.00
25.5267 1013.00
25.831 1099.00
26.1352 985.00
26.4395 1004.00
26.7438 998.00
27.048 996.00
27.3523 1014.00
27.6565 976.00
27.9608 1003.00
28.2651 912.00
28.5693 985.00
28.8736 1003.00
29.1778 929.00
29.4821 993.00
29.7864 970.00
30.0906 933.00
30.3949 1312.00
30.6991 3487.00
31.0034 2238.00
31.3077 972.00
31.6119 892.00
31.9162 890.00
32.2204 938.00
32.5247 951.00
32.829 936.00
33.1332 1448.00
33.4375 1351.00
33.7417 944.00
34.046 853.00
34.3503 924.00
34.6545 888.00
34.9588 866.00
35.263 1010.00
35.5673 2178.00
35.8716 1652.00
36.1758 890.00
36.4801 875.00
36.7843 895.00
37.0886 826.00
37.3929 882.00
37.6971 993.00
38.0014 1048.00
38.3056 838.00
38.6099 863.00
38.9142 857.00
39.2184 858.00
39.5227 829.00
39.8269 836.00
40.1312 876.00
40.4355 849.00
40.7397 938.00
41.044 953.00
41.3482 853.00
41.6525 832.00
41.9568 961.00
42.261 920.00
42.5653 883.00
42.8695 795.00
43.1738 864.00
43.4781 876.00
43.7823 878.00
44.0866 841.00
44.3909 800.00
44.6951 806.00
44.9994 836.00
45.3036 912.00
45.6079 946.00
45.9122 1187.00
46.2164 883.00
46.5207 854.00
46.8249 860.00
47.1292 844.00
47.4335 860.00
47.7377 829.00
48.042 864.00
48.3462 844.00
48.6505 854.00
48.9548 787.00
49.259 1084.00
49.5633 1293.00
49.8675 863.00
50.1718 869.00
50.4761 901.00
50.7803 968.00
51.0846 1910.00
51.3888 2069.00
51.6931 925.00
51.9974 892.00
52.3016 854.00
52.6059 931.00
52.9101 1038.00
53.2144 921.00
53.5187 891.00
53.8229 1004.00
54.1272 1274.00
54.4314 963.00
54.7357 840.00
55.04 834.00
55.3442 939.00
55.6485 867.00
55.9527 984.00
56.257 1092.00
56.5613 915.00
56.8655 876.00
57.1698 924.00
57.474 961.00
57.7783 1020.00
58.0826 882.00
58.3868 914.00
58.6911 953.00
58.9953 923.00
59.2996 1132.00
59.6039 1017.00
59.9081 930.00
60.2124 965.00
60.5166 1109.00
60.8209 2095.00
61.1252 1431.00
61.4294 1000.00
61.7337 966.00
62.0379 1097.00
62.3422 1499.00
62.6465 1130.00
62.9507 977.00
63.255 882.00
63.5592 1065.00
63.8635 1514.00
64.1678 1114.00
64.472 934.00
64.7763 974.00
65.0806 964.00
65.3848 1056.00
65.6891 940.00
65.9933 918.00
66.2976 946.00
66.6019 993.00
66.9061 1068.00
67.2104 908.00
67.5146 945.00
67.8189 894.00
68.1232 1078.00
68.4274 1037.00
68.7317 959.00
69.0359 895.00
69.3402 967.00
69.6445 1043.00
69.9487 989.00
70.253 916.00
70.5572 970.00
70.8615 920.00
71.1658 999.00
71.47 937.00
71.7743 1062.00
72.0785 1086.00
72.3828 945.00
72.6871 979.00
72.9913 935.00
73.2956 1006.00
73.5998 1027.00
73.9041 1081.00
74.2084 1020.00
74.5126 1051.00
74.8169 964.00
75.1211 1250.00
75.4254 1133.00
75.7297 1016.00
76.0339 1004.00
76.3382 1020.00
76.6424 1194.00
76.9467 1033.00
77.251 1038.00
77.5552 978.00
77.8595 1121.00
78.1637 1133.00
78.468 1040.00
78.7723 1040.00
79.0765 1046.00
79.3808 1098.00
79.685 1052.00
79.9893 1006.00
80.2936 1053.00
80.5978 1181.00
80.9021 1055.00
81.2063 1063.00
81.5106 1074.00
81.8149 1075.00
82.1191 1249.00
82.4234 1098.00
82.7277 1081.00
83.0319 1180.00
83.3362 1427.00
83.6404 1264.00
83.9447 1036.00
84.249 1053.00
84.5532 1152.00
84.8575 1159.00
85.1617 1072.00
85.466 1059.00
85.7703 1167.00
86.0745 1348.00
86.3788 1138.00
86.683 1132.00
86.9873 1116.00
87.2916 1105.00
87.5958 1128.00
87.9001 1132.00
88.2043 1148.00
88.5086 1230.00
88.8129 1092.00
89.1171 1137.00
89.4214 1098.00
89.7256 1146.00
90.0299 1192.00
90.3342 1109.00
90.6384 1048.00
90.9427 1093.00
91.2469 1066.00
91.5512 1169.00
91.8555 1074.00
92.1597 1116.00
92.464 1196.00
92.7682 1197.00
93.0725 1179.00
93.3768 1202.00
93.681 1149.00
93.9853 1136.00
94.2895 1180.00
94.5938 1134.00
94.8981 1125.00
95.2023 1360.00
95.5066 1240.00
95.8108 1173.00
96.1151 1174.00
96.4194 1258.00
96.7236 1361.00
97.0279 1199.00
97.3321 1191.00
97.6364 1168.00
97.9407 1271.00
98.2449 1273.00
98.5492 1184.00
98.8534 1188.00
99.1577 1173.00
99.462 1293.00
99.7662 1158.00
99.9944 1145.00

File: PG_1319-1.xy
10.0094 2166.00
10.3137 2153.00
10.618 1993.00
10.9222 1944.00
11.2265 1815.00
11.5307 1819.00
11.835 1682.00
12.1393 1556.00
12.4435 1574.00
12.7478 1518.00
13.052 1418.00
13.3563 1282.00
13.6606 1266.00
13.9648 1318.00
14.2691 1213.00
14.5733 1210.00
14.8776 1177.00
15.1819 1104.00
15.4861 1077.00
15.7904 1084.00
16.0946 1125.00
16.3989 1051.00
16.7032 1091.00
17.0074 1063.00
17.3117 969.00
17.6159 931.00
17.9202 976.00
18.2245 916.00
18.5287 917.00
18.833 883.00
19.1372 907.00
19.4415 817.00
19.7458 809.00
20.05 811.00
20.3543 775.00
20.6585 768.00
20.9628 758.00
21.2671 693.00
21.5713 752.00
21.8756 655.00
22.1798 664.00
22.4841 637.00
22.7884 644.00
23.0926 688.00
23.3969 650.00
23.7011 617.00
24.0054 622.00
24.3097 568.00
24.6139 599.00
24.9182 590.00
25.2224 617.00
25.5267 569.00
25.831 577.00
26.1352 522.00
26.4395 557.00
26.7438 478.00
27.048 521.00
27.3523 540.00
27.6565 512.00
27.9608 504.00
28.2651 529.00
28.5693 480.00
28.8736 500.00
29.1778 452.00
29.4821 477.00
29.7864 409.00
30.0906 424.00
30.3949 409.00
30.6991 458.00
31.0034 396.00
31.3077 421.00
31.6119 416.00
31.9162 450.00
32.2204 413.00
32.5247 377.00
32.829 383.00
33.1332 360.00
33.4375 370.00
33.7417 378.00
34.046 356.00
34.3503 351.00
34.6545 394.00
34.9588 387.00
35.263 353.00
35.5673 349.00
35.8716 351.00
36.1758 348.00
36.4801 348.00
36.7843 355.00
37.0886 330.00
37.3929 324.00
37.6971 267.00
38.0014 292.00
38.3056 291.00
38.6099 290.00
38.9142 301.00
39.2184 282.00
39.5227 321.00
39.8269 267.00
40.1312 299.00
40.4355 264.00
40.7397 271.00
41.044 244.00
41.3482 264.00
41.6525 270.00
41.9568 264.00
42.261 287.00
42.5653 240.00
42.8695 267.00
43.1738 258.00
43.4781 223.00
43.7823 207.00
44.0866 223.00
44.3909 218.00
44.6951 246.00
44.9994 212.00
45.3036 243.00
45.6079 272.00
45.9122 226.00
46.2164 249.00
46.5207 239.00
46.8249 211.00
47.1292 218.00
47.4335 249.00
47.7377 237.00
48.042 235.00
48.3462 217.00
48.6505 221.00
48.9548 210.00
49.259 203.00
49.5633 200.00
49.8675 178.00
50.1718 203.00
50.4761 206.00
50.7803 191.00
51.0846 207.00
51.3888 210.00
51.6931 223.00
51.9974 212.00
52.3016 219.00
52.6059 178.00
52.9101 220.00
53.2144 197.00
53.5187 198.00
53.8229 197.00
54.1272 225.00
54.4314 185.00
54.7357 176.00
55.04 217.00
55.3442 168.00
55.6485 157.00
55.9527 182.00
56.257 152.00
56.5613 173.00
56.8655 170.00
57.1698 158.00
57.474 178.00
57.7783 173.00
58.0826 155.00
58.3868 161.00
58.6911 156.00
58.9953 163.00
59.2996 149.00
59.6039 162.00
59.9081 187.00
60.2124 158.00
60.5166 165.00
60.8209 157.00
61.1252 149.00
61.4294 179.00
61.7337 176.00
62.0379 172.00
62.3422 149.00
62.6465 154.00
62.9507 179.00
63.255 165.00
63.5592 179.00
63.8635 160.00
64.1678 163.00
64.472 141.00
64.7763 151.00
65.0806 146.00
65.3848 141.00
65.6891 168.00
65.9933 145.00
66.2976 142.00
66.6019 146.00
66.9061 165.00
67.2104 161.00
67.5146 166.00
67.8189 164.00
68.1232 129.00
68.4274 144.00
68.7317 167.00
69.0359 163.00
69.3402 126.00
69.6445 147.00
69.9487 151.00
70.253 162.00
70.5572 176.00
70.8615 165.00
71.1658 158.00
71.47 128.00
71.7743 143.00
72.0785 172.00
72.3828 138.00
72.6871 162.00
72.9913 154.00
73.2956 175.00
73.5998 152.00
73.9041 186.00
74.2084 183.00
74.5126 186.00
74.8169 161.00
75.1211 148.00
75.4254 191.00
75.7297 152.00
76.0339 177.00
76.3382 169.00
76.6424 152.00
76.9467 167.00
77.251 177.00
77.5552 159.00
77.8595 171.00
78.1637 152.00
78.468 167.00
78.7723 168.00
79.0765 182.00
79.3808 184.00
79.685 186.00
79.9893 182.00
80.2936 152.00
80.5978 202.00
80.9021 206.00
81.2063 189.00
81.5106 184.00
81.8149 179.00
82.1191 188.00
82.4234 205.00
82.7277 211.00
83.0319 183.00
83.3362 221.00
83.6404 181.00
83.9447 189.00
84.249 164.00
84.5532 174.00
84.8575 178.00
85.1617 166.00
85.466 166.00
85.7703 154.00
86.0745 153.00
86.3788 181.00
86.683 155.00
86.9873 151.00
87.2916 171.00
87.5958 177.00
87.9001 156.00
88.2043 140.00
88.5086 150.00
88.8129 153.00
89.1171 140.00
89.4214 160.00
89.7256 129.00
90.0299 135.00
90.3342 165.00
90.6384 144.00
90.9427 137.00
91.2469 161.00
91.5512 147.00
91.8555 154.00
92.1597 135.00
92.464 147.00
92.7682 147.00
93.0725 148.00
93.3768 147.00
93.681 132.00
93.9853 159.00
94.2895 161.00
94.5938 134.00
94.8981 150.00
95.2023 138.00
95.5066 168.00
95.8108 118.00
96.1151 149.00
96.4194 144.00
96.7236 142.00
97.0279 150.00
97.3321 164.00
97.6364 164.00
97.9407 158.00
98.2449 156.00
98.5492 152.00
98.8534 156.00
99.1577 133.00
99.462 131.00
99.7662 143.00
99.9944 130.00