Folder: alab-pipeline/data/xrd_creation/results (part 106)

File: PG_2543-1.xy
9.903433 3113.00
10.2077 3014.00
10.512 2896.00
10.8162 2860.00
11.1205 2772.00
11.4247 2707.00
11.729 2750.00
12.0333 2511.00
12.3375 2457.00
12.6418 2404.00
12.946 2454.00
13.2503 2291.00
13.5546 2356.00
13.8588 2401.00
14.1631 2229.00
14.4673 2305.00
14.7716 2162.00
15.0759 2267.00
15.3801 2279.00
15.6844 2407.00
15.9886 2236.00
16.2929 2353.00
16.5972 2419.00
16.9014 2332.00
17.2057 2368.00
17.5099 2493.00
17.8142 2626.00
18.1185 2593.00
18.4227 2663.00
18.727 2673.00
19.0312 2823.00
19.3355 2805.00
19.6398 2920.00
19.944 3039.00
20.2483 3116.00
20.5525 3098.00
20.8568 3250.00
21.1611 3249.00
21.4653 3170.00
21.7696 3255.00
22.0738 3130.00
22.3781 3201.00
22.6824 3090.00
22.9866 3157.00
23.2909 3020.00
23.5951 2827.00
23.8994 2842.00
24.2037 2776.00
24.5079 2534.00
24.8122 2444.00
25.1164 2354.00
25.4207 2428.00
25.725 2328.00
26.0292 2192.00
26.3335 2024.00
26.6378 1955.00
26.942 1883.00
27.2463 1801.00
27.5505 1800.00
27.8548 1777.00
28.1591 1853.00
28.4633 1669.00
28.7676 1630.00
29.0718 1550.00
29.3761 1542.00
29.6804 1508.00
29.9846 1562.00
30.2889 1564.00
30.5931 1457.00
30.8974 1463.00
31.2017 1439.00
31.5059 1441.00
31.8102 1237.00
32.1144 1296.00
32.4187 1349.00
32.723 1343.00
33.0272 1258.00
33.3315 1122.00
33.6357 1216.00
33.94 1182.00
34.2443 1139.00
34.5485 1130.00
34.8528 1109.00
35.157 1095.00
35.4613 1177.00
35.7656 1205.00
36.0698 1336.00
36.3741 1102.00
36.6783 1300.00
36.9826 1529.00
37.2869 2642.00
37.5911 1020.00
37.8954 1028.00
38.1996 954.00
38.5039 972.00
38.8082 1000.00
39.1124 878.00
39.4167 942.00
39.7209 953.00
40.0252 1002.00
40.3295 992.00
40.6337 837.00
40.938 821.00
41.2422 800.00
41.5465 875.00
41.8508 920.00
42.155 982.00
42.4593 1064.00
42.7635 1922.00
43.0678 15473.00
43.3721 5892.00
43.6763 1250.00
43.9806 902.00
44.2849 873.00
44.5891 873.00
44.8934 831.00
45.1976 849.00
45.5019 802.00
45.8062 781.00
46.1104 789.00
46.4147 750.00
46.7189 798.00
47.0232 775.00
47.3275 743.00
47.6317 730.00
47.936 779.00
48.2402 737.00
48.5445 703.00
48.8488 751.00
49.153 689.00
49.4573 712.00
49.7615 652.00
50.0658 702.00
50.3701 690.00
50.6743 681.00
50.9786 733.00
51.2828 729.00
51.5871 613.00
51.8914 632.00
52.1956 706.00
52.4999 780.00
52.8041 726.00
53.1084 674.00
53.4127 665.00
53.7169 618.00
54.0212 654.00
54.3254 638.00
54.6297 598.00
54.934 632.00
55.2382 626.00
55.5425 614.00
55.8467 629.00
56.151 612.00
56.4553 662.00
56.7595 637.00
57.0638 684.00
57.368 657.00
57.6723 672.00
57.9766 646.00
58.2808 603.00
58.5851 610.00
58.8893 621.00
59.1936 645.00
59.4979 636.00
59.8021 624.00
60.1064 661.00
60.4106 762.00
60.7149 641.00
61.0192 696.00
61.3234 613.00
61.6277 686.00
61.932 880.00
62.2362 2345.00
62.5405 12983.00
62.8447 1950.00
63.149 875.00
63.4533 710.00
63.7575 650.00
64.0618 642.00
64.366 649.00
64.6703 619.00
64.9745 638.00
65.2788 629.00
65.5831 600.00
65.8873 601.00
66.1916 633.00
66.4959 580.00
66.8001 596.00
67.1044 565.00
67.4086 630.00
67.7129 612.00
68.0172 628.00
68.3214 613.00
68.6257 632.00
68.9299 601.00
69.2342 558.00
69.5385 577.00
69.8427 638.00
70.147 597.00
70.4512 539.00
70.7555 560.00
71.0598 515.00
71.364 551.00
71.6683 541.00
71.9725 564.00
72.2768 584.00
72.5811 555.00
72.8853 526.00
73.1896 575.00
73.4938 571.00
73.7981 561.00
74.1024 579.00
74.4066 582.00
74.7109 1034.00
75.0151 1295.00
75.3194 601.00
75.6237 585.00
75.9279 578.00
76.2322 568.00
76.5364 596.00
76.8407 538.00
77.145 562.00
77.4492 514.00
77.7535 521.00
78.0577 578.00
78.362 672.00
78.6663 1695.00
78.9705 1968.00
79.2748 644.00
79.579 550.00
79.8833 528.00
80.1876 525.00
80.4918 553.00
80.7961 499.00
81.1003 507.00
81.4046 492.00
81.7089 441.00
82.0131 458.00
82.3174 449.00
82.6217 462.00
82.9259 481.00
83.2302 469.00
83.5344 453.00
83.8387 427.00
84.143 458.00
84.4472 436.00
84.7515 405.00
85.0557 388.00
85.36 410.00
85.6643 392.00
85.9685 417.00
86.2728 420.00
86.577 384.00
86.8813 386.00
87.1856 396.00
87.4898 371.00
87.7941 345.00
88.0983 359.00
88.4026 350.00
88.7069 362.00
89.0111 343.00
89.3154 367.00
89.6196 393.00
89.9239 330.00
90.2282 378.00
90.5324 365.00
90.8367 360.00
91.1409 348.00
91.4452 361.00
91.7495 323.00
92.0537 348.00
92.358 345.00
92.6622 327.00
92.9665 332.00
93.2708 374.00
93.575 395.00
93.8793 486.00
94.1835 1319.00
94.4878 924.00
94.7921 393.00
95.0963 373.00
95.4006 389.00
95.7048 371.00
96.0091 351.00
96.3134 375.00
96.6176 352.00
96.9219 339.00
97.2261 325.00
97.5304 373.00
97.8347 306.00
98.1389 320.00
98.4432 384.00
98.7474 369.00
99.0517 376.00
99.356 345.00
99.6602 357.00
99.9645 320.00
100.095 334.00

File: PG_2544-1.xy
9.903433 2642.00
10.2077 2600.00
10.512 2592.00
10.8162 2446.00
11.1205 2240.00
11.4247 2221.00
11.729 2214.00
12.0333 2099.00
12.3375 2037.00
12.6418 2052.00
12.946 1837.00
13.2503 1813.00
13.5546 1826.00
13.8588 1765.00
14.1631 1727.00
14.4673 1757.00
14.7716 1730.00
15.0759 1732.00
15.3801 1714.00
15.6844 1625.00
15.9886 1593.00
16.2929 1608.00
16.5972 1552.00
16.9014 1485.00
17.2057 1559.00
17.5099 1566.00
17.8142 1553.00
18.1185 1678.00
18.4227 1428.00
18.727 1450.00
19.0312 1377.00
19.3355 1358.00
19.6398 1318.00
19.944 1316.00
20.2483 1251.00
20.5525 1220.00
20.8568 1228.00
21.1611 1203.00
21.4653 1215.00
21.7696 1179.00
22.0738 1160.00
22.3781 1122.00
22.6824 1117.00
22.9866 1120.00
23.2909 1080.00
23.5951 1065.00
23.8994 1027.00
24.2037 1030.00
24.5079 1060.00
24.8122 1014.00
25.1164 1006.00
25.4207 978.00
25.725 956.00
26.0292 1085.00
26.3335 1254.00
26.6378 2586.00
26.942 11643.00
27.2463 1382.00
27.5505 1001.00
27.8548 938.00
28.1591 905.00
28.4633 903.00
28.7676 824.00
29.0718 803.00
29.3761 790.00
29.6804 811.00
29.9846 769.00
30.2889 764.00
30.5931 744.00
30.8974 758.00
31.2017 727.00
31.5059 724.00
31.8102 734.00
32.1144 701.00
32.4187 711.00
32.723 702.00
33.0272 754.00
33.3315 800.00
33.6357 874.00
33.94 2116.00
34.2443 9202.00
34.5485 1218.00
34.8528 933.00
35.157 750.00
35.4613 684.00
35.7656 660.00
36.0698 617.00
36.3741 686.00
36.6783 625.00
36.9826 618.00
37.2869 708.00
37.5911 598.00
37.8954 721.00
38.1996 3160.00
38.5039 827.00
38.8082 591.00
39.1124 696.00
39.4167 818.00
39.7209 570.00
40.0252 542.00
40.3295 492.00
40.6337 515.00
40.938 546.00
41.2422 529.00
41.5465 529.00
41.8508 579.00
42.155 649.00
42.4593 523.00
42.7635 575.00
43.0678 1011.00
43.3721 891.00
43.6763 491.00
43.9806 488.00
44.2849 487.00
44.5891 453.00
44.8934 432.00
45.1976 453.00
45.5019 435.00
45.8062 429.00
46.1104 432.00
46.4147 465.00
46.7189 444.00
47.0232 428.00
47.3275 395.00
47.6317 411.00
47.936 423.00
48.2402 423.00
48.5445 422.00
48.8488 428.00
49.153 415.00
49.4573 408.00
49.7615 415.00
50.0658 456.00
50.3701 408.00
50.6743 479.00
50.9786 454.00
51.2828 486.00
51.5871 727.00
51.8914 2731.00
52.1956 6097.00
52.4999 823.00
52.8041 521.00
53.1084 454.00
53.4127 417.00
53.7169 409.00
54.0212 400.00
54.3254 405.00
54.6297 523.00
54.934 1578.00
55.2382 1130.00
55.5425 517.00
55.8467 448.00
56.151 422.00
56.4553 403.00
56.7595 380.00
57.0638 368.00
57.368 414.00
57.6723 409.00
57.9766 825.00
58.2808 930.00
58.5851 406.00
58.8893 396.00
59.1936 354.00
59.4979 347.00
59.8021 384.00
60.1064 357.00
60.4106 340.00
60.7149 428.00
61.0192 470.00
61.3234 378.00
61.6277 392.00
61.932 677.00
62.2362 1796.00
62.5405 1304.00
62.8447 479.00
63.149 378.00
63.4533 357.00
63.7575 405.00
64.0618 389.00
64.366 424.00
64.6703 564.00
64.9745 2270.00
65.2788 823.00
65.5831 492.00
65.8873 546.00
66.1916 2760.00
66.4959 976.00
66.8001 399.00
67.1044 383.00
67.4086 330.00
67.7129 308.00
68.0172 327.00
68.3214 316.00
68.6257 347.00
68.9299 352.00
69.2342 340.00
69.5385 348.00
69.8427 330.00
70.147 352.00
70.4512 340.00
70.7555 364.00
71.0598 323.00
71.364 636.00
71.6683 925.00
71.9725 430.00
72.2768 349.00
72.5811 349.00
72.8853 354.00
73.1896 338.00
73.4938 314.00
73.7981 292.00
74.1024 297.00
74.4066 283.00
74.7109 351.00
75.0151 363.00
75.3194 290.00
75.6237 301.00
75.9279 301.00
76.2322 337.00
76.5364 308.00
76.8407 304.00
77.145 306.00
77.4492 306.00
77.7535 301.00
78.0577 327.00
78.362 337.00
78.6663 510.00
78.9705 1917.00
79.2748 746.00
79.579 365.00
79.8833 327.00
80.1876 304.00
80.4918 335.00
80.7961 319.00
81.1003 379.00
81.4046 752.00
81.7089 429.00
82.0131 314.00
82.3174 293.00
82.6217 300.00
82.9259 282.00
83.2302 279.00
83.5344 353.00
83.8387 929.00
84.143 903.00
84.4472 362.00
84.7515 331.00
85.0557 318.00
85.36 279.00
85.6643 249.00
85.9685 311.00
86.2728 297.00
86.577 330.00
86.8813 318.00
87.1856 395.00
87.4898 762.00
87.7941 469.00
88.0983 326.00
88.4026 294.00
88.7069 308.00
89.0111 321.00
89.3154 340.00
89.6196 410.00
89.9239 1271.00
90.2282 1069.00
90.5324 501.00
90.8367 520.00
91.1409 1594.00
91.4452 953.00
91.7495 411.00
92.0537 272.00
92.358 323.00
92.6622 291.00
92.9665 374.00
93.2708 431.00
93.575 704.00
93.8793 505.00
94.1835 401.00
94.4878 390.00
94.7921 279.00
95.0963 310.00
95.4006 286.00
95.7048 291.00
96.0091 388.00
96.3134 647.00
96.6176 484.00
96.9219 295.00
97.2261 263.00
97.5304 303.00
97.8347 303.00
98.1389 273.00
98.4432 268.00
98.7474 306.00
99.0517 286.00
99.356 312.00
99.6602 268.00
99.9645 282.00
100.095 296.00

File: PG_2545-1.xy
9.903433 2827.00
10.2077 2836.00
10.512 2769.00
10.8162 2625.00
11.1205 2461.00
11.4247 2407.00
11.729 2360.00
12.0333 2287.00
12.3375 2283.00
12.6418 2207.00
12.946 2191.00
13.2503 2180.00
13.5546 2147.00
13.8588 2139.00
14.1631 2128.00
14.4673 2065.00
14.7716 1996.00
15.0759 2056.00
15.3801 1903.00
15.6844 1965.00
15.9886 1926.00
16.2929 1911.00
16.5972 1936.00
16.9014 1865.00
17.2057 1880.00
17.5099 1830.00
17.8142 1745.00
18.1185 1766.00
18.4227 1883.00
18.727 1777.00
19.0312 1709.00
19.3355 1779.00
19.6398 1766.00
19.944 1760.00
20.2483 1895.00
20.5525 1946.00
20.8568 1783.00
21.1611 1774.00
21.4653 1660.00
21.7696 1726.00
22.0738 1669.00
22.3781 1692.00
22.6824 1657.00
22.9866 1670.00
23.2909 1608.00
23.5951 1572.00
23.8994 1567.00
24.2037 1606.00
24.5079 1675.00
24.8122 1940.00
25.1164 8485.00
25.4207 8416.00
25.725 4648.00
26.0292 5768.00
26.3335 1773.00
26.6378 1529.00
26.942 1557.00
27.2463 1529.00
27.5505 1475.00
27.8548 1462.00
28.1591 1500.00
28.4633 1467.00
28.7676 1451.00
29.0718 1496.00
29.3761 1485.00
29.6804 2742.00
29.9846 1586.00
30.2889 1366.00
30.5931 1434.00
30.8974 1385.00
31.2017 1572.00
31.5059 2638.00
31.8102 1791.00
32.1144 1356.00
32.4187 1313.00
32.723 1318.00
33.0272 1268.00
33.3315 1314.00
33.6357 1317.00
33.94 1273.00
34.2443 1290.00
34.5485 1962.00
34.8528 1548.00
35.157 3148.00
35.4613 2015.00
35.7656 1383.00
36.0698 2224.00
36.3741 4576.00
36.6783 6012.00
36.9826 2075.00
37.2869 1348.00
37.5911 1295.00
37.8954 1162.00
38.1996 1243.00
38.5039 1222.00
38.8082 1202.00
39.1124 1195.00
39.4167 1236.00
39.7209 1420.00
40.0252 1364.00
40.3295 1214.00
40.6337 1136.00
40.938 1210.00
41.2422 1799.00
41.5465 2178.00
41.8508 1198.00
42.155 1153.00
42.4593 1114.00
42.7635 1827.00
43.0678 4704.00
43.3721 1453.00
43.6763 1307.00
43.9806 2855.00
44.2849 5859.00
44.5891 1335.00
44.8934 1194.00
45.1976 1232.00
45.5019 1612.00
45.8062 3483.00
46.1104 1277.00
46.4147 1469.00
46.7189 3224.00
47.0232 1271.00
47.3275 1209.00
47.6317 2795.00
47.936 3674.00
48.2402 1197.00
48.5445 1142.00
48.8488 1093.00
49.153 1196.00
49.4573 1225.00
49.7615 1511.00
50.0658 4166.00
50.3701 2605.00
50.6743 1630.00
50.9786 1134.00
51.2828 1141.00
51.5871 1230.00
51.8914 1341.00
52.1956 1030.00
52.4999 1091.00
52.8041 1067.00
53.1084 1363.00
53.4127 1063.00
53.7169 1087.00
54.0212 1023.00
54.3254 1047.00
54.6297 988.00
54.934 1090.00
55.2382 1200.00
55.5425 1020.00
55.8467 971.00
56.151 1115.00
56.4553 1017.00
56.7595 1282.00
57.0638 1126.00
57.368 2192.00
57.6723 1321.00
57.9766 1007.00
58.2808 965.00
58.5851 1084.00
58.8893 1967.00
59.1936 1410.00
59.4979 1082.00
59.8021 1723.00
60.1064 1470.00
60.4106 1009.00
60.7149 1090.00
61.0192 1001.00
61.3234 967.00
61.6277 1185.00
61.932 1002.00
62.2362 1891.00
62.5405 2232.00
62.8447 1466.00
63.149 1099.00
63.4533 976.00
63.7575 1322.00
64.0618 1685.00
64.366 1032.00
64.6703 951.00
64.9745 1018.00
65.2788 1327.00
65.5831 1529.00
65.8873 1230.00
66.1916 1281.00
66.4959 1105.00
66.8001 1188.00
67.1044 998.00
67.4086 887.00
67.7129 924.00
68.0172 906.00
68.3214 876.00
68.6257 943.00
68.9299 880.00
69.2342 901.00
69.5385 886.00
69.8427 907.00
70.147 921.00
70.4512 910.00
70.7555 907.00
71.0598 909.00
71.364 935.00
71.6683 979.00
71.9725 1619.00
72.2768 1473.00
72.5811 977.00
72.8853 1379.00
73.1896 1110.00
73.4938 1140.00
73.7981 2515.00
74.1024 1545.00
74.4066 1368.00
74.7109 1575.00
75.0151 1187.00
75.3194 1631.00
75.6237 1128.00
75.9279 1162.00
76.2322 1475.00
76.5364 930.00
76.8407 1082.00
77.145 1001.00
77.4492 995.00
77.7535 1533.00
78.0577 1119.00
78.362 937.00
78.6663 1270.00
78.9705 1149.00
79.2748 896.00
79.579 937.00
79.8833 913.00
80.1876 1306.00
80.4918 1082.00
80.7961 893.00
81.1003 902.00
81.4046 845.00
81.7089 1039.00
82.0131 1410.00
82.3174 1210.00
82.6217 925.00
82.9259 1052.00
83.2302 1236.00
83.5344 1009.00
83.8387 912.00
84.143 1051.00
84.4472 1128.00
84.7515 954.00
85.0557 897.00
85.36 1124.00
85.6643 975.00
85.9685 952.00
86.2728 892.00
86.577 874.00
86.8813 853.00
87.1856 963.00
87.4898 932.00
87.7941 1022.00
88.0983 839.00
88.4026 999.00
88.7069 927.00
89.0111 846.00
89.3154 931.00
89.6196 939.00
89.9239 1020.00
90.2282 872.00
90.5324 872.00
90.8367 856.00
91.1409 857.00
91.4452 902.00
91.7495 1219.00
92.0537 1062.00
92.358 870.00
92.6622 837.00
92.9665 809.00
93.2708 814.00
93.575 873.00
93.8793 1139.00
94.1835 1195.00
94.4878 965.00
94.7921 1386.00
95.0963 1472.00
95.4006 1064.00
95.7048 876.00
96.0091 936.00
96.3134 917.00
96.6176 926.00
96.9219 957.00
97.2261 1138.00
97.5304 1060.00
97.8347 907.00
98.1389 850.00
98.4432 924.00
98.7474 834.00
99.0517 878.00
99.356 1122.00
99.6602 1117.00
99.9645 884.00
100.095 987.00

File: PG_2546-1.xy
9.903433 2451.00
10.2077 2448.00
10.512 2336.00
10.8162 2160.00
11.1205 2167.00
11.4247 2057.00
11.729 2002.00
12.0333 1834.00
12.3375 1868.00
12.6418 1757.00
12.946 1632.00
13.2503 1638.00
13.5546 1596.00
13.8588 1549.00
14.1631 1501.00
14.4673 1479.00
14.7716 1453.00
15.0759 1410.00
15.3801 1409.00
15.6844 1430.00
15.9886 1310.00
16.2929 1343.00
16.5972 1359.00
16.9014 1276.00
17.2057 1287.00
17.5099 1213.00
17.8142 1186.00
18.1185 1209.00
18.4227 1224.00
18.727 1262.00
19.0312 1230.00
19.3355 2262.00
19.6398 1152.00
19.944 1061.00
20.2483 1044.00
20.5525 1031.00
20.8568 1040.00
21.1611 1277.00
21.4653 2469.00
21.7696 1031.00
22.0738 963.00
22.3781 930.00
22.6824 905.00
22.9866 871.00
23.2909 909.00
23.5951 878.00
23.8994 1139.00
24.2037 2950.00
24.5079 946.00
24.8122 835.00
25.1164 733.00
25.4207 787.00
25.725 852.00
26.0292 782.00
26.3335 746.00
26.6378 706.00
26.942 697.00
27.2463 650.00
27.5505 657.00
27.8548 654.00
28.1591 697.00
28.4633 643.00
28.7676 611.00
29.0718 622.00
29.3761 597.00
29.6804 637.00
29.9846 591.00
30.2889 554.00
30.5931 552.00
30.8974 573.00
31.2017 532.00
31.5059 551.00
31.8102 544.00
32.1144 588.00
32.4187 639.00
32.723 933.00
33.0272 4354.00
33.3315 2005.00
33.6357 612.00
33.94 566.00
34.2443 525.00
34.5485 519.00
34.8528 496.00
35.157 496.00
35.4613 960.00
35.7656 6665.00
36.0698 629.00
36.3741 469.00
36.6783 480.00
36.9826 484.00
37.2869 449.00
37.5911 436.00
37.8954 450.00
38.1996 400.00
38.5039 446.00
38.8082 408.00
39.1124 417.00
39.4167 388.00
39.7209 398.00
40.0252 453.00
40.3295 430.00
40.6337 1183.00
40.938 7377.00
41.2422 536.00
41.5465 453.00
41.8508 376.00
42.155 397.00
42.4593 345.00
42.7635 321.00
43.0678 350.00
43.3721 353.00
43.6763 396.00
43.9806 353.00
44.2849 283.00
44.5891 327.00
44.8934 329.00
45.1976 311.00
45.5019 308.00
45.8062 317.00
46.1104 344.00
46.4147 313.00
46.7189 306.00
47.0232 305.00
47.3275 241.00
47.6317 279.00
47.936 299.00
48.2402 279.00
48.5445 315.00
48.8488 423.00
49.153 841.00
49.4573 4743.00
49.7615 403.00
50.0658 315.00
50.3701 287.00
50.6743 483.00
50.9786 319.00
51.2828 299.00
51.5871 291.00
51.8914 309.00
52.1956 307.00
52.4999 346.00
52.8041 304.00
53.1084 285.00
53.4127 426.00
53.7169 2028.00
54.0212 3840.00
54.3254 376.00
54.6297 305.00
54.934 270.00
55.2382 294.00
55.5425 257.00
55.8467 313.00
56.151 584.00
56.4553 295.00
56.7595 297.00
57.0638 521.00
57.368 976.00
57.6723 330.00
57.9766 281.00
58.2808 233.00
58.5851 285.00
58.8893 230.00
59.1936 228.00
59.4979 210.00
59.8021 230.00
60.1064 267.00
60.4106 237.00
60.7149 268.00
61.0192 224.00
61.3234 269.00
61.6277 295.00
61.932 370.00
62.2362 2177.00
62.5405 1631.00
62.8447 306.00
63.149 326.00
63.4533 583.00
63.7575 978.00
64.0618 2227.00
64.366 361.00
64.6703 238.00
64.9745 246.00
65.2788 226.00
65.5831 231.00
65.8873 281.00
66.1916 213.00
66.4959 214.00
66.8001 223.00
67.1044 249.00
67.4086 498.00
67.7129 280.00
68.0172 223.00
68.3214 229.00
68.6257 243.00
68.9299 260.00
69.2342 439.00
69.5385 263.00
69.8427 195.00
70.147 199.00
70.4512 228.00
70.7555 209.00
71.0598 326.00
71.364 1579.00
71.6683 490.00
71.9725 467.00
72.2768 202.00
72.5811 224.00
72.8853 206.00
73.1896 212.00
73.4938 216.00
73.7981 191.00
74.1024 189.00
74.4066 213.00
74.7109 267.00
75.0151 345.00
75.3194 876.00
75.6237 390.00
75.9279 196.00
76.2322 204.00
76.5364 189.00
76.8407 197.00
77.145 195.00
77.4492 350.00
77.7535 234.00
78.0577 209.00
78.362 265.00
78.6663 407.00
78.9705 260.00
79.2748 292.00
79.579 270.00
79.8833 194.00
80.1876 571.00
80.4918 530.00
80.7961 210.00
81.1003 176.00
81.4046 192.00
81.7089 184.00
82.0131 202.00
82.3174 686.00
82.6217 310.00
82.9259 197.00
83.2302 173.00
83.5344 208.00
83.8387 214.00
84.143 190.00
84.4472 319.00
84.7515 594.00
85.0557 249.00
85.36 187.00
85.6643 176.00
85.9685 179.00
86.2728 148.00
86.577 202.00
86.8813 173.00
87.1856 193.00
87.4898 167.00
87.7941 243.00
88.0983 891.00
88.4026 642.00
88.7069 205.00
89.0111 194.00
89.3154 177.00
89.6196 195.00
89.9239 217.00
90.2282 218.00
90.5324 177.00
90.8367 192.00
91.1409 263.00
91.4452 194.00
91.7495 192.00
92.0537 182.00
92.358 212.00
92.6622 273.00
92.9665 1068.00
93.2708 617.00
93.575 217.00
93.8793 176.00
94.1835 258.00
94.4878 228.00
94.7921 185.00
95.0963 231.00
95.4006 296.00
95.7048 220.00
96.0091 244.00
96.3134 273.00
96.6176 190.00
96.9219 182.00
97.2261 178.00
97.5304 170.00
97.8347 169.00
98.1389 145.00
98.4432 176.00
98.7474 172.00
99.0517 173.00
99.356 155.00
99.6602 168.00
99.9645 158.00
100.095 189.00

File: PG_2547-1.xy
9.903433 2473.00
10.2077 2530.00
10.512 2431.00
10.8162 2296.00
11.1205 2176.00
11.4247 2183.00
11.729 2066.00
12.0333 2083.00
12.3375 1921.00
12.6418 1788.00
12.946 1781.00
13.2503 1795.00
13.5546 1784.00
13.8588 1739.00
14.1631 1753.00
14.4673 1610.00
14.7716 1634.00
15.0759 1608.00
15.3801 1473.00
15.6844 1506.00
15.9886 1476.00
16.2929 1496.00
16.5972 1522.00
16.9014 1409.00
17.2057 1548.00
17.5099 2064.00
17.8142 1481.00
18.1185 1338.00
18.4227 1329.00
18.727 1350.00
19.0312 1695.00
19.3355 1186.00
19.6398 1191.00
19.944 1227.00
20.2483 1218.00
20.5525 1160.00
20.8568 1312.00
21.1611 1207.00
21.4653 1314.00
21.7696 2237.00
22.0738 1168.00
22.3781 1091.00
22.6824 1232.00
22.9866 2125.00
23.2909 1067.00
23.5951 1047.00
23.8994 1076.00
24.2037 1633.00
24.5079 1026.00
24.8122 976.00
25.1164 1029.00
25.4207 917.00
25.725 923.00
26.0292 955.00
26.3335 842.00
26.6378 944.00
26.942 965.00
27.2463 1426.00
27.5505 994.00
27.8548 1505.00
28.1591 5916.00
28.4633 6451.00
28.7676 986.00
29.0718 1418.00
29.3761 1191.00
29.6804 2355.00
29.9846 1149.00
30.2889 818.00
30.5931 785.00
30.8974 739.00
31.2017 746.00
31.5059 881.00
31.8102 692.00
32.1144 772.00
32.4187 751.00
32.723 684.00
33.0272 683.00
33.3315 681.00
33.6357 754.00
33.94 648.00
34.2443 779.00
34.5485 1566.00
34.8528 1324.00
35.157 784.00
35.4613 1466.00
35.7656 1071.00
36.0698 1287.00
36.3741 791.00
36.6783 792.00
36.9826 638.00
37.2869 673.00
37.5911 819.00
37.8954 736.00
38.1996 642.00
38.5039 805.00
38.8082 839.00
39.1124 595.00
39.4167 558.00
39.7209 508.00
40.0252 537.00
40.3295 558.00
40.6337 587.00
40.938 809.00
41.2422 693.00
41.5465 1015.00
41.8508 1372.00
42.155 519.00
42.4593 682.00
42.7635 500.00
43.0678 718.00
43.3721 939.00
43.6763 1569.00
43.9806 714.00
44.2849 604.00
44.5891 578.00
44.8934 558.00
45.1976 596.00
45.5019 1214.00
45.8062 495.00
46.1104 513.00
46.4147 620.00
46.7189 1384.00
47.0232 1020.00
47.3275 707.00
47.6317 504.00
47.936 633.00
48.2402 658.00
48.5445 529.00
48.8488 511.00
49.153 600.00
49.4573 603.00
49.7615 512.00
50.0658 424.00
50.3701 447.00
50.6743 627.00
50.9786 557.00
51.2828 786.00
51.5871 834.00
51.8914 618.00
52.1956 546.00
52.4999 541.00
52.8041 933.00
53.1084 823.00
53.4127 825.00
53.7169 566.00
54.0212 541.00
54.3254 599.00
54.6297 747.00
54.934 1071.00
55.2382 573.00
55.5425 901.00
55.8467 627.00
56.151 906.00
56.4553 637.00
56.7595 492.00
57.0638 537.00
57.368 792.00
57.6723 547.00
57.9766 974.00
58.2808 865.00
58.5851 676.00
58.8893 603.00
59.1936 473.00
59.4979 462.00
59.8021 505.00
60.1064 943.00
60.4106 949.00
60.7149 982.00
61.0192 726.00
61.3234 735.00
61.6277 546.00
61.932 508.00
62.2362 797.00
62.5405 597.00
62.8447 724.00
63.149 1180.00
63.4533 881.00
63.7575 479.00
64.0618 506.00
64.366 525.00
64.6703 527.00
64.9745 677.00
65.2788 845.00
65.5831 901.00
65.8873 662.00
66.1916 607.00
66.4959 488.00
66.8001 575.00
67.1044 540.00
67.4086 479.00
67.7129 511.00
68.0172 554.00
68.3214 606.00
68.6257 703.00
68.9299 459.00
69.2342 450.00
69.5385 435.00
69.8427 429.00
70.147 475.00
70.4512 568.00
70.7555 582.00
71.0598 546.00
71.364 597.00
71.6683 584.00
71.9725 474.00
72.2768 579.00
72.5811 604.00
72.8853 737.00
73.1896 503.00
73.4938 546.00
73.7981 465.00
74.1024 487.00
74.4066 495.00
74.7109 593.00
75.0151 502.00
75.3194 736.00
75.6237 688.00
75.9279 504.00
76.2322 446.00
76.5364 443.00
76.8407 468.00
77.145 553.00
77.4492 591.00
77.7535 590.00
78.0577 429.00
78.362 454.00
78.6663 630.00
78.9705 555.00
79.2748 414.00
79.579 416.00
79.8833 450.00
80.1876 446.00
80.4918 505.00
80.7961 526.00
81.1003 436.00
81.4046 432.00
81.7089 405.00
82.0131 500.00
82.3174 455.00
82.6217 419.00
82.9259 551.00
83.2302 504.00
83.5344 433.00
83.8387 508.00
84.143 504.00
84.4472 457.00
84.7515 476.00
85.0557 439.00
85.36 458.00
85.6643 457.00
85.9685 463.00
86.2728 499.00
86.577 438.00
86.8813 397.00
87.1856 460.00
87.4898 450.00
87.7941 603.00
88.0983 466.00
88.4026 439.00
88.7069 448.00
89.0111 542.00
89.3154 507.00
89.6196 464.00
89.9239 441.00
90.2282 451.00
90.5324 465.00
90.8367 411.00
91.1409 457.00
91.4452 443.00
91.7495 482.00
92.0537 468.00
92.358 453.00
92.6622 457.00
92.9665 498.00
93.2708 489.00
93.575 489.00
93.8793 525.00
94.1835 522.00
94.4878 534.00
94.7921 522.00
95.0963 561.00
95.4006 483.00
95.7048 577.00
96.0091 475.00
96.3134 430.00
96.6176 501.00
96.9219 541.00
97.2261 483.00
97.5304 490.00
97.8347 443.00
98.1389 541.00
98.4432 462.00
98.7474 449.00
99.0517 500.00
99.356 411.00
99.6602 457.00
99.9645 455.00
100.095 415.00