Folder: alab-pipeline/data/xrd_creation/results (part 50)

File: NSC_85.xy
9.903433 2861.00
10.2077 2756.00
10.512 2623.00
10.8162 2611.00
11.1205 2464.00
11.4247 2396.00
11.729 2279.00
12.0333 2222.00
12.3375 2256.00
12.6418 2209.00
12.946 2093.00
13.2503 1964.00
13.5546 2043.00
13.8588 1998.00
14.1631 2287.00
14.4673 3312.00
14.7716 1857.00
15.0759 1922.00
15.3801 1869.00
15.6844 1824.00
15.9886 1784.00
16.2929 1813.00
16.5972 1752.00
16.9014 1720.00
17.2057 1666.00
17.5099 1729.00
17.8142 1751.00
18.1185 1566.00
18.4227 1642.00
18.727 1720.00
19.0312 1629.00
19.3355 1690.00
19.6398 2071.00
19.944 4035.00
20.2483 2815.00
20.5525 3868.00
20.8568 2591.00
21.1611 1542.00
21.4653 1518.00
21.7696 1468.00
22.0738 1482.00
22.3781 1373.00
22.6824 1377.00
22.9866 1418.00
23.2909 1737.00
23.5951 2590.00
23.8994 6801.00
24.2037 1931.00
24.5079 1801.00
24.8122 1425.00
25.1164 1336.00
25.4207 1309.00
25.725 1292.00
26.0292 1313.00
26.3335 1260.00
26.6378 1397.00
26.942 1791.00
27.2463 1355.00
27.5505 1324.00
27.8548 1264.00
28.1591 1266.00
28.4633 1679.00
28.7676 3941.00
29.0718 1628.00
29.3761 1135.00
29.6804 1171.00
29.9846 1192.00
30.2889 1113.00
30.5931 1096.00
30.8974 1192.00
31.2017 1351.00
31.5059 2255.00
31.8102 6391.00
32.1144 3391.00
32.4187 1305.00
32.723 1139.00
33.0272 1102.00
33.3315 1053.00
33.6357 1059.00
33.94 1146.00
34.2443 1364.00
34.5485 1356.00
34.8528 1191.00
35.157 1152.00
35.4613 1934.00
35.7656 3016.00
36.0698 2593.00
36.3741 1220.00
36.6783 1016.00
36.9826 982.00
37.2869 998.00
37.5911 984.00
37.8954 978.00
38.1996 1085.00
38.5039 981.00
38.8082 950.00
39.1124 958.00
39.4167 897.00
39.7209 974.00
40.0252 916.00
40.3295 1120.00
40.6337 1123.00
40.938 899.00
41.2422 918.00
41.5465 923.00
41.8508 1084.00
42.155 1109.00
42.4593 1176.00
42.7635 1083.00
43.0678 1101.00
43.3721 1354.00
43.6763 1393.00
43.9806 1077.00
44.2849 927.00
44.5891 856.00
44.8934 809.00
45.1976 932.00
45.5019 1173.00
45.8062 1843.00
46.1104 1173.00
46.4147 1202.00
46.7189 1326.00
47.0232 933.00
47.3275 1073.00
47.6317 1203.00
47.936 1019.00
48.2402 1312.00
48.5445 2164.00
48.8488 2148.00
49.153 1160.00
49.4573 1070.00
49.7615 916.00
50.0658 870.00
50.3701 872.00
50.6743 823.00
50.9786 838.00
51.2828 838.00
51.5871 874.00
51.8914 1068.00
52.1956 2052.00
52.4999 1999.00
52.8041 1182.00
53.1084 816.00
53.4127 792.00
53.7169 778.00
54.0212 855.00
54.3254 779.00
54.6297 878.00
54.934 1129.00
55.2382 1215.00
55.5425 1480.00
55.8467 1445.00
56.151 1719.00
56.4553 1371.00
56.7595 926.00
57.0638 943.00
57.368 869.00
57.6723 932.00
57.9766 829.00
58.2808 804.00
58.5851 751.00
58.8893 818.00
59.1936 958.00
59.4979 1064.00
59.8021 876.00
60.1064 799.00
60.4106 864.00
60.7149 1185.00
61.0192 1306.00
61.3234 1180.00
61.6277 1189.00
61.932 1371.00
62.2362 1198.00
62.5405 970.00
62.8447 903.00
63.149 893.00
63.4533 1115.00
63.7575 1153.00
64.0618 1090.00
64.366 1085.00
64.6703 1083.00
64.9745 1007.00
65.2788 930.00
65.5831 756.00
65.8873 786.00
66.1916 880.00
66.4959 868.00
66.8001 843.00
67.1044 883.00
67.4086 1012.00
67.7129 987.00
68.0172 851.00
68.3214 869.00
68.6257 926.00
68.9299 1017.00
69.2342 856.00
69.5385 805.00
69.8427 807.00
70.147 775.00
70.4512 729.00
70.7555 685.00
71.0598 732.00
71.364 826.00
71.6683 894.00
71.9725 884.00
72.2768 902.00
72.5811 817.00
72.8853 743.00
73.1896 731.00
73.4938 694.00
73.7981 665.00
74.1024 664.00
74.4066 693.00
74.7109 715.00
75.0151 975.00
75.3194 970.00
75.6237 921.00
75.9279 888.00
76.2322 941.00
76.5364 808.00
76.8407 840.00
77.145 815.00
77.4492 695.00
77.7535 712.00
78.0577 651.00
78.362 661.00
78.6663 784.00
78.9705 770.00
79.2748 699.00
79.579 759.00
79.8833 830.00
80.1876 829.00
80.4918 748.00
80.7961 650.00
81.1003 692.00
81.4046 706.00
81.7089 703.00
82.0131 721.00
82.3174 824.00
82.6217 795.00
82.9259 708.00
83.2302 697.00
83.5344 673.00
83.8387 752.00
84.143 758.00
84.4472 726.00
84.7515 718.00
85.0557 726.00
85.36 733.00
85.6643 708.00
85.9685 749.00
86.2728 778.00
86.577 737.00
86.8813 730.00
87.1856 745.00
87.4898 672.00
87.7941 734.00
88.0983 678.00
88.4026 752.00
88.7069 738.00
89.0111 758.00
89.3154 738.00
89.6196 763.00
89.9239 817.00
90.2282 718.00
90.5324 866.00
90.8367 844.00
91.1409 916.00
91.4452 754.00
91.7495 694.00
92.0537 670.00
92.358 685.00
92.6622 715.00
92.9665 748.00
93.2708 769.00
93.575 778.00
93.8793 784.00
94.1835 696.00
94.4878 641.00
94.7921 628.00
95.0963 702.00
95.4006 688.00
95.7048 718.00
96.0091 735.00
96.3134 816.00
96.6176 815.00
96.9219 792.00
97.2261 758.00
97.5304 822.00
97.8347 741.00
98.1389 759.00
98.4432 725.00
98.7474 685.00
99.0517 605.00
99.356 632.00
99.6602 666.00
99.9645 702.00
100.095 637.00

File: NSC_86.xy
9.903433 2781.00
10.2077 2718.00
10.512 2518.00
10.8162 2484.00
11.1205 2290.00
11.4247 2265.00
11.729 2153.00
12.0333 2173.00
12.3375 2005.00
12.6418 1945.00
12.946 1877.00
13.2503 1829.00
13.5546 1718.00
13.8588 1736.00
14.1631 1876.00
14.4673 2353.00
14.7716 1645.00
15.0759 1579.00
15.3801 1530.00
15.6844 1562.00
15.9886 1525.00
16.2929 1515.00
16.5972 1441.00
16.9014 1368.00
17.2057 1357.00
17.5099 1393.00
17.8142 1369.00
18.1185 1318.00
18.4227 1307.00
18.727 1255.00
19.0312 1283.00
19.3355 1234.00
19.6398 1360.00
19.944 3247.00
20.2483 1897.00
20.5525 1842.00
20.8568 4263.00
21.1611 1429.00
21.4653 1195.00
21.7696 1143.00
22.0738 1120.00
22.3781 1176.00
22.6824 1069.00
22.9866 1035.00
23.2909 1038.00
23.5951 1143.00
23.8994 2387.00
24.2037 3924.00
24.5079 1172.00
24.8122 977.00
25.1164 992.00
25.4207 899.00
25.725 927.00
26.0292 912.00
26.3335 1076.00
26.6378 1496.00
26.942 914.00
27.2463 824.00
27.5505 834.00
27.8548 832.00
28.1591 876.00
28.4633 865.00
28.7676 1119.00
29.0718 2969.00
29.3761 1055.00
29.6804 772.00
29.9846 803.00
30.2889 768.00
30.5931 721.00
30.8974 742.00
31.2017 715.00
31.5059 836.00
31.8102 1550.00
32.1144 3970.00
32.4187 1691.00
32.723 800.00
33.0272 714.00
33.3315 699.00
33.6357 821.00
33.94 1170.00
34.2443 678.00
34.5485 702.00
34.8528 647.00
35.157 585.00
35.4613 594.00
35.7656 785.00
36.0698 1412.00
36.3741 1601.00
36.6783 1426.00
36.9826 575.00
37.2869 571.00
37.5911 555.00
37.8954 714.00
38.1996 548.00
38.5039 572.00
38.8082 515.00
39.1124 520.00
39.4167 482.00
39.7209 438.00
40.0252 486.00
40.3295 515.00
40.6337 623.00
40.938 566.00
41.2422 513.00
41.5465 488.00
41.8508 531.00
42.155 579.00
42.4593 799.00
42.7635 579.00
43.0678 552.00
43.3721 476.00
43.6763 496.00
43.9806 621.00
44.2849 912.00
44.5891 540.00
44.8934 506.00
45.1976 437.00
45.5019 445.00
45.8062 521.00
46.1104 974.00
46.4147 871.00
46.7189 480.00
47.0232 498.00
47.3275 862.00
47.6317 615.00
47.936 627.00
48.2402 511.00
48.5445 425.00
48.8488 503.00
49.153 959.00
49.4573 1485.00
49.7615 697.00
50.0658 616.00
50.3701 454.00
50.6743 429.00
50.9786 400.00
51.2828 432.00
51.5871 572.00
51.8914 952.00
52.1956 558.00
52.4999 692.00
52.8041 1086.00
53.1084 709.00
53.4127 566.00
53.7169 449.00
54.0212 374.00
54.3254 427.00
54.6297 423.00
54.934 463.00
55.2382 375.00
55.5425 430.00
55.8467 669.00
56.151 539.00
56.4553 447.00
56.7595 878.00
57.0638 1361.00
57.368 911.00
57.6723 497.00
57.9766 437.00
58.2808 428.00
58.5851 487.00
58.8893 448.00
59.1936 372.00
59.4979 390.00
59.8021 416.00
60.1064 480.00
60.4106 476.00
60.7149 350.00
61.0192 371.00
61.3234 425.00
61.6277 790.00
61.932 750.00
62.2362 515.00
62.5405 482.00
62.8447 945.00
63.149 787.00
63.4533 481.00
63.7575 443.00
64.0618 545.00
64.366 522.00
64.6703 511.00
64.9745 467.00
65.2788 549.00
65.5831 618.00
65.8873 719.00
66.1916 563.00
66.4959 345.00
66.8001 356.00
67.1044 355.00
67.4086 401.00
67.7129 406.00
68.0172 474.00
68.3214 488.00
68.6257 424.00
68.9299 352.00
69.2342 348.00
69.5385 461.00
69.8427 463.00
70.147 365.00
70.4512 340.00
70.7555 331.00
71.0598 392.00
71.364 432.00
71.6683 318.00
71.9725 294.00
72.2768 249.00
72.5811 316.00
72.8853 309.00
73.1896 487.00
73.4938 528.00
73.7981 364.00
74.1024 260.00
74.4066 272.00
74.7109 291.00
75.0151 291.00
75.3194 309.00
75.6237 317.00
75.9279 385.00
76.2322 409.00
76.5364 352.00
76.8407 343.00
77.145 317.00
77.4492 468.00
77.7535 490.00
78.0577 457.00
78.362 344.00
78.6663 371.00
78.9705 317.00
79.2748 307.00
79.579 300.00
79.8833 317.00
80.1876 279.00
80.4918 282.00
80.7961 281.00
81.1003 399.00
81.4046 428.00
81.7089 416.00
82.0131 304.00
82.3174 282.00
82.6217 327.00
82.9259 272.00
83.2302 332.00
83.5344 401.00
83.8387 436.00
84.143 363.00
84.4472 308.00
84.7515 264.00
85.0557 278.00
85.36 274.00
85.6643 286.00
85.9685 305.00
86.2728 381.00
86.577 380.00
86.8813 326.00
87.1856 324.00
87.4898 323.00
87.7941 370.00
88.0983 366.00
88.4026 386.00
88.7069 318.00
89.0111 356.00
89.3154 304.00
89.6196 345.00
89.9239 341.00
90.2282 319.00
90.5324 280.00
90.8367 379.00
91.1409 345.00
91.4452 329.00
91.7495 297.00
92.0537 319.00
92.358 370.00
92.6622 450.00
92.9665 453.00
93.2708 401.00
93.575 323.00
93.8793 297.00
94.1835 283.00
94.4878 305.00
94.7921 319.00
95.0963 341.00
95.4006 280.00
95.7048 318.00
96.0091 339.00
96.3134 312.00
96.6176 285.00
96.9219 251.00
97.2261 285.00
97.5304 307.00
97.8347 307.00
98.1389 310.00
98.4432 330.00
98.7474 364.00
99.0517 336.00
99.356 283.00
99.6602 326.00
99.9645 381.00
100.095 389.00

File: NSC_88.xy
9.903433 2811.00
10.2077 2757.00
10.512 2560.00
10.8162 2562.00
11.1205 2387.00
11.4247 2408.00
11.729 2188.00
12.0333 2116.00
12.3375 2094.00
12.6418 2033.00
12.946 1930.00
13.2503 1967.00
13.5546 1888.00
13.8588 1879.00
14.1631 2109.00
14.4673 2744.00
14.7716 1667.00
15.0759 1677.00
15.3801 1601.00
15.6844 1613.00
15.9886 1592.00
16.2929 1629.00
16.5972 1589.00
16.9014 1484.00
17.2057 1499.00
17.5099 1441.00
17.8142 1471.00
18.1185 1382.00
18.4227 1366.00
18.727 1332.00
19.0312 1406.00
19.3355 1425.00
19.6398 2188.00
19.944 5419.00
20.2483 1543.00
20.5525 1643.00
20.8568 6150.00
21.1611 1727.00
21.4653 1332.00
21.7696 1177.00
22.0738 1157.00
22.3781 1132.00
22.6824 1155.00
22.9866 1178.00
23.2909 1159.00
23.5951 1176.00
23.8994 2301.00
24.2037 2847.00
24.5079 1065.00
24.8122 1076.00
25.1164 1030.00
25.4207 997.00
25.725 1009.00
26.0292 933.00
26.3335 1054.00
26.6378 2184.00
26.942 971.00
27.2463 851.00
27.5505 850.00
27.8548 929.00
28.1591 841.00
28.4633 850.00
28.7676 1469.00
29.0718 3861.00
29.3761 883.00
29.6804 771.00
29.9846 789.00
30.2889 765.00
30.5931 727.00
30.8974 797.00
31.2017 821.00
31.5059 1051.00
31.8102 6035.00
32.1144 1199.00
32.4187 1244.00
32.723 732.00
33.0272 649.00
33.3315 687.00
33.6357 785.00
33.94 1775.00
34.2443 925.00
34.5485 587.00
34.8528 641.00
35.157 667.00
35.4613 657.00
35.7656 815.00
36.0698 2303.00
36.3741 1056.00
36.6783 2911.00
36.9826 696.00
37.2869 600.00
37.5911 575.00
37.8954 677.00
38.1996 662.00
38.5039 628.00
38.8082 606.00
39.1124 568.00
39.4167 517.00
39.7209 495.00
40.0252 512.00
40.3295 882.00
40.6337 566.00
40.938 490.00
41.2422 462.00
41.5465 520.00
41.8508 749.00
42.155 735.00
42.4593 943.00
42.7635 637.00
43.0678 594.00
43.3721 488.00
43.6763 505.00
43.9806 935.00
44.2849 865.00
44.5891 440.00
44.8934 505.00
45.1976 569.00
45.5019 497.00
45.8062 1296.00
46.1104 649.00
46.4147 450.00
46.7189 483.00
47.0232 561.00
47.3275 2149.00
47.6317 734.00
47.936 465.00
48.2402 416.00
48.5445 564.00
48.8488 536.00
49.153 1473.00
49.4573 1214.00
49.7615 443.00
50.0658 528.00
50.3701 541.00
50.6743 395.00
50.9786 428.00
51.2828 414.00
51.5871 508.00
51.8914 1415.00
52.1956 1793.00
52.4999 999.00
52.8041 469.00
53.1084 521.00
53.4127 380.00
53.7169 386.00
54.0212 367.00
54.3254 422.00
54.6297 424.00
54.934 643.00
55.2382 416.00
55.5425 946.00
55.8467 539.00
56.151 422.00
56.4553 449.00
56.7595 983.00
57.0638 1113.00
57.368 1791.00
57.6723 530.00
57.9766 507.00
58.2808 496.00
58.5851 486.00
58.8893 759.00
59.1936 353.00
59.4979 379.00
59.8021 343.00
60.1064 566.00
60.4106 418.00
60.7149 341.00
61.0192 484.00
61.3234 1356.00
61.6277 462.00
61.932 641.00
62.2362 528.00
62.5405 512.00
62.8447 1558.00
63.149 1194.00
63.4533 486.00
63.7575 369.00
64.0618 371.00
64.366 510.00
64.6703 523.00
64.9745 500.00
65.2788 522.00
65.5831 915.00
65.8873 1025.00
66.1916 664.00
66.4959 383.00
66.8001 333.00
67.1044 621.00
67.4086 765.00
67.7129 357.00
68.0172 347.00
68.3214 314.00
68.6257 328.00
68.9299 325.00
69.2342 416.00
69.5385 1007.00
69.8427 506.00
70.147 341.00
70.4512 302.00
70.7555 349.00
71.0598 486.00
71.364 515.00
71.6683 358.00
71.9725 346.00
72.2768 287.00
72.5811 298.00
72.8853 314.00
73.1896 325.00
73.4938 764.00
73.7981 420.00
74.1024 282.00
74.4066 289.00
74.7109 326.00
75.0151 439.00
75.3194 554.00
75.6237 435.00
75.9279 401.00
76.2322 465.00
76.5364 318.00
76.8407 283.00
77.145 298.00
77.4492 355.00
77.7535 633.00
78.0577 448.00
78.362 344.00
78.6663 406.00
78.9705 434.00
79.2748 376.00
79.579 374.00
79.8833 342.00
80.1876 351.00
80.4918 273.00
80.7961 295.00
81.1003 505.00
81.4046 647.00
81.7089 486.00
82.0131 329.00
82.3174 306.00
82.6217 470.00
82.9259 659.00
83.2302 361.00
83.5344 262.00
83.8387 377.00
84.143 311.00
84.4472 283.00
84.7515 280.00
85.0557 331.00
85.36 327.00
85.6643 278.00
85.9685 291.00
86.2728 489.00
86.577 500.00
86.8813 293.00
87.1856 364.00
87.4898 587.00
87.7941 637.00
88.0983 406.00
88.4026 290.00
88.7069 373.00
89.0111 342.00
89.3154 323.00
89.6196 314.00
89.9239 348.00
90.2282 361.00
90.5324 346.00
90.8367 433.00
91.1409 432.00
91.4452 338.00
91.7495 294.00
92.0537 247.00
92.358 435.00
92.6622 565.00
92.9665 463.00
93.2708 351.00
93.575 331.00
93.8793 318.00
94.1835 476.00
94.4878 381.00
94.7921 301.00
95.0963 402.00
95.4006 415.00
95.7048 348.00
96.0091 363.00
96.3134 422.00
96.6176 319.00
96.9219 265.00
97.2261 315.00
97.5304 330.00
97.8347 634.00
98.1389 483.00
98.4432 331.00
98.7474 271.00
99.0517 260.00
99.356 266.00
99.6602 290.00
99.9645 523.00
100.095 638.00

File: NSC_89.xy
9.903433 2906.00
10.2077 2591.00
10.512 2471.00
10.8162 2446.00
11.1205 2379.00
11.4247 2235.00
11.729 2259.00
12.0333 2187.00
12.3375 2034.00
12.6418 1976.00
12.946 1950.00
13.2503 1850.00
13.5546 1789.00
13.8588 1882.00
14.1631 2108.00
14.4673 2486.00
14.7716 1715.00
15.0759 1654.00
15.3801 1639.00
15.6844 1601.00
15.9886 1576.00
16.2929 1575.00
16.5972 1553.00
16.9014 1486.00
17.2057 1507.00
17.5099 1426.00
17.8142 1495.00
18.1185 1338.00
18.4227 1364.00
18.727 1381.00
19.0312 1336.00
19.3355 1456.00
19.6398 2449.00
19.944 4832.00
20.2483 1456.00
20.5525 1807.00
20.8568 6274.00
21.1611 1690.00
21.4653 1274.00
21.7696 1244.00
22.0738 1169.00
22.3781 1202.00
22.6824 1097.00
22.9866 1137.00
23.2909 1089.00
23.5951 1261.00
23.8994 2526.00
24.2037 2728.00
24.5079 1102.00
24.8122 985.00
25.1164 1014.00
25.4207 931.00
25.725 941.00
26.0292 898.00
26.3335 924.00
26.6378 1249.00
26.942 855.00
27.2463 863.00
27.5505 872.00
27.8548 868.00
28.1591 828.00
28.4633 876.00
28.7676 1615.00
29.0718 3599.00
29.3761 929.00
29.6804 802.00
29.9846 800.00
30.2889 754.00
30.5931 728.00
30.8974 801.00
31.2017 778.00
31.5059 1105.00
31.8102 6234.00
32.1144 1168.00
32.4187 1232.00
32.723 733.00
33.0272 659.00
33.3315 714.00
33.6357 687.00
33.94 1107.00
34.2443 890.00
34.5485 653.00
34.8528 634.00
35.157 617.00
35.4613 676.00
35.7656 928.00
36.0698 2278.00
36.3741 1171.00
36.6783 2928.00
36.9826 695.00
37.2869 622.00
37.5911 590.00
37.8954 606.00
38.1996 585.00
38.5039 650.00
38.8082 608.00
39.1124 500.00
39.4167 521.00
39.7209 526.00
40.0252 490.00
40.3295 887.00
40.6337 569.00
40.938 497.00
41.2422 522.00
41.5465 499.00
41.8508 809.00
42.155 824.00
42.4593 978.00
42.7635 617.00
43.0678 563.00
43.3721 466.00
43.6763 482.00
43.9806 1032.00
44.2849 896.00
44.5891 470.00
44.8934 471.00
45.1976 588.00
45.5019 539.00
45.8062 1334.00
46.1104 703.00
46.4147 474.00
46.7189 479.00
47.0232 612.00
47.3275 2273.00
47.6317 769.00
47.936 451.00
48.2402 477.00
48.5445 592.00
48.8488 554.00
49.153 1595.00
49.4573 1304.00
49.7615 492.00
50.0658 501.00
50.3701 536.00
50.6743 422.00
50.9786 399.00
51.2828 467.00
51.5871 454.00
51.8914 805.00
52.1956 1833.00
52.4999 1085.00
52.8041 453.00
53.1084 589.00
53.4127 405.00
53.7169 397.00
54.0212 364.00
54.3254 377.00
54.6297 415.00
54.934 476.00
55.2382 401.00
55.5425 880.00
55.8467 537.00
56.151 392.00
56.4553 416.00
56.7595 929.00
57.0638 1199.00
57.368 1943.00
57.6723 561.00
57.9766 459.00
58.2808 445.00
58.5851 544.00
58.8893 770.00
59.1936 392.00
59.4979 360.00
59.8021 355.00
60.1064 559.00
60.4106 391.00
60.7149 344.00
61.0192 483.00
61.3234 1473.00
61.6277 471.00
61.932 462.00
62.2362 519.00
62.5405 546.00
62.8447 1487.00
63.149 1337.00
63.4533 500.00
63.7575 364.00
64.0618 382.00
64.366 493.00
64.6703 434.00
64.9745 403.00
65.2788 552.00
65.5831 971.00
65.8873 1011.00
66.1916 597.00
66.4959 365.00
66.8001 354.00
67.1044 671.00
67.4086 729.00
67.7129 377.00
68.0172 348.00
68.3214 332.00
68.6257 346.00
68.9299 343.00
69.2342 343.00
69.5385 1047.00
69.8427 555.00
70.147 307.00
70.4512 329.00
70.7555 338.00
71.0598 517.00
71.364 476.00
71.6683 372.00
71.9725 362.00
72.2768 278.00
72.5811 336.00
72.8853 296.00
73.1896 329.00
73.4938 809.00
73.7981 467.00
74.1024 326.00
74.4066 264.00
74.7109 360.00
75.0151 495.00
75.3194 627.00
75.6237 488.00
75.9279 425.00
76.2322 453.00
76.5364 327.00
76.8407 321.00
77.145 294.00
77.4492 372.00
77.7535 631.00
78.0577 525.00
78.362 337.00
78.6663 292.00
78.9705 374.00
79.2748 355.00
79.579 341.00
79.8833 356.00
80.1876 347.00
80.4918 284.00
80.7961 308.00
81.1003 500.00
81.4046 654.00
81.7089 509.00
82.0131 318.00
82.3174 314.00
82.6217 446.00
82.9259 683.00
83.2302 375.00
83.5344 340.00
83.8387 286.00
84.143 292.00
84.4472 275.00
84.7515 273.00
85.0557 367.00
85.36 315.00
85.6643 267.00
85.9685 313.00
86.2728 487.00
86.577 529.00
86.8813 384.00
87.1856 325.00
87.4898 570.00
87.7941 673.00
88.0983 458.00
88.4026 292.00
88.7069 382.00
89.0111 354.00
89.3154 331.00
89.6196 314.00
89.9239 323.00
90.2282 359.00
90.5324 375.00
90.8367 373.00
91.1409 394.00
91.4452 328.00
91.7495 324.00
92.0537 294.00
92.358 441.00
92.6622 568.00
92.9665 458.00
93.2708 332.00
93.575 309.00
93.8793 316.00
94.1835 493.00
94.4878 418.00
94.7921 321.00
95.0963 477.00
95.4006 450.00
95.7048 339.00
96.0091 338.00
96.3134 386.00
96.6176 336.00
96.9219 279.00
97.2261 279.00
97.5304 339.00
97.8347 632.00
98.1389 505.00
98.4432 352.00
98.7474 326.00
99.0517 262.00
99.356 278.00
99.6602 297.00
99.9645 508.00
100.095 623.00

File: NSC_90.xy
9.903433 2808.00
10.2077 2660.00
10.512 2592.00
10.8162 2447.00
11.1205 2366.00
11.4247 2300.00
11.729 2296.00
12.0333 2142.00
12.3375 2122.00
12.6418 1954.00
12.946 1920.00
13.2503 1927.00
13.5546 1849.00
13.8588 1930.00
14.1631 2256.00
14.4673 1807.00
14.7716 1683.00
15.0759 1612.00
15.3801 1618.00
15.6844 1577.00
15.9886 1462.00
16.2929 1495.00
16.5972 1476.00
16.9014 1465.00
17.2057 1488.00
17.5099 1429.00
17.8142 1385.00
18.1185 1371.00
18.4227 1335.00
18.727 1312.00
19.0312 1383.00
19.3355 1407.00
19.6398 2995.00
19.944 2307.00
20.2483 1575.00
20.5525 2042.00
20.8568 6236.00
21.1611 1319.00
21.4653 1459.00
21.7696 1173.00
22.0738 1069.00
22.3781 1116.00
22.6824 1098.00
22.9866 1167.00
23.2909 1143.00
23.5951 1181.00
23.8994 3524.00
24.2037 1196.00
24.5079 942.00
24.8122 874.00
25.1164 934.00
25.4207 939.00
25.725 899.00
26.0292 959.00
26.3335 1250.00
26.6378 2068.00
26.942 895.00
27.2463 818.00
27.5505 796.00
27.8548 802.00
28.1591 832.00
28.4633 815.00
28.7676 2169.00
29.0718 1353.00
29.3761 791.00
29.6804 761.00
29.9846 731.00
30.2889 705.00
30.5931 740.00
30.8974 705.00
31.2017 760.00
31.5059 1209.00
31.8102 5068.00
32.1144 868.00
32.4187 905.00
32.723 656.00
33.0272 650.00
33.3315 639.00
33.6357 887.00
33.94 1698.00
34.2443 683.00
34.5485 598.00
34.8528 561.00
35.157 574.00
35.4613 599.00
35.7656 1187.00
36.0698 1038.00
36.3741 1611.00
36.6783 1110.00
36.9826 602.00
37.2869 550.00
37.5911 531.00
37.8954 1091.00
38.1996 559.00
38.5039 649.00
38.8082 548.00
39.1124 444.00
39.4167 441.00
39.7209 443.00
40.0252 439.00
40.3295 851.00
40.6337 409.00
40.938 429.00
41.2422 446.00
41.5465 449.00
41.8508 955.00
42.155 565.00
42.4593 930.00
42.7635 477.00
43.0678 456.00
43.3721 406.00
43.6763 455.00
43.9806 1384.00
44.2849 525.00
44.5891 427.00
44.8934 477.00
45.1976 448.00
45.5019 485.00
45.8062 1414.00
46.1104 439.00
46.4147 440.00
46.7189 372.00
47.0232 597.00
47.3275 1766.00
47.6317 429.00
47.936 388.00
48.2402 383.00
48.5445 489.00
48.8488 484.00
49.153 2234.00
49.4573 522.00
49.7615 370.00
50.0658 549.00
50.3701 358.00
50.6743 366.00
50.9786 362.00
51.2828 400.00
51.5871 798.00
51.8914 1267.00
52.1956 2153.00
52.4999 486.00
52.8041 357.00
53.1084 458.00
53.4127 344.00
53.7169 343.00
54.0212 331.00
54.3254 363.00
54.6297 583.00
54.934 459.00
55.2382 359.00
55.5425 786.00
55.8467 364.00
56.151 325.00
56.4553 450.00
56.7595 1301.00
57.0638 1088.00
57.368 996.00
57.6723 461.00
57.9766 439.00
58.2808 377.00
58.5851 512.00
58.8893 577.00
59.1936 346.00
59.4979 322.00
59.8021 345.00
60.1064 407.00
60.4106 300.00
60.7149 306.00
61.0192 496.00
61.3234 964.00
61.6277 365.00
61.932 601.00
62.2362 449.00
62.5405 448.00
62.8447 1220.00
63.149 779.00
63.4533 335.00
63.7575 291.00
64.0618 328.00
64.366 420.00
64.6703 664.00
64.9745 413.00
65.2788 744.00
65.5831 766.00
65.8873 1041.00
66.1916 498.00
66.4959 287.00
66.8001 308.00
67.1044 757.00
67.4086 550.00
67.7129 360.00
68.0172 284.00
68.3214 258.00
68.6257 258.00
68.9299 268.00
69.2342 386.00
69.5385 730.00
69.8427 293.00
70.147 289.00
70.4512 248.00
70.7555 325.00
71.0598 398.00
71.364 393.00
71.6683 289.00
71.9725 285.00
72.2768 262.00
72.5811 233.00
72.8853 263.00
73.1896 375.00
73.4938 518.00
73.7981 294.00
74.1024 271.00
74.4066 260.00
74.7109 288.00
75.0151 495.00
75.3194 467.00
75.6237 376.00
75.9279 374.00
76.2322 390.00
76.5364 284.00
76.8407 226.00
77.145 268.00
77.4492 333.00
77.7535 404.00
78.0577 308.00
78.362 251.00
78.6663 514.00
78.9705 389.00
79.2748 283.00
79.579 275.00
79.8833 282.00
80.1876 305.00
80.4918 240.00
80.7961 276.00
81.1003 620.00
81.4046 568.00
81.7089 383.00
82.0131 240.00
82.3174 257.00
82.6217 408.00
82.9259 453.00
83.2302 286.00
83.5344 308.00
83.8387 291.00
84.143 242.00
84.4472 210.00
84.7515 250.00
85.0557 249.00
85.36 236.00
85.6643 234.00
85.9685 278.00
86.2728 498.00
86.577 454.00
86.8813 266.00
87.1856 357.00
87.4898 551.00
87.7941 517.00
88.0983 334.00
88.4026 250.00
88.7069 307.00
89.0111 256.00
89.3154 224.00
89.6196 330.00
89.9239 324.00
90.2282 380.00
90.5324 346.00
90.8367 524.00
91.1409 390.00
91.4452 257.00
91.7495 276.00
92.0537 228.00
92.358 509.00
92.6622 473.00
92.9665 311.00
93.2708 371.00
93.575 283.00
93.8793 245.00
94.1835 342.00
94.4878 316.00
94.7921 240.00
95.0963 381.00
95.4006 329.00
95.7048 310.00
96.0091 348.00
96.3134 330.00
96.6176 269.00
96.9219 232.00
97.2261 231.00
97.5304 284.00
97.8347 527.00
98.1389 395.00
98.4432 287.00
98.7474 271.00
99.0517 220.00
99.356 224.00
99.6602 240.00
99.9645 503.00
100.095 490.00