Folder: alab-pipeline/data/xrd_creation/results (part 22)

File: Na_126.xy
9.903433 2660.00
10.2077 2654.00
10.512 2519.00
10.8162 2459.00
11.1205 2424.00
11.4247 2228.00
11.729 2254.00
12.0333 2129.00
12.3375 1974.00
12.6418 1975.00
12.946 2050.00
13.2503 1864.00
13.5546 1893.00
13.8588 1715.00
14.1631 1785.00
14.4673 1783.00
14.7716 1727.00
15.0759 1644.00
15.3801 1696.00
15.6844 1605.00
15.9886 1635.00
16.2929 1587.00
16.5972 1701.00
16.9014 1651.00
17.2057 1524.00
17.5099 1550.00
17.8142 1533.00
18.1185 1487.00
18.4227 1498.00
18.727 1447.00
19.0312 1550.00
19.3355 2303.00
19.6398 4591.00
19.944 1760.00
20.2483 1475.00
20.5525 1372.00
20.8568 1377.00
21.1611 1324.00
21.4653 1349.00
21.7696 1306.00
22.0738 1584.00
22.3781 2974.00
22.6824 8480.00
22.9866 1968.00
23.2909 1402.00
23.5951 1261.00
23.8994 1247.00
24.2037 1212.00
24.5079 1161.00
24.8122 1199.00
25.1164 1782.00
25.4207 2356.00
25.725 1184.00
26.0292 1069.00
26.3335 1065.00
26.6378 1320.00
26.942 3078.00
27.2463 1173.00
27.5505 1616.00
27.8548 2027.00
28.1591 1194.00
28.4633 1039.00
28.7676 1080.00
29.0718 945.00
29.3761 943.00
29.6804 898.00
29.9846 951.00
30.2889 865.00
30.5931 881.00
30.8974 875.00
31.2017 920.00
31.5059 1011.00
31.8102 1270.00
32.1144 3536.00
32.4187 1315.00
32.723 894.00
33.0272 840.00
33.3315 793.00
33.6357 829.00
33.94 1061.00
34.2443 2514.00
34.5485 940.00
34.8528 779.00
35.157 773.00
35.4613 724.00
35.7656 795.00
36.0698 744.00
36.3741 665.00
36.6783 710.00
36.9826 783.00
37.2869 990.00
37.5911 2135.00
37.8954 3492.00
38.1996 1581.00
38.5039 844.00
38.8082 771.00
39.1124 814.00
39.4167 1332.00
39.7209 1159.00
40.0252 739.00
40.3295 617.00
40.6337 659.00
40.938 711.00
41.2422 778.00
41.5465 620.00
41.8508 578.00
42.155 642.00
42.4593 581.00
42.7635 582.00
43.0678 595.00
43.3721 635.00
43.6763 707.00
43.9806 653.00
44.2849 591.00
44.5891 532.00
44.8934 564.00
45.1976 568.00
45.5019 597.00
45.8062 758.00
46.1104 725.00
46.4147 558.00
46.7189 547.00
47.0232 613.00
47.3275 702.00
47.6317 599.00
47.936 571.00
48.2402 531.00
48.5445 556.00
48.8488 601.00
49.153 591.00
49.4573 545.00
49.7615 610.00
50.0658 1081.00
50.3701 1448.00
50.6743 720.00
50.9786 673.00
51.2828 880.00
51.5871 1837.00
51.8914 1492.00
52.1956 1715.00
52.4999 609.00
52.8041 569.00
53.1084 609.00
53.4127 559.00
53.7169 514.00
54.0212 539.00
54.3254 550.00
54.6297 614.00
54.934 754.00
55.2382 821.00
55.5425 595.00
55.8467 519.00
56.151 521.00
56.4553 679.00
56.7595 954.00
57.0638 1362.00
57.368 713.00
57.6723 571.00
57.9766 577.00
58.2808 559.00
58.5851 500.00
58.8893 523.00
59.1936 488.00
59.4979 436.00
59.8021 493.00
60.1064 633.00
60.4106 839.00
60.7149 1786.00
61.0192 1198.00
61.3234 682.00
61.6277 585.00
61.932 600.00
62.2362 744.00
62.5405 560.00
62.8447 493.00
63.149 533.00
63.4533 459.00
63.7575 468.00
64.0618 487.00
64.366 486.00
64.6703 479.00
64.9745 870.00
65.2788 515.00
65.5831 470.00
65.8873 468.00
66.1916 874.00
66.4959 717.00
66.8001 886.00
67.1044 614.00
67.4086 492.00
67.7129 536.00
68.0172 501.00
68.3214 494.00
68.6257 469.00
68.9299 502.00
69.2342 498.00
69.5385 561.00
69.8427 595.00
70.147 834.00
70.4512 740.00
70.7555 516.00
71.0598 578.00
71.364 795.00
71.6683 737.00
71.9725 490.00
72.2768 435.00
72.5811 435.00
72.8853 415.00
73.1896 448.00
73.4938 479.00
73.7981 467.00
74.1024 469.00
74.4066 441.00
74.7109 422.00
75.0151 391.00
75.3194 418.00
75.6237 494.00
75.9279 534.00
76.2322 440.00
76.5364 379.00
76.8407 435.00
77.145 431.00
77.4492 458.00
77.7535 415.00
78.0577 415.00
78.362 363.00
78.6663 468.00
78.9705 797.00
79.2748 605.00
79.579 466.00
79.8833 455.00
80.1876 509.00
80.4918 453.00
80.7961 436.00
81.1003 427.00
81.4046 494.00
81.7089 399.00
82.0131 363.00
82.3174 368.00
82.6217 334.00
82.9259 364.00
83.2302 375.00
83.5344 359.00
83.8387 413.00
84.143 443.00
84.4472 360.00
84.7515 353.00
85.0557 364.00
85.36 401.00
85.6643 372.00
85.9685 407.00
86.2728 356.00
86.577 379.00
86.8813 345.00
87.1856 392.00
87.4898 511.00
87.7941 539.00
88.0983 463.00
88.4026 495.00
88.7069 539.00
89.0111 602.00
89.3154 483.00
89.6196 447.00
89.9239 539.00
90.2282 510.00
90.5324 389.00
90.8367 392.00
91.1409 623.00
91.4452 559.00
91.7495 456.00
92.0537 375.00
92.358 422.00
92.6622 416.00
92.9665 511.00
93.2708 574.00
93.575 553.00
93.8793 422.00
94.1835 399.00
94.4878 361.00
94.7921 375.00
95.0963 374.00
95.4006 376.00
95.7048 403.00
96.0091 524.00
96.3134 610.00
96.6176 635.00
96.9219 464.00
97.2261 438.00
97.5304 429.00
97.8347 431.00
98.1389 370.00
98.4432 366.00
98.7474 409.00
99.0517 355.00
99.356 368.00
99.6602 360.00
99.9645 386.00
100.095 377.00

File: Na_127.xy
9.903433 2652.00
10.2077 2522.00
10.512 2491.00
10.8162 2368.00
11.1205 2254.00
11.4247 2298.00
11.729 2137.00
12.0333 2098.00
12.3375 1975.00
12.6418 1923.00
12.946 1949.00
13.2503 1812.00
13.5546 1720.00
13.8588 1741.00
14.1631 1775.00
14.4673 1748.00
14.7716 1661.00
15.0759 1607.00
15.3801 1598.00
15.6844 1541.00
15.9886 1524.00
16.2929 1515.00
16.5972 1508.00
16.9014 1477.00
17.2057 1467.00
17.5099 1387.00
17.8142 1419.00
18.1185 1392.00
18.4227 1339.00
18.727 1380.00
19.0312 1319.00
19.3355 1397.00
19.6398 1664.00
19.944 1388.00
20.2483 1305.00
20.5525 1214.00
20.8568 1155.00
21.1611 1210.00
21.4653 1376.00
21.7696 1266.00
22.0738 1143.00
22.3781 1235.00
22.6824 1413.00
22.9866 1130.00
23.2909 1072.00
23.5951 1013.00
23.8994 987.00
24.2037 1095.00
24.5079 1166.00
24.8122 994.00
25.1164 933.00
25.4207 1005.00
25.725 1018.00
26.0292 978.00
26.3335 945.00
26.6378 1262.00
26.942 5247.00
27.2463 1227.00
27.5505 981.00
27.8548 915.00
28.1591 842.00
28.4633 853.00
28.7676 834.00
29.0718 917.00
29.3761 978.00
29.6804 763.00
29.9846 764.00
30.2889 770.00
30.5931 732.00
30.8974 794.00
31.2017 880.00
31.5059 1163.00
31.8102 796.00
32.1144 830.00
32.4187 729.00
32.723 694.00
33.0272 649.00
33.3315 781.00
33.6357 766.00
33.94 1055.00
34.2443 4985.00
34.5485 1013.00
34.8528 711.00
35.157 626.00
35.4613 624.00
35.7656 573.00
36.0698 608.00
36.3741 673.00
36.6783 623.00
36.9826 645.00
37.2869 654.00
37.5911 797.00
37.8954 813.00
38.1996 1276.00
38.5039 1082.00
38.8082 573.00
39.1124 572.00
39.4167 770.00
39.7209 608.00
40.0252 548.00
40.3295 542.00
40.6337 535.00
40.938 537.00
41.2422 460.00
41.5465 458.00
41.8508 496.00
42.155 468.00
42.4593 436.00
42.7635 486.00
43.0678 551.00
43.3721 481.00
43.6763 521.00
43.9806 500.00
44.2849 547.00
44.5891 505.00
44.8934 487.00
45.1976 499.00
45.5019 468.00
45.8062 535.00
46.1104 527.00
46.4147 440.00
46.7189 425.00
47.0232 473.00
47.3275 430.00
47.6317 413.00
47.936 492.00
48.2402 516.00
48.5445 460.00
48.8488 460.00
49.153 442.00
49.4573 552.00
49.7615 532.00
50.0658 476.00
50.3701 496.00
50.6743 463.00
50.9786 495.00
51.2828 718.00
51.5871 609.00
51.8914 1141.00
52.1956 3923.00
52.4999 858.00
52.8041 470.00
53.1084 468.00
53.4127 489.00
53.7169 397.00
54.0212 422.00
54.3254 445.00
54.6297 465.00
54.934 674.00
55.2382 1098.00
55.5425 484.00
55.8467 441.00
56.151 425.00
56.4553 406.00
56.7595 445.00
57.0638 433.00
57.368 393.00
57.6723 459.00
57.9766 596.00
58.2808 720.00
58.5851 565.00
58.8893 484.00
59.1936 411.00
59.4979 356.00
59.8021 389.00
60.1064 421.00
60.4106 517.00
60.7149 593.00
61.0192 520.00
61.3234 436.00
61.6277 397.00
61.932 522.00
62.2362 1184.00
62.5405 615.00
62.8447 434.00
63.149 427.00
63.4533 438.00
63.7575 488.00
64.0618 437.00
64.366 422.00
64.6703 509.00
64.9745 1066.00
65.2788 863.00
65.5831 436.00
65.8873 457.00
66.1916 1051.00
66.4959 1026.00
66.8001 462.00
67.1044 418.00
67.4086 420.00
67.7129 364.00
68.0172 377.00
68.3214 392.00
68.6257 365.00
68.9299 355.00
69.2342 392.00
69.5385 352.00
69.8427 376.00
70.147 335.00
70.4512 385.00
70.7555 336.00
71.0598 373.00
71.364 493.00
71.6683 731.00
71.9725 450.00
72.2768 346.00
72.5811 391.00
72.8853 350.00
73.1896 361.00
73.4938 368.00
73.7981 303.00
74.1024 358.00
74.4066 359.00
74.7109 394.00
75.0151 369.00
75.3194 332.00
75.6237 302.00
75.9279 381.00
76.2322 336.00
76.5364 333.00
76.8407 313.00
77.145 284.00
77.4492 321.00
77.7535 296.00
78.0577 300.00
78.362 370.00
78.6663 403.00
78.9705 923.00
79.2748 780.00
79.579 440.00
79.8833 362.00
80.1876 318.00
80.4918 346.00
80.7961 315.00
81.1003 415.00
81.4046 526.00
81.7089 476.00
82.0131 330.00
82.3174 349.00
82.6217 344.00
82.9259 364.00
83.2302 352.00
83.5344 362.00
83.8387 549.00
84.143 688.00
84.4472 418.00
84.7515 313.00
85.0557 348.00
85.36 311.00
85.6643 350.00
85.9685 341.00
86.2728 313.00
86.577 305.00
86.8813 323.00
87.1856 345.00
87.4898 549.00
87.7941 505.00
88.0983 420.00
88.4026 355.00
88.7069 409.00
89.0111 338.00
89.3154 366.00
89.6196 399.00
89.9239 693.00
90.2282 791.00
90.5324 515.00
90.8367 461.00
91.1409 818.00
91.4452 729.00
91.7495 485.00
92.0537 350.00
92.358 349.00
92.6622 349.00
92.9665 384.00
93.2708 386.00
93.575 590.00
93.8793 530.00
94.1835 384.00
94.4878 325.00
94.7921 347.00
95.0963 317.00
95.4006 315.00
95.7048 344.00
96.0091 381.00
96.3134 567.00
96.6176 528.00
96.9219 350.00
97.2261 371.00
97.5304 324.00
97.8347 391.00
98.1389 361.00
98.4432 331.00
98.7474 369.00
99.0517 324.00
99.356 326.00
99.6602 310.00
99.9645 324.00
100.095 368.00

File: Na_128.xy
9.903433 2573.00
10.2077 2570.00
10.512 2467.00
10.8162 2402.00
11.1205 2388.00
11.4247 2163.00
11.729 2192.00
12.0333 2028.00
12.3375 1954.00
12.6418 1855.00
12.946 1857.00
13.2503 1802.00
13.5546 1769.00
13.8588 1693.00
14.1631 1643.00
14.4673 1700.00
14.7716 1657.00
15.0759 1637.00
15.3801 1597.00
15.6844 1571.00
15.9886 1531.00
16.2929 1505.00
16.5972 1511.00
16.9014 1523.00
17.2057 1443.00
17.5099 1417.00
17.8142 1434.00
18.1185 1367.00
18.4227 1367.00
18.727 1295.00
19.0312 1288.00
19.3355 1394.00
19.6398 1565.00
19.944 1318.00
20.2483 1302.00
20.5525 1233.00
20.8568 1160.00
21.1611 1247.00
21.4653 1344.00
21.7696 1251.00
22.0738 1080.00
22.3781 1196.00
22.6824 1494.00
22.9866 1175.00
23.2909 1136.00
23.5951 1040.00
23.8994 996.00
24.2037 1147.00
24.5079 1159.00
24.8122 940.00
25.1164 1007.00
25.4207 991.00
25.725 932.00
26.0292 902.00
26.3335 1000.00
26.6378 1313.00
26.942 5895.00
27.2463 1425.00
27.5505 1039.00
27.8548 956.00
28.1591 909.00
28.4633 885.00
28.7676 903.00
29.0718 932.00
29.3761 961.00
29.6804 874.00
29.9846 851.00
30.2889 781.00
30.5931 833.00
30.8974 877.00
31.2017 926.00
31.5059 1147.00
31.8102 783.00
32.1144 815.00
32.4187 778.00
32.723 716.00
33.0272 749.00
33.3315 761.00
33.6357 824.00
33.94 1102.00
34.2443 5733.00
34.5485 1193.00
34.8528 768.00
35.157 692.00
35.4613 702.00
35.7656 656.00
36.0698 602.00
36.3741 676.00
36.6783 704.00
36.9826 669.00
37.2869 707.00
37.5911 816.00
37.8954 822.00
38.1996 1249.00
38.5039 1192.00
38.8082 687.00
39.1124 617.00
39.4167 861.00
39.7209 599.00
40.0252 542.00
40.3295 596.00
40.6337 572.00
40.938 513.00
41.2422 508.00
41.5465 537.00
41.8508 496.00
42.155 528.00
42.4593 514.00
42.7635 528.00
43.0678 612.00
43.3721 526.00
43.6763 538.00
43.9806 518.00
44.2849 566.00
44.5891 511.00
44.8934 477.00
45.1976 438.00
45.5019 508.00
45.8062 536.00
46.1104 553.00
46.4147 488.00
46.7189 501.00
47.0232 490.00
47.3275 450.00
47.6317 461.00
47.936 492.00
48.2402 502.00
48.5445 452.00
48.8488 474.00
49.153 485.00
49.4573 597.00
49.7615 531.00
50.0658 444.00
50.3701 524.00
50.6743 498.00
50.9786 550.00
51.2828 675.00
51.5871 649.00
51.8914 1074.00
52.1956 4579.00
52.4999 906.00
52.8041 507.00
53.1084 479.00
53.4127 456.00
53.7169 442.00
54.0212 443.00
54.3254 457.00
54.6297 469.00
54.934 720.00
55.2382 1289.00
55.5425 522.00
55.8467 428.00
56.151 449.00
56.4553 400.00
56.7595 424.00
57.0638 423.00
57.368 431.00
57.6723 449.00
57.9766 604.00
58.2808 839.00
58.5851 554.00
58.8893 480.00
59.1936 498.00
59.4979 453.00
59.8021 423.00
60.1064 443.00
60.4106 554.00
60.7149 618.00
61.0192 491.00
61.3234 425.00
61.6277 442.00
61.932 497.00
62.2362 1193.00
62.5405 731.00
62.8447 484.00
63.149 451.00
63.4533 470.00
63.7575 473.00
64.0618 452.00
64.366 424.00
64.6703 483.00
64.9745 1126.00
65.2788 1000.00
65.5831 493.00
65.8873 480.00
66.1916 1066.00
66.4959 1154.00
66.8001 511.00
67.1044 452.00
67.4086 427.00
67.7129 393.00
68.0172 347.00
68.3214 386.00
68.6257 369.00
68.9299 386.00
69.2342 384.00
69.5385 401.00
69.8427 377.00
70.147 405.00
70.4512 375.00
70.7555 378.00
71.0598 405.00
71.364 470.00
71.6683 818.00
71.9725 491.00
72.2768 442.00
72.5811 355.00
72.8853 397.00
73.1896 362.00
73.4938 361.00
73.7981 322.00
74.1024 352.00
74.4066 347.00
74.7109 356.00
75.0151 377.00
75.3194 333.00
75.6237 317.00
75.9279 309.00
76.2322 351.00
76.5364 319.00
76.8407 381.00
77.145 339.00
77.4492 357.00
77.7535 382.00
78.0577 356.00
78.362 355.00
78.6663 416.00
78.9705 1008.00
79.2748 838.00
79.579 414.00
79.8833 371.00
80.1876 362.00
80.4918 373.00
80.7961 379.00
81.1003 393.00
81.4046 563.00
81.7089 479.00
82.0131 361.00
82.3174 353.00
82.6217 379.00
82.9259 360.00
83.2302 315.00
83.5344 391.00
83.8387 540.00
84.143 831.00
84.4472 473.00
84.7515 346.00
85.0557 345.00
85.36 383.00
85.6643 310.00
85.9685 368.00
86.2728 337.00
86.577 317.00
86.8813 315.00
87.1856 384.00
87.4898 526.00
87.7941 483.00
88.0983 373.00
88.4026 348.00
88.7069 397.00
89.0111 364.00
89.3154 319.00
89.6196 384.00
89.9239 663.00
90.2282 839.00
90.5324 528.00
90.8367 511.00
91.1409 855.00
91.4452 702.00
91.7495 463.00
92.0537 345.00
92.358 375.00
92.6622 391.00
92.9665 355.00
93.2708 392.00
93.575 597.00
93.8793 502.00
94.1835 395.00
94.4878 358.00
94.7921 344.00
95.0963 311.00
95.4006 358.00
95.7048 353.00
96.0091 398.00
96.3134 614.00
96.6176 527.00
96.9219 404.00
97.2261 379.00
97.5304 388.00
97.8347 346.00
98.1389 345.00
98.4432 340.00
98.7474 341.00
99.0517 328.00
99.356 365.00
99.6602 358.00
99.9645 299.00
100.095 322.00

File: Na_137.xy
9.903433 2663.00
10.2077 2700.00
10.512 2481.00
10.8162 2363.00
11.1205 2243.00
11.4247 2156.00
11.729 2131.00
12.0333 2025.00
12.3375 1973.00
12.6418 1929.00
12.946 1810.00
13.2503 1755.00
13.5546 1786.00
13.8588 1803.00
14.1631 1820.00
14.4673 1705.00
14.7716 1582.00
15.0759 1521.00
15.3801 1671.00
15.6844 1533.00
15.9886 1553.00
16.2929 1520.00
16.5972 1530.00
16.9014 1374.00
17.2057 1358.00
17.5099 1425.00
17.8142 1407.00
18.1185 1314.00
18.4227 1312.00
18.727 1315.00
19.0312 1393.00
19.3355 1371.00
19.6398 1292.00
19.944 1359.00
20.2483 1531.00
20.5525 1380.00
20.8568 1485.00
21.1611 1372.00
21.4653 1731.00
21.7696 1586.00
22.0738 1598.00
22.3781 1239.00
22.6824 1682.00
22.9866 1279.00
23.2909 1243.00
23.5951 1416.00
23.8994 1681.00
24.2037 1569.00
24.5079 1601.00
24.8122 1141.00
25.1164 1167.00
25.4207 1098.00
25.725 1182.00
26.0292 1565.00
26.3335 3497.00
26.6378 2271.00
26.942 2081.00
27.2463 2027.00
27.5505 3720.00
27.8548 1916.00
28.1591 1179.00
28.4633 1122.00
28.7676 1092.00
29.0718 1494.00
29.3761 1047.00
29.6804 1135.00
29.9846 1050.00
30.2889 1090.00
30.5931 1376.00
30.8974 1996.00
31.2017 1096.00
31.5059 1183.00
31.8102 958.00
32.1144 1066.00
32.4187 1326.00
32.723 982.00
33.0272 903.00
33.3315 1007.00
33.6357 1267.00
33.94 1283.00
34.2443 1554.00
34.5485 1060.00
34.8528 1034.00
35.157 917.00
35.4613 977.00
35.7656 817.00
36.0698 824.00
36.3741 1029.00
36.6783 883.00
36.9826 978.00
37.2869 933.00
37.5911 1039.00
37.8954 1019.00
38.1996 1392.00
38.5039 1152.00
38.8082 924.00
39.1124 841.00
39.4167 868.00
39.7209 1053.00
40.0252 827.00
40.3295 812.00
40.6337 756.00
40.938 952.00
41.2422 792.00
41.5465 831.00
41.8508 662.00
42.155 708.00
42.4593 732.00
42.7635 740.00
43.0678 718.00
43.3721 886.00
43.6763 784.00
43.9806 852.00
44.2849 1048.00
44.5891 881.00
44.8934 843.00
45.1976 1646.00
45.5019 696.00
45.8062 799.00
46.1104 863.00
46.4147 738.00
46.7189 718.00
47.0232 952.00
47.3275 786.00
47.6317 687.00
47.936 648.00
48.2402 710.00
48.5445 706.00
48.8488 899.00
49.153 883.00
49.4573 781.00
49.7615 783.00
50.0658 656.00
50.3701 641.00
50.6743 620.00
50.9786 704.00
51.2828 778.00
51.5871 896.00
51.8914 1182.00
52.1956 1220.00
52.4999 955.00
52.8041 783.00
53.1084 747.00
53.4127 776.00
53.7169 715.00
54.0212 779.00
54.3254 678.00
54.6297 680.00
54.934 762.00
55.2382 751.00
55.5425 734.00
55.8467 627.00
56.151 687.00
56.4553 679.00
56.7595 646.00
57.0638 673.00
57.368 754.00
57.6723 742.00
57.9766 768.00
58.2808 780.00
58.5851 802.00
58.8893 708.00
59.1936 628.00
59.4979 665.00
59.8021 692.00
60.1064 683.00
60.4106 593.00
60.7149 566.00
61.0192 694.00
61.3234 715.00
61.6277 622.00
61.932 701.00
62.2362 712.00
62.5405 755.00
62.8447 749.00
63.149 662.00
63.4533 654.00
63.7575 648.00
64.0618 681.00
64.366 641.00
64.6703 662.00
64.9745 831.00
65.2788 709.00
65.5831 647.00
65.8873 676.00
66.1916 702.00
66.4959 589.00
66.8001 622.00
67.1044 558.00
67.4086 546.00
67.7129 609.00
68.0172 546.00
68.3214 554.00
68.6257 513.00
68.9299 500.00
69.2342 506.00
69.5385 508.00
69.8427 483.00
70.147 469.00
70.4512 489.00
70.7555 525.00
71.0598 539.00
71.364 586.00
71.6683 603.00
71.9725 514.00
72.2768 489.00
72.5811 555.00
72.8853 589.00
73.1896 500.00
73.4938 520.00
73.7981 419.00
74.1024 420.00
74.4066 420.00
74.7109 425.00
75.0151 476.00
75.3194 434.00
75.6237 469.00
75.9279 513.00
76.2322 474.00
76.5364 485.00
76.8407 438.00
77.145 422.00
77.4492 460.00
77.7535 483.00
78.0577 458.00
78.362 488.00
78.6663 566.00
78.9705 631.00
79.2748 531.00
79.579 469.00
79.8833 526.00
80.1876 466.00
80.4918 484.00
80.7961 494.00
81.1003 496.00
81.4046 492.00
81.7089 522.00
82.0131 431.00
82.3174 517.00
82.6217 463.00
82.9259 443.00
83.2302 468.00
83.5344 470.00
83.8387 518.00
84.143 527.00
84.4472 476.00
84.7515 430.00
85.0557 462.00
85.36 471.00
85.6643 463.00
85.9685 481.00
86.2728 472.00
86.577 429.00
86.8813 496.00
87.1856 407.00
87.4898 478.00
87.7941 511.00
88.0983 473.00
88.4026 497.00
88.7069 424.00
89.0111 447.00
89.3154 525.00
89.6196 578.00
89.9239 567.00
90.2282 544.00
90.5324 518.00
90.8367 512.00
91.1409 545.00
91.4452 490.00
91.7495 465.00
92.0537 422.00
92.358 443.00
92.6622 415.00
92.9665 425.00
93.2708 479.00
93.575 468.00
93.8793 402.00
94.1835 443.00
94.4878 426.00
94.7921 449.00
95.0963 446.00
95.4006 473.00
95.7048 540.00
96.0091 466.00
96.3134 485.00
96.6176 487.00
96.9219 468.00
97.2261 449.00
97.5304 470.00
97.8347 392.00
98.1389 395.00
98.4432 451.00
98.7474 425.00
99.0517 398.00
99.356 402.00
99.6602 391.00
99.9645 419.00
100.095 384.00

File: Na_138.xy
9.903433 2750.00
10.2077 2551.00
10.512 2437.00
10.8162 2295.00
11.1205 2372.00
11.4247 2166.00
11.729 2105.00
12.0333 1989.00
12.3375 1986.00
12.6418 1982.00
12.946 1920.00
13.2503 1878.00
13.5546 1796.00
13.8588 1693.00
14.1631 1875.00
14.4673 1694.00
14.7716 1685.00
15.0759 1607.00
15.3801 1594.00
15.6844 1492.00
15.9886 1503.00
16.2929 1501.00
16.5972 1486.00
16.9014 1464.00
17.2057 1439.00
17.5099 1413.00
17.8142 1441.00
18.1185 1412.00
18.4227 1448.00
18.727 1393.00
19.0312 1380.00
19.3355 1383.00
19.6398 1362.00
19.944 1282.00
20.2483 1537.00
20.5525 1287.00
20.8568 1491.00
21.1611 1458.00
21.4653 1696.00
21.7696 1553.00
22.0738 1511.00
22.3781 1242.00
22.6824 1821.00
22.9866 1230.00
23.2909 1189.00
23.5951 1559.00
23.8994 1710.00
24.2037 1588.00
24.5079 1521.00
24.8122 1138.00
25.1164 1135.00
25.4207 1100.00
25.725 1264.00
26.0292 1595.00
26.3335 3655.00
26.6378 2187.00
26.942 1863.00
27.2463 1841.00
27.5505 3675.00
27.8548 1788.00
28.1591 1142.00
28.4633 1109.00
28.7676 1122.00
29.0718 1594.00
29.3761 1056.00
29.6804 1096.00
29.9846 1067.00
30.2889 1086.00
30.5931 1307.00
30.8974 1947.00
31.2017 1043.00
31.5059 1095.00
31.8102 972.00
32.1144 1020.00
32.4187 1177.00
32.723 912.00
33.0272 953.00
33.3315 956.00
33.6357 1219.00
33.94 1211.00
34.2443 1362.00
34.5485 1063.00
34.8528 933.00
35.157 860.00
35.4613 971.00
35.7656 779.00
36.0698 775.00
36.3741 1011.00
36.6783 896.00
36.9826 916.00
37.2869 912.00
37.5911 1073.00
37.8954 979.00
38.1996 1349.00
38.5039 1094.00
38.8082 884.00
39.1124 804.00
39.4167 891.00
39.7209 1142.00
40.0252 888.00
40.3295 759.00
40.6337 785.00
40.938 955.00
41.2422 717.00
41.5465 770.00
41.8508 607.00
42.155 645.00
42.4593 666.00
42.7635 655.00
43.0678 684.00
43.3721 841.00
43.6763 824.00
43.9806 785.00
44.2849 1034.00
44.5891 838.00
44.8934 920.00
45.1976 1413.00
45.5019 719.00
45.8062 813.00
46.1104 879.00
46.4147 788.00
46.7189 750.00
47.0232 990.00
47.3275 748.00
47.6317 688.00
47.936 563.00
48.2402 620.00
48.5445 712.00
48.8488 861.00
49.153 873.00
49.4573 748.00
49.7615 707.00
50.0658 604.00
50.3701 667.00
50.6743 580.00
50.9786 705.00
51.2828 691.00
51.5871 802.00
51.8914 955.00
52.1956 1131.00
52.4999 876.00
52.8041 787.00
53.1084 712.00
53.4127 807.00
53.7169 656.00
54.0212 688.00
54.3254 640.00
54.6297 623.00
54.934 788.00
55.2382 701.00
55.5425 749.00
55.8467 559.00
56.151 688.00
56.4553 670.00
56.7595 671.00
57.0638 651.00
57.368 705.00
57.6723 695.00
57.9766 724.00
58.2808 742.00
58.5851 683.00
58.8893 692.00
59.1936 573.00
59.4979 617.00
59.8021 605.00
60.1064 643.00
60.4106 521.00
60.7149 586.00
61.0192 615.00
61.3234 655.00
61.6277 638.00
61.932 665.00
62.2362 650.00
62.5405 727.00
62.8447 692.00
63.149 657.00
63.4533 632.00
63.7575 599.00
64.0618 641.00
64.366 600.00
64.6703 664.00
64.9745 816.00
65.2788 630.00
65.5831 645.00
65.8873 621.00
66.1916 644.00
66.4959 550.00
66.8001 536.00
67.1044 543.00
67.4086 506.00
67.7129 541.00
68.0172 525.00
68.3214 501.00
68.6257 461.00
68.9299 502.00
69.2342 505.00
69.5385 486.00
69.8427 530.00
70.147 492.00
70.4512 463.00
70.7555 510.00
71.0598 545.00
71.364 579.00
71.6683 551.00
71.9725 504.00
72.2768 491.00
72.5811 514.00
72.8853 632.00
73.1896 501.00
73.4938 532.00
73.7981 442.00
74.1024 423.00
74.4066 438.00
74.7109 436.00
75.0151 419.00
75.3194 473.00
75.6237 425.00
75.9279 532.00
76.2322 454.00
76.5364 484.00
76.8407 381.00
77.145 428.00
77.4492 442.00
77.7535 475.00
78.0577 434.00
78.362 482.00
78.6663 459.00
78.9705 576.00
79.2748 468.00
79.579 484.00
79.8833 538.00
80.1876 449.00
80.4918 485.00
80.7961 473.00
81.1003 477.00
81.4046 508.00
81.7089 449.00
82.0131 464.00
82.3174 438.00
82.6217 417.00
82.9259 420.00
83.2302 421.00
83.5344 474.00
83.8387 491.00
84.143 489.00
84.4472 415.00
84.7515 455.00
85.0557 454.00
85.36 432.00
85.6643 440.00
85.9685 400.00
86.2728 437.00
86.577 355.00
86.8813 404.00
87.1856 401.00
87.4898 431.00
87.7941 447.00
88.0983 475.00
88.4026 480.00
88.7069 471.00
89.0111 431.00
89.3154 441.00
89.6196 596.00
89.9239 537.00
90.2282 507.00
90.5324 460.00
90.8367 441.00
91.1409 491.00
91.4452 458.00
91.7495 440.00
92.0537 463.00
92.358 468.00
92.6622 438.00
92.9665 433.00
93.2708 453.00
93.575 410.00
93.8793 388.00
94.1835 381.00
94.4878 430.00
94.7921 443.00
95.0963 464.00
95.4006 471.00
95.7048 547.00
96.0091 430.00
96.3134 435.00
96.6176 481.00
96.9219 471.00
97.2261 432.00
97.5304 445.00
97.8347 445.00
98.1389 395.00
98.4432 415.00
98.7474 394.00
99.0517 403.00
99.356 441.00
99.6602 423.00
99.9645 369.00
100.095 405.00