Folder: alab-pipeline/data/xrd_creation/results (part 3)

File: MINES_9.xy
9.903433 2715.00
10.2077 2521.00
10.512 2296.00
10.8162 2320.00
11.1205 2300.00
11.4247 2086.00
11.729 2020.00
12.0333 1870.00
12.3375 1869.00
12.6418 1799.00
12.946 1732.00
13.2503 1684.00
13.5546 1621.00
13.8588 1544.00
14.1631 1532.00
14.4673 1468.00
14.7716 1510.00
15.0759 1387.00
15.3801 1488.00
15.6844 1373.00
15.9886 1260.00
16.2929 1342.00
16.5972 1317.00
16.9014 1271.00
17.2057 1310.00
17.5099 1253.00
17.8142 1159.00
18.1185 1186.00
18.4227 1281.00
18.727 1289.00
19.0312 1070.00
19.3355 1537.00
19.6398 1040.00
19.944 993.00
20.2483 1052.00
20.5525 1076.00
20.8568 1011.00
21.1611 933.00
21.4653 981.00
21.7696 920.00
22.0738 911.00
22.3781 930.00
22.6824 1249.00
22.9866 1748.00
23.2909 865.00
23.5951 846.00
23.8994 799.00
24.2037 793.00
24.5079 784.00
24.8122 823.00
25.1164 806.00
25.4207 1588.00
25.725 4134.00
26.0292 1193.00
26.3335 1476.00
26.6378 1034.00
26.942 843.00
27.2463 735.00
27.5505 794.00
27.8548 830.00
28.1591 976.00
28.4633 900.00
28.7676 978.00
29.0718 799.00
29.3761 704.00
29.6804 705.00
29.9846 835.00
30.2889 657.00
30.5931 695.00
30.8974 634.00
31.2017 635.00
31.5059 674.00
31.8102 690.00
32.1144 683.00
32.4187 590.00
32.723 664.00
33.0272 605.00
33.3315 621.00
33.6357 712.00
33.94 620.00
34.2443 562.00
34.5485 494.00
34.8528 450.00
35.157 530.00
35.4613 515.00
35.7656 492.00
36.0698 509.00
36.3741 463.00
36.6783 446.00
36.9826 470.00
37.2869 472.00
37.5911 478.00
37.8954 486.00
38.1996 455.00
38.5039 423.00
38.8082 470.00
39.1124 418.00
39.4167 537.00
39.7209 472.00
40.0252 429.00
40.3295 410.00
40.6337 401.00
40.938 358.00
41.2422 383.00
41.5465 371.00
41.8508 416.00
42.155 380.00
42.4593 406.00
42.7635 433.00
43.0678 475.00
43.3721 406.00
43.6763 380.00
43.9806 362.00
44.2849 373.00
44.5891 336.00
44.8934 361.00
45.1976 367.00
45.5019 354.00
45.8062 349.00
46.1104 307.00
46.4147 317.00
46.7189 401.00
47.0232 440.00
47.3275 448.00
47.6317 345.00
47.936 403.00
48.2402 499.00
48.5445 614.00
48.8488 543.00
49.153 349.00
49.4573 369.00
49.7615 357.00
50.0658 354.00
50.3701 316.00
50.6743 335.00
50.9786 335.00
51.2828 334.00
51.5871 412.00
51.8914 352.00
52.1956 314.00
52.4999 329.00
52.8041 340.00
53.1084 311.00
53.4127 298.00
53.7169 284.00
54.0212 345.00
54.3254 366.00
54.6297 323.00
54.934 303.00
55.2382 304.00
55.5425 368.00
55.8467 361.00
56.151 361.00
56.4553 315.00
56.7595 273.00
57.0638 269.00
57.368 308.00
57.6723 285.00
57.9766 249.00
58.2808 267.00
58.5851 286.00
58.8893 281.00
59.1936 298.00
59.4979 259.00
59.8021 244.00
60.1064 260.00
60.4106 289.00
60.7149 267.00
61.0192 242.00
61.3234 259.00
61.6277 265.00
61.932 266.00
62.2362 276.00
62.5405 264.00
62.8447 247.00
63.149 269.00
63.4533 248.00
63.7575 265.00
64.0618 262.00
64.366 246.00
64.6703 284.00
64.9745 247.00
65.2788 266.00
65.5831 271.00
65.8873 265.00
66.1916 290.00
66.4959 219.00
66.8001 281.00
67.1044 285.00
67.4086 274.00
67.7129 268.00
68.0172 256.00
68.3214 238.00
68.6257 266.00
68.9299 237.00
69.2342 227.00
69.5385 215.00
69.8427 236.00
70.147 240.00
70.4512 235.00
70.7555 245.00
71.0598 256.00
71.364 282.00
71.6683 248.00
71.9725 249.00
72.2768 240.00
72.5811 206.00
72.8853 242.00
73.1896 220.00
73.4938 229.00
73.7981 226.00
74.1024 243.00
74.4066 246.00
74.7109 245.00
75.0151 267.00
75.3194 240.00
75.6237 284.00
75.9279 258.00
76.2322 257.00
76.5364 239.00
76.8407 245.00
77.145 291.00
77.4492 303.00
77.7535 264.00
78.0577 293.00
78.362 299.00
78.6663 280.00
78.9705 272.00
79.2748 278.00
79.579 289.00
79.8833 257.00
80.1876 274.00
80.4918 257.00
80.7961 278.00
81.1003 266.00
81.4046 268.00
81.7089 280.00
82.0131 233.00
82.3174 244.00
82.6217 241.00
82.9259 232.00
83.2302 214.00
83.5344 245.00
83.8387 270.00
84.143 223.00
84.4472 234.00
84.7515 226.00
85.0557 241.00
85.36 224.00
85.6643 239.00
85.9685 211.00
86.2728 235.00
86.577 205.00
86.8813 211.00
87.1856 230.00
87.4898 274.00
87.7941 220.00
88.0983 216.00
88.4026 245.00
88.7069 205.00
89.0111 199.00
89.3154 251.00
89.6196 232.00
89.9239 235.00
90.2282 211.00
90.5324 224.00
90.8367 233.00
91.1409 211.00
91.4452 187.00
91.7495 182.00
92.0537 218.00
92.358 187.00
92.6622 219.00
92.9665 211.00
93.2708 215.00
93.575 207.00
93.8793 175.00
94.1835 220.00
94.4878 215.00
94.7921 206.00
95.0963 201.00
95.4006 213.00
95.7048 207.00
96.0091 207.00
96.3134 205.00
96.6176 248.00
96.9219 195.00
97.2261 221.00
97.5304 221.00
97.8347 194.00
98.1389 221.00
98.4432 200.00
98.7474 190.00
99.0517 225.00
99.356 201.00
99.6602 194.00
99.9645 199.00
100.095 192.00

File: MINES_10.xy
9.903433 2941.00
10.2077 2754.00
10.512 2754.00
10.8162 2616.00
11.1205 2513.00
11.4247 2286.00
11.729 2365.00
12.0333 2250.00
12.3375 2155.00
12.6418 2163.00
12.946 2059.00
13.2503 2115.00
13.5546 1922.00
13.8588 1989.00
14.1631 1957.00
14.4673 2314.00
14.7716 1783.00
15.0759 1841.00
15.3801 1787.00
15.6844 1759.00
15.9886 1691.00
16.2929 1717.00
16.5972 1738.00
16.9014 1690.00
17.2057 1641.00
17.5099 1594.00
17.8142 1587.00
18.1185 1623.00
18.4227 1821.00
18.727 3182.00
19.0312 1838.00
19.3355 1711.00
19.6398 1460.00
19.944 1516.00
20.2483 1597.00
20.5525 1831.00
20.8568 2115.00
21.1611 3390.00
21.4653 1492.00
21.7696 1536.00
22.0738 1679.00
22.3781 1502.00
22.6824 1357.00
22.9866 1374.00
23.2909 1361.00
23.5951 1256.00
23.8994 1555.00
24.2037 1478.00
24.5079 1651.00
24.8122 3776.00
25.1164 2330.00
25.4207 1328.00
25.725 1674.00
26.0292 1471.00
26.3335 1436.00
26.6378 2813.00
26.942 12592.00
27.2463 2639.00
27.5505 1369.00
27.8548 1413.00
28.1591 1217.00
28.4633 1254.00
28.7676 1212.00
29.0718 1196.00
29.3761 1167.00
29.6804 1181.00
29.9846 1146.00
30.2889 1666.00
30.5931 2137.00
30.8974 1198.00
31.2017 1203.00
31.5059 1145.00
31.8102 1694.00
32.1144 1441.00
32.4187 1067.00
32.723 1104.00
33.0272 1271.00
33.3315 1826.00
33.6357 1382.00
33.94 4255.00
34.2443 1103.00
34.5485 1056.00
34.8528 993.00
35.157 1083.00
35.4613 1105.00
35.7656 1034.00
36.0698 1342.00
36.3741 2657.00
36.6783 3020.00
36.9826 1447.00
37.2869 1015.00
37.5911 1080.00
37.8954 1677.00
38.1996 1318.00
38.5039 1225.00
38.8082 1405.00
39.1124 1062.00
39.4167 1052.00
39.7209 1774.00
40.0252 1216.00
40.3295 1064.00
40.6337 1308.00
40.938 929.00
41.2422 1030.00
41.5465 1082.00
41.8508 1710.00
42.155 935.00
42.4593 1077.00
42.7635 1883.00
43.0678 987.00
43.3721 1142.00
43.6763 1292.00
43.9806 1477.00
44.2849 2030.00
44.5891 1242.00
44.8934 931.00
45.1976 915.00
45.5019 968.00
45.8062 942.00
46.1104 1263.00
46.4147 1071.00
46.7189 934.00
47.0232 893.00
47.3275 848.00
47.6317 924.00
47.936 1075.00
48.2402 1313.00
48.5445 969.00
48.8488 908.00
49.153 1034.00
49.4573 925.00
49.7615 965.00
50.0658 1073.00
50.3701 2662.00
50.6743 1675.00
50.9786 977.00
51.2828 921.00
51.5871 914.00
51.8914 966.00
52.1956 894.00
52.4999 843.00
52.8041 877.00
53.1084 849.00
53.4127 900.00
53.7169 919.00
54.0212 873.00
54.3254 859.00
54.6297 1100.00
54.934 1671.00
55.2382 2937.00
55.5425 1166.00
55.8467 960.00
56.151 846.00
56.4553 877.00
56.7595 935.00
57.0638 1517.00
57.368 991.00
57.6723 927.00
57.9766 1028.00
58.2808 1334.00
58.5851 1051.00
58.8893 984.00
59.1936 1002.00
59.4979 1036.00
59.8021 973.00
60.1064 1404.00
60.4106 1329.00
60.7149 1054.00
61.0192 898.00
61.3234 861.00
61.6277 816.00
61.932 1008.00
62.2362 951.00
62.5405 982.00
62.8447 923.00
63.149 1013.00
63.4533 1164.00
63.7575 1999.00
64.0618 1009.00
64.366 1259.00
64.6703 993.00
64.9745 944.00
65.2788 1669.00
65.5831 1452.00
65.8873 933.00
66.1916 897.00
66.4959 886.00
66.8001 900.00
67.1044 814.00
67.4086 935.00
67.7129 1162.00
68.0172 1480.00
68.3214 1540.00
68.6257 1457.00
68.9299 927.00
69.2342 985.00
69.5385 985.00
69.8427 1030.00
70.147 1096.00
70.4512 881.00
70.7555 863.00
71.0598 919.00
71.364 983.00
71.6683 924.00
71.9725 802.00
72.2768 845.00
72.5811 860.00
72.8853 1016.00
73.1896 1449.00
73.4938 1050.00
73.7981 1068.00
74.1024 870.00
74.4066 838.00
74.7109 829.00
75.0151 813.00
75.3194 815.00
75.6237 787.00
75.9279 1118.00
76.2322 1046.00
76.5364 946.00
76.8407 928.00
77.145 1206.00
77.4492 1034.00
77.7535 963.00
78.0577 953.00
78.362 851.00
78.6663 837.00
78.9705 826.00
79.2748 978.00
79.579 861.00
79.8833 856.00
80.1876 1082.00
80.4918 922.00
80.7961 845.00
81.1003 984.00
81.4046 1128.00
81.7089 1113.00
82.0131 881.00
82.3174 930.00
82.6217 892.00
82.9259 931.00
83.2302 877.00
83.5344 834.00
83.8387 866.00
84.143 903.00
84.4472 1030.00
84.7515 899.00
85.0557 800.00
85.36 787.00
85.6643 841.00
85.9685 899.00
86.2728 824.00
86.577 904.00
86.8813 855.00
87.1856 783.00
87.4898 795.00
87.7941 800.00
88.0983 760.00
88.4026 782.00
88.7069 819.00
89.0111 864.00
89.3154 782.00
89.6196 808.00
89.9239 788.00
90.2282 893.00
90.5324 1040.00
90.8367 1031.00
91.1409 888.00
91.4452 854.00
91.7495 817.00
92.0537 808.00
92.358 809.00
92.6622 796.00
92.9665 769.00
93.2708 788.00
93.575 786.00
93.8793 898.00
94.1835 845.00
94.4878 796.00
94.7921 933.00
95.0963 959.00
95.4006 1050.00
95.7048 1000.00
96.0091 897.00
96.3134 893.00
96.6176 840.00
96.9219 933.00
97.2261 870.00
97.5304 853.00
97.8347 908.00
98.1389 822.00
98.4432 912.00
98.7474 849.00
99.0517 911.00
99.356 838.00
99.6602 738.00
99.9645 825.00
100.095 838.00

File: MINES_11.xy
9.903433 2581.00
10.2077 2594.00
10.512 2483.00
10.8162 2289.00
11.1205 2224.00
11.4247 2086.00
11.729 2049.00
12.0333 1972.00
12.3375 1832.00
12.6418 1806.00
12.946 1679.00
13.2503 1648.00
13.5546 1512.00
13.8588 1610.00
14.1631 1461.00
14.4673 1501.00
14.7716 1397.00
15.0759 1403.00
15.3801 1464.00
15.6844 1345.00
15.9886 1342.00
16.2929 1365.00
16.5972 1261.00
16.9014 1248.00
17.2057 1188.00
17.5099 1262.00
17.8142 1129.00
18.1185 1108.00
18.4227 1157.00
18.727 1066.00
19.0312 1091.00
19.3355 1352.00
19.6398 1143.00
19.944 979.00
20.2483 1066.00
20.5525 1125.00
20.8568 1102.00
21.1611 917.00
21.4653 907.00
21.7696 845.00
22.0738 865.00
22.3781 858.00
22.6824 1200.00
22.9866 1220.00
23.2909 843.00
23.5951 941.00
23.8994 1033.00
24.2037 966.00
24.5079 968.00
24.8122 1423.00
25.1164 1430.00
25.4207 2372.00
25.725 2552.00
26.0292 1060.00
26.3335 1341.00
26.6378 1249.00
26.942 711.00
27.2463 683.00
27.5505 722.00
27.8548 655.00
28.1591 769.00
28.4633 769.00
28.7676 642.00
29.0718 602.00
29.3761 610.00
29.6804 607.00
29.9846 596.00
30.2889 607.00
30.5931 622.00
30.8974 548.00
31.2017 579.00
31.5059 608.00
31.8102 546.00
32.1144 591.00
32.4187 547.00
32.723 550.00
33.0272 558.00
33.3315 526.00
33.6357 485.00
33.94 528.00
34.2443 524.00
34.5485 520.00
34.8528 451.00
35.157 504.00
35.4613 483.00
35.7656 478.00
36.0698 497.00
36.3741 486.00
36.6783 502.00
36.9826 462.00
37.2869 532.00
37.5911 563.00
37.8954 458.00
38.1996 499.00
38.5039 409.00
38.8082 428.00
39.1124 454.00
39.4167 524.00
39.7209 438.00
40.0252 453.00
40.3295 382.00
40.6337 386.00
40.938 344.00
41.2422 367.00
41.5465 349.00
41.8508 349.00
42.155 344.00
42.4593 349.00
42.7635 380.00
43.0678 408.00
43.3721 386.00
43.6763 326.00
43.9806 403.00
44.2849 335.00
44.5891 319.00
44.8934 357.00
45.1976 368.00
45.5019 362.00
45.8062 381.00
46.1104 341.00
46.4147 325.00
46.7189 341.00
47.0232 336.00
47.3275 339.00
47.6317 386.00
47.936 360.00
48.2402 398.00
48.5445 380.00
48.8488 362.00
49.153 331.00
49.4573 316.00
49.7615 348.00
50.0658 362.00
50.3701 312.00
50.6743 305.00
50.9786 277.00
51.2828 312.00
51.5871 290.00
51.8914 288.00
52.1956 294.00
52.4999 274.00
52.8041 279.00
53.1084 297.00
53.4127 293.00
53.7169 263.00
54.0212 282.00
54.3254 266.00
54.6297 270.00
54.934 250.00
55.2382 256.00
55.5425 316.00
55.8467 299.00
56.151 317.00
56.4553 271.00
56.7595 245.00
57.0638 229.00
57.368 260.00
57.6723 236.00
57.9766 231.00
58.2808 227.00
58.5851 228.00
58.8893 228.00
59.1936 279.00
59.4979 224.00
59.8021 250.00
60.1064 232.00
60.4106 261.00
60.7149 246.00
61.0192 267.00
61.3234 208.00
61.6277 241.00
61.932 212.00
62.2362 237.00
62.5405 217.00
62.8447 229.00
63.149 246.00
63.4533 234.00
63.7575 274.00
64.0618 274.00
64.366 217.00
64.6703 249.00
64.9745 245.00
65.2788 231.00
65.5831 230.00
65.8873 261.00
66.1916 229.00
66.4959 259.00
66.8001 249.00
67.1044 243.00
67.4086 225.00
67.7129 244.00
68.0172 223.00
68.3214 244.00
68.6257 237.00
68.9299 232.00
69.2342 215.00
69.5385 256.00
69.8427 208.00
70.147 225.00
70.4512 198.00
70.7555 228.00
71.0598 234.00
71.364 225.00
71.6683 206.00
71.9725 202.00
72.2768 226.00
72.5811 199.00
72.8853 202.00
73.1896 219.00
73.4938 189.00
73.7981 208.00
74.1024 219.00
74.4066 216.00
74.7109 230.00
75.0151 224.00
75.3194 225.00
75.6237 236.00
75.9279 249.00
76.2322 212.00
76.5364 211.00
76.8407 221.00
77.145 258.00
77.4492 235.00
77.7535 277.00
78.0577 229.00
78.362 278.00
78.6663 232.00
78.9705 234.00
79.2748 233.00
79.579 183.00
79.8833 215.00
80.1876 245.00
80.4918 256.00
80.7961 264.00
81.1003 221.00
81.4046 248.00
81.7089 208.00
82.0131 221.00
82.3174 215.00
82.6217 233.00
82.9259 233.00
83.2302 235.00
83.5344 245.00
83.8387 257.00
84.143 223.00
84.4472 266.00
84.7515 230.00
85.0557 223.00
85.36 260.00
85.6643 224.00
85.9685 232.00
86.2728 196.00
86.577 207.00
86.8813 210.00
87.1856 201.00
87.4898 221.00
87.7941 222.00
88.0983 235.00
88.4026 201.00
88.7069 192.00
89.0111 199.00
89.3154 202.00
89.6196 218.00
89.9239 178.00
90.2282 201.00
90.5324 210.00
90.8367 215.00
91.1409 199.00
91.4452 195.00
91.7495 200.00
92.0537 216.00
92.358 197.00
92.6622 182.00
92.9665 214.00
93.2708 199.00
93.575 199.00
93.8793 209.00
94.1835 212.00
94.4878 183.00
94.7921 192.00
95.0963 193.00
95.4006 185.00
95.7048 209.00
96.0091 178.00
96.3134 184.00
96.6176 222.00
96.9219 204.00
97.2261 181.00
97.5304 190.00
97.8347 204.00
98.1389 174.00
98.4432 168.00
98.7474 198.00
99.0517 194.00
99.356 214.00
99.6602 171.00
99.9645 189.00
100.095 171.00

File: MINES_12.xy
9.903433 2872.00
10.2077 2563.00
10.512 2493.00
10.8162 2384.00
11.1205 2216.00
11.4247 2101.00
11.729 2151.00
12.0333 2035.00
12.3375 1867.00
12.6418 1823.00
12.946 1800.00
13.2503 1719.00
13.5546 1639.00
13.8588 1591.00
14.1631 1810.00
14.4673 1862.00
14.7716 1543.00
15.0759 1540.00
15.3801 1486.00
15.6844 1424.00
15.9886 1454.00
16.2929 1438.00
16.5972 1381.00
16.9014 1273.00
17.2057 1275.00
17.5099 1305.00
17.8142 1218.00
18.1185 1196.00
18.4227 1260.00
18.727 1192.00
19.0312 1183.00
19.3355 1208.00
19.6398 1201.00
19.944 1244.00
20.2483 1377.00
20.5525 1414.00
20.8568 1444.00
21.1611 1001.00
21.4653 1042.00
21.7696 987.00
22.0738 961.00
22.3781 986.00
22.6824 992.00
22.9866 1087.00
23.2909 1037.00
23.5951 977.00
23.8994 1159.00
24.2037 992.00
24.5079 1152.00
24.8122 1404.00
25.1164 1262.00
25.4207 2202.00
25.725 2149.00
26.0292 1125.00
26.3335 1466.00
26.6378 1551.00
26.942 868.00
27.2463 806.00
27.5505 924.00
27.8548 851.00
28.1591 823.00
28.4633 830.00
28.7676 897.00
29.0718 836.00
29.3761 710.00
29.6804 755.00
29.9846 1006.00
30.2889 1815.00
30.5931 889.00
30.8974 723.00
31.2017 704.00
31.5059 978.00
31.8102 1370.00
32.1144 722.00
32.4187 642.00
32.723 716.00
33.0272 667.00
33.3315 678.00
33.6357 950.00
33.94 686.00
34.2443 659.00
34.5485 573.00
34.8528 623.00
35.157 650.00
35.4613 620.00
35.7656 689.00
36.0698 871.00
36.3741 1045.00
36.6783 760.00
36.9826 604.00
37.2869 642.00
37.5911 858.00
37.8954 808.00
38.1996 682.00
38.5039 550.00
38.8082 525.00
39.1124 579.00
39.4167 663.00
39.7209 605.00
40.0252 598.00
40.3295 517.00
40.6337 478.00
40.938 486.00
41.2422 539.00
41.5465 539.00
41.8508 492.00
42.155 549.00
42.4593 708.00
42.7635 601.00
43.0678 559.00
43.3721 688.00
43.6763 622.00
43.9806 583.00
44.2849 530.00
44.5891 456.00
44.8934 467.00
45.1976 524.00
45.5019 505.00
45.8062 487.00
46.1104 597.00
46.4147 464.00
46.7189 446.00
47.0232 460.00
47.3275 479.00
47.6317 566.00
47.936 732.00
48.2402 648.00
48.5445 469.00
48.8488 532.00
49.153 524.00
49.4573 509.00
49.7615 517.00
50.0658 487.00
50.3701 520.00
50.6743 441.00
50.9786 434.00
51.2828 402.00
51.5871 488.00
51.8914 459.00
52.1956 413.00
52.4999 458.00
52.8041 413.00
53.1084 427.00
53.4127 455.00
53.7169 361.00
54.0212 413.00
54.3254 428.00
54.6297 496.00
54.934 556.00
55.2382 404.00
55.5425 422.00
55.8467 438.00
56.151 485.00
56.4553 432.00
56.7595 631.00
57.0638 593.00
57.368 468.00
57.6723 390.00
57.9766 512.00
58.2808 524.00
58.5851 420.00
58.8893 368.00
59.1936 402.00
59.4979 444.00
59.8021 513.00
60.1064 397.00
60.4106 404.00
60.7149 399.00
61.0192 396.00
61.3234 403.00
61.6277 410.00
61.932 414.00
62.2362 437.00
62.5405 409.00
62.8447 393.00
63.149 489.00
63.4533 454.00
63.7575 423.00
64.0618 374.00
64.366 373.00
64.6703 416.00
64.9745 454.00
65.2788 551.00
65.5831 449.00
65.8873 415.00
66.1916 412.00
66.4959 377.00
66.8001 389.00
67.1044 392.00
67.4086 371.00
67.7129 411.00
68.0172 408.00
68.3214 385.00
68.6257 345.00
68.9299 373.00
69.2342 431.00
69.5385 383.00
69.8427 493.00
70.147 402.00
70.4512 365.00
70.7555 378.00
71.0598 393.00
71.364 422.00
71.6683 346.00
71.9725 327.00
72.2768 383.00
72.5811 358.00
72.8853 355.00
73.1896 363.00
73.4938 331.00
73.7981 351.00
74.1024 392.00
74.4066 329.00
74.7109 368.00
75.0151 347.00
75.3194 345.00
75.6237 333.00
75.9279 340.00
76.2322 356.00
76.5364 357.00
76.8407 370.00
77.145 445.00
77.4492 394.00
77.7535 448.00
78.0577 406.00
78.362 367.00
78.6663 347.00
78.9705 355.00
79.2748 353.00
79.579 390.00
79.8833 336.00
80.1876 341.00
80.4918 410.00
80.7961 403.00
81.1003 393.00
81.4046 377.00
81.7089 321.00
82.0131 353.00
82.3174 336.00
82.6217 335.00
82.9259 344.00
83.2302 334.00
83.5344 362.00
83.8387 348.00
84.143 349.00
84.4472 324.00
84.7515 339.00
85.0557 333.00
85.36 362.00
85.6643 297.00
85.9685 305.00
86.2728 338.00
86.577 311.00
86.8813 308.00
87.1856 285.00
87.4898 307.00
87.7941 314.00
88.0983 321.00
88.4026 275.00
88.7069 342.00
89.0111 305.00
89.3154 280.00
89.6196 309.00
89.9239 302.00
90.2282 337.00
90.5324 325.00
90.8367 310.00
91.1409 304.00
91.4452 320.00
91.7495 299.00
92.0537 295.00
92.358 300.00
92.6622 298.00
92.9665 298.00
93.2708 281.00
93.575 308.00
93.8793 312.00
94.1835 307.00
94.4878 302.00
94.7921 314.00
95.0963 332.00
95.4006 344.00
95.7048 302.00
96.0091 344.00
96.3134 284.00
96.6176 302.00
96.9219 301.00
97.2261 306.00
97.5304 321.00
97.8347 328.00
98.1389 327.00
98.4432 357.00
98.7474 305.00
99.0517 327.00
99.356 296.00
99.6602 285.00
99.9645 294.00
100.095 317.00

File: MINES_13.xy
9.903433 3160.00
10.2077 2985.00
10.512 2846.00
10.8162 2684.00
11.1205 2786.00
11.4247 2586.00
11.729 2472.00
12.0333 2461.00
12.3375 2437.00
12.6418 2299.00
12.946 2274.00
13.2503 2245.00
13.5546 2171.00
13.8588 2146.00
14.1631 2087.00
14.4673 2047.00
14.7716 2030.00
15.0759 2036.00
15.3801 1991.00
15.6844 1993.00
15.9886 1970.00
16.2929 2043.00
16.5972 1940.00
16.9014 1903.00
17.2057 1879.00
17.5099 1897.00
17.8142 1762.00
18.1185 1788.00
18.4227 1870.00
18.727 1869.00
19.0312 1897.00
19.3355 1761.00
19.6398 1753.00
19.944 1799.00
20.2483 1720.00
20.5525 1811.00
20.8568 1867.00
21.1611 1747.00
21.4653 1879.00
21.7696 2830.00
22.0738 3997.00
22.3781 1788.00
22.6824 1799.00
22.9866 1736.00
23.2909 1919.00
23.5951 1950.00
23.8994 2984.00
24.2037 2092.00
24.5079 2220.00
24.8122 3369.00
25.1164 1974.00
25.4207 1830.00
25.725 1754.00
26.0292 1675.00
26.3335 1652.00
26.6378 1841.00
26.942 1629.00
27.2463 1625.00
27.5505 1610.00
27.8548 1618.00
28.1591 1635.00
28.4633 1752.00
28.7676 1533.00
29.0718 1560.00
29.3761 1555.00
29.6804 1621.00
29.9846 1563.00
30.2889 1588.00
30.5931 1656.00
30.8974 1674.00
31.2017 1640.00
31.5059 1752.00
31.8102 1544.00
32.1144 1563.00
32.4187 1556.00
32.723 1879.00
33.0272 7855.00
33.3315 1865.00
33.6357 1549.00
33.94 1533.00
34.2443 1397.00
34.5485 1503.00
34.8528 1482.00
35.157 1430.00
35.4613 1453.00
35.7656 1585.00
36.0698 1821.00
36.3741 1676.00
36.6783 1498.00
36.9826 1536.00
37.2869 1452.00
37.5911 2046.00
37.8954 1636.00
38.1996 2741.00
38.5039 1917.00
38.8082 1512.00
39.1124 1486.00
39.4167 1639.00
39.7209 1517.00
40.0252 1444.00
40.3295 1392.00
40.6337 1508.00
40.938 1453.00
41.2422 1370.00
41.5465 1372.00
41.8508 1731.00
42.155 1983.00
42.4593 1581.00
42.7635 1554.00
43.0678 1366.00
43.3721 1332.00
43.6763 1404.00
43.9806 1552.00
44.2849 1420.00
44.5891 1462.00
44.8934 1593.00
45.1976 1479.00
45.5019 1570.00
45.8062 1450.00
46.1104 1755.00
46.4147 1519.00
46.7189 1482.00
47.0232 1537.00
47.3275 1488.00
47.6317 1409.00
47.936 1407.00
48.2402 1427.00
48.5445 1745.00
48.8488 1580.00
49.153 1517.00
49.4573 1534.00
49.7615 1480.00
50.0658 1391.00
50.3701 1595.00
50.6743 1692.00
50.9786 1509.00
51.2828 1490.00
51.5871 1399.00
51.8914 1416.00
52.1956 1461.00
52.4999 1503.00
52.8041 1693.00
53.1084 1475.00
53.4127 1440.00
53.7169 1444.00
54.0212 1437.00
54.3254 1483.00
54.6297 1503.00
54.934 1691.00
55.2382 2995.00
55.5425 2550.00
55.8467 1553.00
56.151 1487.00
56.4553 1443.00
56.7595 1449.00
57.0638 1564.00
57.368 1515.00
57.6723 1403.00
57.9766 1458.00
58.2808 1406.00
58.5851 1513.00
58.8893 1399.00
59.1936 1437.00
59.4979 1403.00
59.8021 1522.00
60.1064 1730.00
60.4106 1651.00
60.7149 1580.00
61.0192 1567.00
61.3234 1465.00
61.6277 1563.00
61.932 1602.00
62.2362 1476.00
62.5405 1548.00
62.8447 1499.00
63.149 1687.00
63.4533 1708.00
63.7575 1649.00
64.0618 1463.00
64.366 1393.00
64.6703 1576.00
64.9745 1595.00
65.2788 1632.00
65.5831 2025.00
65.8873 2439.00
66.1916 2245.00
66.4959 1702.00
66.8001 1497.00
67.1044 1444.00
67.4086 1502.00
67.7129 1540.00
68.0172 1520.00
68.3214 1867.00
68.6257 1664.00
68.9299 1692.00
69.2342 1908.00
69.5385 1652.00
69.8427 1538.00
70.147 1438.00
70.4512 1539.00
70.7555 1505.00
71.0598 1422.00
71.364 1446.00
71.6683 1427.00
71.9725 1515.00
72.2768 1532.00
72.5811 1576.00
72.8853 1636.00
73.1896 1589.00
73.4938 1446.00
73.7981 1487.00
74.1024 1438.00
74.4066 1440.00
74.7109 1453.00
75.0151 1505.00
75.3194 1508.00
75.6237 1507.00
75.9279 1514.00
76.2322 1626.00
76.5364 1541.00
76.8407 1514.00
77.145 1538.00
77.4492 1498.00
77.7535 1530.00
78.0577 1603.00
78.362 1575.00
78.6663 1608.00
78.9705 1561.00
79.2748 1598.00
79.579 1580.00
79.8833 1551.00
80.1876 1484.00
80.4918 1573.00
80.7961 1507.00
81.1003 1504.00
81.4046 1552.00
81.7089 1705.00
82.0131 1563.00
82.3174 1578.00
82.6217 1705.00
82.9259 1654.00
83.2302 1487.00
83.5344 1466.00
83.8387 1464.00
84.143 1527.00
84.4472 1575.00
84.7515 1552.00
85.0557 1621.00
85.36 1451.00
85.6643 1525.00
85.9685 1449.00
86.2728 1545.00
86.577 1435.00
86.8813 1530.00
87.1856 1468.00
87.4898 1595.00
87.7941 1560.00
88.0983 1578.00
88.4026 1563.00
88.7069 1574.00
89.0111 1623.00
89.3154 1672.00
89.6196 1562.00
89.9239 1495.00
90.2282 1515.00
90.5324 1465.00
90.8367 1598.00
91.1409 1700.00
91.4452 1831.00
91.7495 1621.00
92.0537 1597.00
92.358 1529.00
92.6622 1529.00
92.9665 1512.00
93.2708 1564.00
93.575 1540.00
93.8793 1745.00
94.1835 1659.00
94.4878 1613.00
94.7921 1690.00
95.0963 1615.00
95.4006 1554.00
95.7048 1516.00
96.0091 1521.00
96.3134 1491.00
96.6176 1541.00
96.9219 1508.00
97.2261 1584.00
97.5304 1491.00
97.8347 1497.00
98.1389 1528.00
98.4432 1558.00
98.7474 1605.00
99.0517 1567.00
99.356 1530.00
99.6602 1620.00
99.9645 1615.00
100.095 1569.00