Folder: alab-pipeline/data/xrd_creation/results (part 38)

File: NSC_17.xy
9.903433 2660.00
10.2077 2511.00
10.512 2489.00
10.8162 2360.00
11.1205 2242.00
11.4247 2291.00
11.729 2065.00
12.0333 2038.00
12.3375 2012.00
12.6418 1989.00
12.946 1937.00
13.2503 1838.00
13.5546 1756.00
13.8588 1849.00
14.1631 1948.00
14.4673 1733.00
14.7716 1922.00
15.0759 3260.00
15.3801 2016.00
15.6844 1676.00
15.9886 1558.00
16.2929 1565.00
16.5972 1588.00
16.9014 1530.00
17.2057 1521.00
17.5099 1489.00
17.8142 1461.00
18.1185 1390.00
18.4227 1429.00
18.727 1387.00
19.0312 1468.00
19.3355 1608.00
19.6398 1969.00
19.944 1667.00
20.2483 2279.00
20.5525 4834.00
20.8568 6750.00
21.1611 2019.00
21.4653 1662.00
21.7696 4959.00
22.0738 7253.00
22.3781 1624.00
22.6824 1329.00
22.9866 1325.00
23.2909 1503.00
23.5951 2198.00
23.8994 1647.00
24.2037 1305.00
24.5079 1352.00
24.8122 1760.00
25.1164 6984.00
25.4207 8020.00
25.725 2838.00
26.0292 8794.00
26.3335 2950.00
26.6378 1382.00
26.942 1230.00
27.2463 1140.00
27.5505 1084.00
27.8548 1087.00
28.1591 1457.00
28.4633 1718.00
28.7676 1325.00
29.0718 1016.00
29.3761 1050.00
29.6804 1072.00
29.9846 1290.00
30.2889 4360.00
30.5931 4628.00
30.8974 1188.00
31.2017 1661.00
31.5059 2016.00
31.8102 1194.00
32.1144 1050.00
32.4187 1045.00
32.723 1080.00
33.0272 1977.00
33.3315 8209.00
33.6357 3512.00
33.94 2067.00
34.2443 1881.00
34.5485 1061.00
34.8528 1017.00
35.157 1101.00
35.4613 1329.00
35.7656 1690.00
36.0698 1891.00
36.3741 1066.00
36.6783 866.00
36.9826 859.00
37.2869 908.00
37.5911 1353.00
37.8954 2239.00
38.1996 3210.00
38.5039 3652.00
38.8082 1444.00
39.1124 990.00
39.4167 1468.00
39.7209 1626.00
40.0252 918.00
40.3295 994.00
40.6337 1429.00
40.938 876.00
41.2422 845.00
41.5465 1063.00
41.8508 2251.00
42.155 1428.00
42.4593 1194.00
42.7635 782.00
43.0678 910.00
43.3721 845.00
43.6763 922.00
43.9806 1454.00
44.2849 881.00
44.5891 1017.00
44.8934 1234.00
45.1976 1231.00
45.5019 907.00
45.8062 803.00
46.1104 1209.00
46.4147 1665.00
46.7189 1029.00
47.0232 889.00
47.3275 858.00
47.6317 959.00
47.936 1570.00
48.2402 2531.00
48.5445 1640.00
48.8488 1922.00
49.153 959.00
49.4573 1295.00
49.7615 2148.00
50.0658 1192.00
50.3701 806.00
50.6743 917.00
50.9786 1145.00
51.2828 1099.00
51.5871 2121.00
51.8914 3138.00
52.1956 1082.00
52.4999 877.00
52.8041 991.00
53.1084 1000.00
53.4127 1205.00
53.7169 975.00
54.0212 738.00
54.3254 763.00
54.6297 1253.00
54.934 2327.00
55.2382 1287.00
55.5425 1100.00
55.8467 1308.00
56.151 1086.00
56.4553 903.00
56.7595 799.00
57.0638 818.00
57.368 858.00
57.6723 787.00
57.9766 838.00
58.2808 1278.00
58.5851 1850.00
58.8893 2002.00
59.1936 1184.00
59.4979 953.00
59.8021 1637.00
60.1064 2012.00
60.4106 2418.00
60.7149 1369.00
61.0192 878.00
61.3234 1035.00
61.6277 1367.00
61.932 1502.00
62.2362 986.00
62.5405 768.00
62.8447 868.00
63.149 1059.00
63.4533 1016.00
63.7575 849.00
64.0618 841.00
64.366 1677.00
64.6703 1751.00
64.9745 994.00
65.2788 1051.00
65.5831 1219.00
65.8873 2000.00
66.1916 3543.00
66.4959 2486.00
66.8001 1182.00
67.1044 1240.00
67.4086 941.00
67.7129 847.00
68.0172 857.00
68.3214 767.00
68.6257 866.00
68.9299 1377.00
69.2342 1533.00
69.5385 1586.00
69.8427 1061.00
70.147 1023.00
70.4512 1265.00
70.7555 1393.00
71.0598 1111.00
71.364 782.00
71.6683 645.00
71.9725 673.00
72.2768 602.00
72.5811 650.00
72.8853 688.00
73.1896 861.00
73.4938 1217.00
73.7981 1092.00
74.1024 904.00
74.4066 743.00
74.7109 762.00
75.0151 894.00
75.3194 882.00
75.6237 879.00
75.9279 700.00
76.2322 754.00
76.5364 826.00
76.8407 683.00
77.145 751.00
77.4492 1088.00
77.7535 1406.00
78.0577 1112.00
78.362 795.00
78.6663 834.00
78.9705 912.00
79.2748 1043.00
79.579 978.00
79.8833 1057.00
80.1876 1164.00
80.4918 873.00
80.7961 736.00
81.1003 685.00
81.4046 620.00
81.7089 698.00
82.0131 888.00
82.3174 1070.00
82.6217 942.00
82.9259 745.00
83.2302 720.00
83.5344 706.00
83.8387 728.00
84.143 722.00
84.4472 779.00
84.7515 770.00
85.0557 688.00
85.36 709.00
85.6643 674.00
85.9685 773.00
86.2728 837.00
86.577 893.00
86.8813 712.00
87.1856 747.00
87.4898 1002.00
87.7941 1049.00
88.0983 821.00
88.4026 686.00
88.7069 742.00
89.0111 670.00
89.3154 654.00
89.6196 668.00
89.9239 658.00
90.2282 766.00
90.5324 629.00
90.8367 630.00
91.1409 700.00
91.4452 812.00
91.7495 947.00
92.0537 915.00
92.358 998.00
92.6622 1139.00
92.9665 1118.00
93.2708 1061.00
93.575 867.00
93.8793 652.00
94.1835 672.00
94.4878 736.00
94.7921 712.00
95.0963 658.00
95.4006 712.00
95.7048 738.00
96.0091 767.00
96.3134 814.00
96.6176 759.00
96.9219 749.00
97.2261 748.00
97.5304 745.00
97.8347 750.00
98.1389 805.00
98.4432 931.00
98.7474 831.00
99.0517 819.00
99.356 907.00
99.6602 1006.00
99.9645 940.00
100.095 905.00

File: NSC_18.xy
9.903433 2641.00
10.2077 2596.00
10.512 2471.00
10.8162 2482.00
11.1205 2220.00
11.4247 2268.00
11.729 2267.00
12.0333 2146.00
12.3375 2099.00
12.6418 2111.00
12.946 1991.00
13.2503 1921.00
13.5546 2020.00
13.8588 1963.00
14.1631 2287.00
14.4673 2096.00
14.7716 1880.00
15.0759 2429.00
15.3801 2793.00
15.6844 1764.00
15.9886 1745.00
16.2929 1676.00
16.5972 1651.00
16.9014 1663.00
17.2057 1639.00
17.5099 1591.00
17.8142 1650.00
18.1185 1600.00
18.4227 1555.00
18.727 1666.00
19.0312 1698.00
19.3355 1749.00
19.6398 3134.00
19.944 3428.00
20.2483 2220.00
20.5525 7094.00
20.8568 4819.00
21.1611 2558.00
21.4653 1686.00
21.7696 3648.00
22.0738 8278.00
22.3781 1915.00
22.6824 1476.00
22.9866 1474.00
23.2909 1564.00
23.5951 3834.00
23.8994 3826.00
24.2037 1605.00
24.5079 1760.00
24.8122 1543.00
25.1164 2224.00
25.4207 10201.00
25.725 1792.00
26.0292 1906.00
26.3335 2614.00
26.6378 1680.00
26.942 1443.00
27.2463 1275.00
27.5505 1232.00
27.8548 1227.00
28.1591 1407.00
28.4633 3292.00
28.7676 2407.00
29.0718 1220.00
29.3761 1208.00
29.6804 1192.00
29.9846 1252.00
30.2889 1898.00
30.5931 5648.00
30.8974 1848.00
31.2017 1772.00
31.5059 6227.00
31.8102 2416.00
32.1144 1179.00
32.4187 1205.00
32.723 1263.00
33.0272 1343.00
33.3315 4338.00
33.6357 4057.00
33.94 1683.00
34.2443 2214.00
34.5485 1188.00
34.8528 1251.00
35.157 1627.00
35.4613 2571.00
35.7656 3202.00
36.0698 1783.00
36.3741 1857.00
36.6783 1049.00
36.9826 1021.00
37.2869 1065.00
37.5911 1087.00
37.8954 2073.00
38.1996 1388.00
38.5039 3287.00
38.8082 1611.00
39.1124 1073.00
39.4167 924.00
39.7209 1420.00
40.0252 1316.00
40.3295 1062.00
40.6337 1417.00
40.938 1108.00
41.2422 1041.00
41.5465 1351.00
41.8508 1335.00
42.155 1269.00
42.4593 1346.00
42.7635 996.00
43.0678 1112.00
43.3721 1490.00
43.6763 1338.00
43.9806 1488.00
44.2849 1060.00
44.5891 1053.00
44.8934 1352.00
45.1976 2033.00
45.5019 1294.00
45.8062 1045.00
46.1104 1351.00
46.4147 2130.00
46.7189 1449.00
47.0232 1241.00
47.3275 1025.00
47.6317 1106.00
47.936 1385.00
48.2402 3561.00
48.5445 1843.00
48.8488 1406.00
49.153 1193.00
49.4573 1256.00
49.7615 2199.00
50.0658 1211.00
50.3701 947.00
50.6743 987.00
50.9786 1244.00
51.2828 1294.00
51.5871 2346.00
51.8914 3093.00
52.1956 1344.00
52.4999 1043.00
52.8041 1352.00
53.1084 961.00
53.4127 958.00
53.7169 1005.00
54.0212 857.00
54.3254 1180.00
54.6297 1540.00
54.934 2325.00
55.2382 1536.00
55.5425 1908.00
55.8467 2115.00
56.151 1389.00
56.4553 1042.00
56.7595 916.00
57.0638 1051.00
57.368 1018.00
57.6723 1165.00
57.9766 1032.00
58.2808 1562.00
58.5851 1788.00
58.8893 1304.00
59.1936 1060.00
59.4979 1013.00
59.8021 1618.00
60.1064 2037.00
60.4106 2331.00
60.7149 1383.00
61.0192 1193.00
61.3234 1689.00
61.6277 1679.00
61.932 1351.00
62.2362 1153.00
62.5405 1232.00
62.8447 1052.00
63.149 1286.00
63.4533 1140.00
63.7575 1242.00
64.0618 1485.00
64.366 1742.00
64.6703 1441.00
64.9745 979.00
65.2788 1072.00
65.5831 1162.00
65.8873 1246.00
66.1916 2434.00
66.4959 2058.00
66.8001 1232.00
67.1044 1060.00
67.4086 1162.00
67.7129 1107.00
68.0172 1136.00
68.3214 1080.00
68.6257 1017.00
68.9299 1330.00
69.2342 1546.00
69.5385 1463.00
69.8427 1038.00
70.147 896.00
70.4512 1132.00
70.7555 1293.00
71.0598 1103.00
71.364 1093.00
71.6683 954.00
71.9725 868.00
72.2768 767.00
72.5811 811.00
72.8853 880.00
73.1896 1092.00
73.4938 1044.00
73.7981 1097.00
74.1024 1000.00
74.4066 988.00
74.7109 998.00
75.0151 1150.00
75.3194 1169.00
75.6237 1131.00
75.9279 951.00
76.2322 882.00
76.5364 824.00
76.8407 807.00
77.145 1116.00
77.4492 1179.00
77.7535 1224.00
78.0577 937.00
78.362 937.00
78.6663 954.00
78.9705 1169.00
79.2748 1225.00
79.579 1089.00
79.8833 1014.00
80.1876 984.00
80.4918 917.00
80.7961 961.00
81.1003 933.00
81.4046 928.00
81.7089 929.00
82.0131 941.00
82.3174 1067.00
82.6217 924.00
82.9259 878.00
83.2302 821.00
83.5344 949.00
83.8387 949.00
84.143 1035.00
84.4472 1011.00
84.7515 959.00
85.0557 936.00
85.36 903.00
85.6643 968.00
85.9685 964.00
86.2728 1053.00
86.577 1048.00
86.8813 959.00
87.1856 942.00
87.4898 1082.00
87.7941 989.00
88.0983 885.00
88.4026 834.00
88.7069 907.00
89.0111 904.00
89.3154 924.00
89.6196 926.00
89.9239 933.00
90.2282 917.00
90.5324 940.00
90.8367 876.00
91.1409 886.00
91.4452 1087.00
91.7495 1077.00
92.0537 1118.00
92.358 1079.00
92.6622 1163.00
92.9665 1113.00
93.2708 926.00
93.575 871.00
93.8793 864.00
94.1835 923.00
94.4878 873.00
94.7921 821.00
95.0963 888.00
95.4006 991.00
95.7048 986.00
96.0091 961.00
96.3134 935.00
96.6176 964.00
96.9219 953.00
97.2261 870.00
97.5304 835.00
97.8347 904.00
98.1389 963.00
98.4432 930.00
98.7474 911.00
99.0517 912.00
99.356 936.00
99.6602 1061.00
99.9645 1007.00
100.095 1044.00

File: NSC_19.xy
9.903433 2907.00
10.2077 2722.00
10.512 2588.00
10.8162 2541.00
11.1205 2483.00
11.4247 2422.00
11.729 2273.00
12.0333 2274.00
12.3375 2208.00
12.6418 2091.00
12.946 2029.00
13.2503 1969.00
13.5546 1939.00
13.8588 2043.00
14.1631 2369.00
14.4673 3321.00
14.7716 2072.00
15.0759 2089.00
15.3801 2447.00
15.6844 1844.00
15.9886 1915.00
16.2929 1856.00
16.5972 1791.00
16.9014 1696.00
17.2057 1805.00
17.5099 1812.00
17.8142 1691.00
18.1185 1760.00
18.4227 1668.00
18.727 1736.00
19.0312 1733.00
19.3355 1754.00
19.6398 2677.00
19.944 6077.00
20.2483 2178.00
20.5525 6302.00
20.8568 4438.00
21.1611 2651.00
21.4653 1772.00
21.7696 2147.00
22.0738 3693.00
22.3781 1896.00
22.6824 1576.00
22.9866 1650.00
23.2909 1769.00
23.5951 2929.00
23.8994 6949.00
24.2037 1830.00
24.5079 1635.00
24.8122 1596.00
25.1164 2025.00
25.4207 4175.00
25.725 1605.00
26.0292 1462.00
26.3335 2072.00
26.6378 1448.00
26.942 1467.00
27.2463 1296.00
27.5505 1321.00
27.8548 1374.00
28.1591 1484.00
28.4633 2960.00
28.7676 4010.00
29.0718 1472.00
29.3761 1259.00
29.6804 1326.00
29.9846 1313.00
30.2889 1661.00
30.5931 2747.00
30.8974 1632.00
31.2017 1747.00
31.5059 6238.00
31.8102 4386.00
32.1144 1703.00
32.4187 1298.00
32.723 1302.00
33.0272 1503.00
33.3315 2459.00
33.6357 2805.00
33.94 1625.00
34.2443 1577.00
34.5485 1312.00
34.8528 1247.00
35.157 1530.00
35.4613 2752.00
35.7656 3392.00
36.0698 2578.00
36.3741 1489.00
36.6783 1123.00
36.9826 1122.00
37.2869 1075.00
37.5911 1161.00
37.8954 1406.00
38.1996 1424.00
38.5039 1884.00
38.8082 1433.00
39.1124 1075.00
39.4167 1081.00
39.7209 1311.00
40.0252 1402.00
40.3295 1173.00
40.6337 1143.00
40.938 1149.00
41.2422 1126.00
41.5465 1546.00
41.8508 1533.00
42.155 1342.00
42.4593 1266.00
42.7635 1073.00
43.0678 1148.00
43.3721 1724.00
43.6763 1387.00
43.9806 1265.00
44.2849 1238.00
44.5891 1167.00
44.8934 1280.00
45.1976 2184.00
45.5019 1713.00
45.8062 1252.00
46.1104 1454.00
46.4147 1930.00
46.7189 1528.00
47.0232 1505.00
47.3275 1171.00
47.6317 1150.00
47.936 1421.00
48.2402 2859.00
48.5445 2251.00
48.8488 1475.00
49.153 1294.00
49.4573 1296.00
49.7615 1545.00
50.0658 1217.00
50.3701 1064.00
50.6743 1150.00
50.9786 1301.00
51.2828 1468.00
51.5871 2510.00
51.8914 2385.00
52.1956 1459.00
52.4999 1198.00
52.8041 1175.00
53.1084 1049.00
53.4127 1028.00
53.7169 1063.00
54.0212 1013.00
54.3254 1254.00
54.6297 1653.00
54.934 1685.00
55.2382 1456.00
55.5425 2105.00
55.8467 2557.00
56.151 1885.00
56.4553 1273.00
56.7595 1112.00
57.0638 1208.00
57.368 1209.00
57.6723 1095.00
57.9766 1163.00
58.2808 1373.00
58.5851 1586.00
58.8893 1340.00
59.1936 1301.00
59.4979 1141.00
59.8021 1384.00
60.1064 1909.00
60.4106 1940.00
60.7149 1511.00
61.0192 1219.00
61.3234 1665.00
61.6277 1744.00
61.932 1509.00
62.2362 1363.00
62.5405 1379.00
62.8447 1373.00
63.149 1315.00
63.4533 1259.00
63.7575 1365.00
64.0618 1614.00
64.366 1650.00
64.6703 1401.00
64.9745 1120.00
65.2788 1243.00
65.5831 1302.00
65.8873 1311.00
66.1916 1676.00
66.4959 1644.00
66.8001 1221.00
67.1044 1132.00
67.4086 1215.00
67.7129 1332.00
68.0172 1245.00
68.3214 1244.00
68.6257 1165.00
68.9299 1230.00
69.2342 1355.00
69.5385 1231.00
69.8427 1069.00
70.147 1110.00
70.4512 1163.00
70.7555 1181.00
71.0598 1206.00
71.364 1338.00
71.6683 1213.00
71.9725 1120.00
72.2768 1039.00
72.5811 1000.00
72.8853 1069.00
73.1896 1018.00
73.4938 1111.00
73.7981 1160.00
74.1024 1220.00
74.4066 1130.00
74.7109 1162.00
75.0151 1145.00
75.3194 1332.00
75.6237 1356.00
75.9279 1214.00
76.2322 1127.00
76.5364 1035.00
76.8407 1037.00
77.145 1188.00
77.4492 1114.00
77.7535 1152.00
78.0577 1062.00
78.362 1034.00
78.6663 1050.00
78.9705 1252.00
79.2748 1333.00
79.579 1207.00
79.8833 1090.00
80.1876 1072.00
80.4918 1024.00
80.7961 1056.00
81.1003 1122.00
81.4046 1132.00
81.7089 1124.00
82.0131 1106.00
82.3174 1051.00
82.6217 966.00
82.9259 968.00
83.2302 970.00
83.5344 1154.00
83.8387 1171.00
84.143 1090.00
84.4472 1105.00
84.7515 1158.00
85.0557 1117.00
85.36 1111.00
85.6643 1144.00
85.9685 1169.00
86.2728 1172.00
86.577 1135.00
86.8813 1135.00
87.1856 1081.00
87.4898 1083.00
87.7941 1047.00
88.0983 1069.00
88.4026 1085.00
88.7069 1052.00
89.0111 1042.00
89.3154 1084.00
89.6196 1242.00
89.9239 1136.00
90.2282 1133.00
90.5324 1111.00
90.8367 1003.00
91.1409 1082.00
91.4452 1102.00
91.7495 1162.00
92.0537 1181.00
92.358 1209.00
92.6622 1145.00
92.9665 1198.00
93.2708 1084.00
93.575 1085.00
93.8793 1088.00
94.1835 1172.00
94.4878 1046.00
94.7921 1099.00
95.0963 1167.00
95.4006 1158.00
95.7048 1162.00
96.0091 1104.00
96.3134 1173.00
96.6176 1233.00
96.9219 1111.00
97.2261 1083.00
97.5304 1064.00
97.8347 1067.00
98.1389 1065.00
98.4432 1099.00
98.7474 1055.00
99.0517 1037.00
99.356 1033.00
99.6602 1133.00
99.9645 1050.00
100.095 1158.00

File: NSC_20.xy
9.903433 2945.00
10.2077 2866.00
10.512 2802.00
10.8162 2597.00
11.1205 2539.00
11.4247 2550.00
11.729 2541.00
12.0333 2409.00
12.3375 2311.00
12.6418 2264.00
12.946 2227.00
13.2503 2065.00
13.5546 2177.00
13.8588 3043.00
14.1631 2603.00
14.4673 1973.00
14.7716 2050.00
15.0759 2044.00
15.3801 2001.00
15.6844 1927.00
15.9886 1983.00
16.2929 1830.00
16.5972 1831.00
16.9014 1803.00
17.2057 1863.00
17.5099 1807.00
17.8142 1806.00
18.1185 1871.00
18.4227 1693.00
18.727 1700.00
19.0312 1975.00
19.3355 5344.00
19.6398 3938.00
19.944 2986.00
20.2483 9151.00
20.5525 2497.00
20.8568 1822.00
21.1611 1684.00
21.4653 1864.00
21.7696 1974.00
22.0738 1642.00
22.3781 1546.00
22.6824 1663.00
22.9866 1950.00
23.2909 7165.00
23.5951 4219.00
23.8994 1706.00
24.2037 1563.00
24.5079 1579.00
24.8122 1719.00
25.1164 1771.00
25.4207 1441.00
25.725 1395.00
26.0292 1462.00
26.3335 1421.00
26.6378 1372.00
26.942 1338.00
27.2463 1386.00
27.5505 1405.00
27.8548 1572.00
28.1591 5836.00
28.4633 2633.00
28.7676 1368.00
29.0718 1362.00
29.3761 1274.00
29.6804 1385.00
29.9846 1423.00
30.2889 1472.00
30.5931 1460.00
30.8974 2665.00
31.2017 8892.00
31.5059 2852.00
31.8102 1369.00
32.1144 1277.00
32.4187 1163.00
32.723 1262.00
33.0272 1606.00
33.3315 1385.00
33.6357 1443.00
33.94 1328.00
34.2443 1299.00
34.5485 1300.00
34.8528 2341.00
35.157 2878.00
35.4613 4102.00
35.7656 1651.00
36.0698 1231.00
36.3741 1160.00
36.6783 1103.00
36.9826 1090.00
37.2869 1059.00
37.5911 1152.00
37.8954 1161.00
38.1996 1170.00
38.5039 1123.00
38.8082 1026.00
39.1124 1016.00
39.4167 1222.00
39.7209 1427.00
40.0252 1107.00
40.3295 978.00
40.6337 1044.00
40.938 1176.00
41.2422 1729.00
41.5465 1420.00
41.8508 1132.00
42.155 1188.00
42.4593 1078.00
42.7635 1477.00
43.0678 1660.00
43.3721 1185.00
43.6763 1134.00
43.9806 1003.00
44.2849 992.00
44.5891 1459.00
44.8934 2592.00
45.1976 1245.00
45.5019 1077.00
45.8062 1697.00
46.1104 1647.00
46.4147 1479.00
46.7189 1292.00
47.0232 985.00
47.3275 1025.00
47.6317 1655.00
47.936 3261.00
48.2402 1679.00
48.5445 1266.00
48.8488 1058.00
49.153 1114.00
49.4573 1035.00
49.7615 908.00
50.0658 986.00
50.3701 1034.00
50.6743 1125.00
50.9786 1585.00
51.2828 2585.00
51.5871 1676.00
51.8914 1103.00
52.1956 932.00
52.4999 988.00
52.8041 902.00
53.1084 905.00
53.4127 859.00
53.7169 957.00
54.0212 1424.00
54.3254 1419.00
54.6297 1166.00
54.934 1641.00
55.2382 2679.00
55.5425 2396.00
55.8467 1447.00
56.151 969.00
56.4553 975.00
56.7595 1051.00
57.0638 1030.00
57.368 974.00
57.6723 1053.00
57.9766 1305.00
58.2808 1330.00
58.5851 1092.00
58.8893 963.00
59.1936 933.00
59.4979 1114.00
59.8021 1759.00
60.1064 1444.00
60.4106 1051.00
60.7149 1333.00
61.0192 1847.00
61.3234 1469.00
61.6277 1069.00
61.932 1196.00
62.2362 1251.00
62.5405 1171.00
62.8447 1060.00
63.149 1132.00
63.4533 1347.00
63.7575 1587.00
64.0618 1189.00
64.366 923.00
64.6703 900.00
64.9745 1026.00
65.2788 1046.00
65.5831 1022.00
65.8873 1197.00
66.1916 1291.00
66.4959 1001.00
66.8001 909.00
67.1044 1058.00
67.4086 1116.00
67.7129 1234.00
68.0172 988.00
68.3214 896.00
68.6257 929.00
68.9299 1004.00
69.2342 852.00
69.5385 798.00
69.8427 842.00
70.147 797.00
70.4512 792.00
70.7555 964.00
71.0598 1251.00
71.364 1015.00
71.6683 847.00
71.9725 855.00
72.2768 825.00
72.5811 788.00
72.8853 782.00
73.1896 809.00
73.4938 968.00
73.7981 1042.00
74.1024 971.00
74.4066 921.00
74.7109 1012.00
75.0151 1143.00
75.3194 1182.00
75.6237 960.00
75.9279 788.00
76.2322 749.00
76.5364 794.00
76.8407 893.00
77.145 801.00
77.4492 823.00
77.7535 798.00
78.0577 788.00
78.362 912.00
78.6663 1179.00
78.9705 1066.00
79.2748 954.00
79.579 878.00
79.8833 775.00
80.1876 821.00
80.4918 858.00
80.7961 1030.00
81.1003 954.00
81.4046 879.00
81.7089 719.00
82.0131 799.00
82.3174 756.00
82.6217 721.00
82.9259 810.00
83.2302 968.00
83.5344 972.00
83.8387 901.00
84.143 750.00
84.4472 881.00
84.7515 908.00
85.0557 907.00
85.36 908.00
85.6643 905.00
85.9685 911.00
86.2728 865.00
86.577 802.00
86.8813 823.00
87.1856 771.00
87.4898 758.00
87.7941 764.00
88.0983 797.00
88.4026 847.00
88.7069 822.00
89.0111 942.00
89.3154 1005.00
89.6196 1061.00
89.9239 925.00
90.2282 852.00
90.5324 794.00
90.8367 748.00
91.1409 808.00
91.4452 911.00
91.7495 891.00
92.0537 821.00
92.358 824.00
92.6622 781.00
92.9665 756.00
93.2708 849.00
93.575 823.00
93.8793 870.00
94.1835 834.00
94.4878 792.00
94.7921 873.00
95.0963 969.00
95.4006 859.00
95.7048 862.00
96.0091 900.00
96.3134 972.00
96.6176 895.00
96.9219 820.00
97.2261 832.00
97.5304 765.00
97.8347 673.00
98.1389 671.00
98.4432 703.00
98.7474 752.00
99.0517 799.00
99.356 761.00
99.6602 829.00
99.9645 862.00
100.095 923.00

File: NSC_21.xy
9.903433 3258.00
10.2077 3146.00
10.512 2962.00
10.8162 3066.00
11.1205 2961.00
11.4247 2971.00
11.729 2922.00
12.0333 2812.00
12.3375 2917.00
12.6418 2626.00
12.946 2530.00
13.2503 2605.00
13.5546 2549.00
13.8588 2694.00
14.1631 4930.00
14.4673 2690.00
14.7716 2444.00
15.0759 2449.00
15.3801 2497.00
15.6844 2496.00
15.9886 2330.00
16.2929 2452.00
16.5972 2300.00
16.9014 2376.00
17.2057 2255.00
17.5099 2337.00
17.8142 2318.00
18.1185 2298.00
18.4227 2256.00
18.727 2190.00
19.0312 2300.00
19.3355 2646.00
19.6398 10126.00
19.944 3022.00
20.2483 5521.00
20.5525 7550.00
20.8568 2322.00
21.1611 2268.00
21.4653 2156.00
21.7696 2159.00
22.0738 2498.00
22.3781 2367.00
22.6824 2138.00
22.9866 2526.00
23.2909 2811.00
23.5951 19383.00
23.8994 2418.00
24.2037 2311.00
24.5079 2053.00
24.8122 2122.00
25.1164 1950.00
25.4207 1876.00
25.725 1881.00
26.0292 1852.00
26.3335 1789.00
26.6378 1827.00
26.942 1829.00
27.2463 1836.00
27.5505 1852.00
27.8548 1894.00
28.1591 2405.00
28.4633 15110.00
28.7676 2191.00
29.0718 1857.00
29.3761 1764.00
29.6804 1831.00
29.9846 1990.00
30.2889 1829.00
30.5931 1974.00
30.8974 2191.00
31.2017 5265.00
31.5059 10005.00
31.8102 3183.00
32.1144 1838.00
32.4187 1715.00
32.723 1717.00
33.0272 1621.00
33.3315 1672.00
33.6357 1735.00
33.94 2225.00
34.2443 2542.00
34.5485 1946.00
34.8528 1996.00
35.157 6303.00
35.4613 5418.00
35.7656 2541.00
36.0698 1759.00
36.3741 1684.00
36.6783 1453.00
36.9826 1576.00
37.2869 1501.00
37.5911 1525.00
37.8954 1475.00
38.1996 1451.00
38.5039 1465.00
38.8082 1618.00
39.1124 1481.00
39.4167 1509.00
39.7209 2440.00
40.0252 1529.00
40.3295 1393.00
40.6337 1503.00
40.938 1824.00
41.2422 2542.00
41.5465 2299.00
41.8508 1751.00
42.155 1941.00
42.4593 1506.00
42.7635 1610.00
43.0678 3896.00
43.3721 1567.00
43.6763 1689.00
43.9806 1483.00
44.2849 1393.00
44.5891 1529.00
44.8934 3285.00
45.1976 2201.00
45.5019 1585.00
45.8062 1752.00
46.1104 3012.00
46.4147 1603.00
46.7189 2907.00
47.0232 1798.00
47.3275 1461.00
47.6317 1812.00
47.936 5610.00
48.2402 2382.00
48.5445 1908.00
48.8488 1656.00
49.153 1476.00
49.4573 1714.00
49.7615 1564.00
50.0658 1515.00
50.3701 1845.00
50.6743 1850.00
50.9786 1785.00
51.2828 4168.00
51.5871 2248.00
51.8914 1934.00
52.1956 1435.00
52.4999 1396.00
52.8041 1466.00
53.1084 1400.00
53.4127 1491.00
53.7169 1413.00
54.0212 1702.00
54.3254 2619.00
54.6297 1475.00
54.934 1872.00
55.2382 3734.00
55.5425 4365.00
55.8467 1718.00
56.151 1525.00
56.4553 1536.00
56.7595 1824.00
57.0638 1518.00
57.368 1501.00
57.6723 1424.00
57.9766 1586.00
58.2808 2295.00
58.5851 1936.00
58.8893 1423.00
59.1936 1469.00
59.4979 1481.00
59.8021 2946.00
60.1064 2274.00
60.4106 1592.00
60.7149 1676.00
61.0192 3587.00
61.3234 1733.00
61.6277 1427.00
61.932 1616.00
62.2362 2581.00
62.5405 1970.00
62.8447 1492.00
63.149 1942.00
63.4533 2261.00
63.7575 2080.00
64.0618 1686.00
64.366 1379.00
64.6703 1388.00
64.9745 1498.00
65.2788 1636.00
65.5831 1466.00
65.8873 1655.00
66.1916 2552.00
66.4959 1437.00
66.8001 1375.00
67.1044 1948.00
67.4086 1738.00
67.7129 2055.00
68.0172 1455.00
68.3214 1340.00
68.6257 1519.00
68.9299 1632.00
69.2342 1332.00
69.5385 1344.00
69.8427 1418.00
70.147 1396.00
70.4512 1371.00
70.7555 1743.00
71.0598 2081.00
71.364 1416.00
71.6683 1403.00
71.9725 1356.00
72.2768 1425.00
72.5811 1366.00
72.8853 1253.00
73.1896 1199.00
73.4938 1595.00
73.7981 1935.00
74.1024 1419.00
74.4066 1422.00
74.7109 1843.00
75.0151 1982.00
75.3194 1824.00
75.6237 1562.00
75.9279 1254.00
76.2322 1282.00
76.5364 1467.00
76.8407 1268.00
77.145 1404.00
77.4492 1410.00
77.7535 1305.00
78.0577 1403.00
78.362 1831.00
78.6663 2081.00
78.9705 1669.00
79.2748 1329.00
79.579 1320.00
79.8833 1311.00
80.1876 1265.00
80.4918 1364.00
80.7961 2056.00
81.1003 1562.00
81.4046 1356.00
81.7089 1353.00
82.0131 1278.00
82.3174 1340.00
82.6217 1337.00
82.9259 1403.00
83.2302 2022.00
83.5344 1570.00
83.8387 1354.00
84.143 1259.00
84.4472 1536.00
84.7515 1556.00
85.0557 1466.00
85.36 1475.00
85.6643 1323.00
85.9685 1566.00
86.2728 1392.00
86.577 1499.00
86.8813 1474.00
87.1856 1287.00
87.4898 1303.00
87.7941 1593.00
88.0983 1457.00
88.4026 1351.00
88.7069 1490.00
89.0111 1622.00
89.3154 2033.00
89.6196 1610.00
89.9239 1362.00
90.2282 1312.00
90.5324 1389.00
90.8367 1309.00
91.1409 1417.00
91.4452 1604.00
91.7495 1437.00
92.0537 1305.00
92.358 1347.00
92.6622 1178.00
92.9665 1261.00
93.2708 1316.00
93.575 1530.00
93.8793 1510.00
94.1835 1503.00
94.4878 1396.00
94.7921 1747.00
95.0963 1593.00
95.4006 1372.00
95.7048 1691.00
96.0091 1584.00
96.3134 1580.00
96.6176 1419.00
96.9219 1386.00
97.2261 1303.00
97.5304 1262.00
97.8347 1205.00
98.1389 1166.00
98.4432 1415.00
98.7474 1383.00
99.0517 1375.00
99.356 1473.00
99.6602 1486.00
99.9645 1683.00
100.095 1532.00