Folder: alab-pipeline/data/xrd_creation/results (part 70)

File: NSC_192.xy
9.903433 2656.00
10.2077 2567.00
10.512 2489.00
10.8162 2419.00
11.1205 2302.00
11.4247 2398.00
11.729 2294.00
12.0333 2066.00
12.3375 2019.00
12.6418 1981.00
12.946 1968.00
13.2503 1847.00
13.5546 2054.00
13.8588 1945.00
14.1631 1810.00
14.4673 1754.00
14.7716 1703.00
15.0759 1700.00
15.3801 1699.00
15.6844 1630.00
15.9886 1686.00
16.2929 1736.00
16.5972 1641.00
16.9014 1654.00
17.2057 1534.00
17.5099 1559.00
17.8142 1642.00
18.1185 1597.00
18.4227 1507.00
18.727 1548.00
19.0312 2160.00
19.3355 2630.00
19.6398 3402.00
19.944 1516.00
20.2483 1443.00
20.5525 1431.00
20.8568 1383.00
21.1611 1483.00
21.4653 1436.00
21.7696 1348.00
22.0738 1382.00
22.3781 1383.00
22.6824 1661.00
22.9866 1728.00
23.2909 1297.00
23.5951 1316.00
23.8994 1373.00
24.2037 1412.00
24.5079 1416.00
24.8122 1291.00
25.1164 1309.00
25.4207 1337.00
25.725 1373.00
26.0292 1294.00
26.3335 1250.00
26.6378 1184.00
26.942 1235.00
27.2463 1306.00
27.5505 2878.00
27.8548 1579.00
28.1591 1525.00
28.4633 1587.00
28.7676 1210.00
29.0718 1167.00
29.3761 1154.00
29.6804 1103.00
29.9846 1166.00
30.2889 1429.00
30.5931 3991.00
30.8974 1668.00
31.2017 1230.00
31.5059 1430.00
31.8102 1318.00
32.1144 1156.00
32.4187 1045.00
32.723 1189.00
33.0272 1520.00
33.3315 1297.00
33.6357 1244.00
33.94 1542.00
34.2443 2950.00
34.5485 1746.00
34.8528 1269.00
35.157 1056.00
35.4613 1104.00
35.7656 926.00
36.0698 1006.00
36.3741 896.00
36.6783 862.00
36.9826 898.00
37.2869 861.00
37.5911 840.00
37.8954 865.00
38.1996 852.00
38.5039 857.00
38.8082 976.00
39.1124 907.00
39.4167 823.00
39.7209 870.00
40.0252 877.00
40.3295 845.00
40.6337 898.00
40.938 1020.00
41.2422 1065.00
41.5465 1007.00
41.8508 1010.00
42.155 1007.00
42.4593 961.00
42.7635 789.00
43.0678 835.00
43.3721 859.00
43.6763 827.00
43.9806 1081.00
44.2849 823.00
44.5891 1458.00
44.8934 926.00
45.1976 824.00
45.5019 864.00
45.8062 1036.00
46.1104 1043.00
46.4147 1032.00
46.7189 1946.00
47.0232 1065.00
47.3275 909.00
47.6317 871.00
47.936 823.00
48.2402 827.00
48.5445 817.00
48.8488 820.00
49.153 947.00
49.4573 962.00
49.7615 897.00
50.0658 899.00
50.3701 1779.00
50.6743 1238.00
50.9786 878.00
51.2828 817.00
51.5871 924.00
51.8914 819.00
52.1956 786.00
52.4999 834.00
52.8041 865.00
53.1084 913.00
53.4127 1387.00
53.7169 1499.00
54.0212 923.00
54.3254 860.00
54.6297 818.00
54.934 840.00
55.2382 871.00
55.5425 873.00
55.8467 894.00
56.151 840.00
56.4553 838.00
56.7595 811.00
57.0638 892.00
57.368 883.00
57.6723 898.00
57.9766 866.00
58.2808 920.00
58.5851 1333.00
58.8893 1141.00
59.1936 1376.00
59.4979 1108.00
59.8021 890.00
60.1064 995.00
60.4106 954.00
60.7149 885.00
61.0192 823.00
61.3234 1051.00
61.6277 1303.00
61.932 886.00
62.2362 954.00
62.5405 905.00
62.8447 826.00
63.149 861.00
63.4533 797.00
63.7575 759.00
64.0618 706.00
64.366 747.00
64.6703 839.00
64.9745 936.00
65.2788 1045.00
65.5831 913.00
65.8873 809.00
66.1916 989.00
66.4959 883.00
66.8001 861.00
67.1044 733.00
67.4086 723.00
67.7129 698.00
68.0172 707.00
68.3214 766.00
68.6257 911.00
68.9299 949.00
69.2342 748.00
69.5385 727.00
69.8427 697.00
70.147 760.00
70.4512 703.00
70.7555 735.00
71.0598 672.00
71.364 696.00
71.6683 731.00
71.9725 733.00
72.2768 904.00
72.5811 939.00
72.8853 696.00
73.1896 792.00
73.4938 789.00
73.7981 744.00
74.1024 691.00
74.4066 662.00
74.7109 660.00
75.0151 699.00
75.3194 683.00
75.6237 782.00
75.9279 850.00
76.2322 739.00
76.5364 707.00
76.8407 714.00
77.145 675.00
77.4492 717.00
77.7535 669.00
78.0577 660.00
78.362 693.00
78.6663 676.00
78.9705 733.00
79.2748 750.00
79.579 727.00
79.8833 664.00
80.1876 651.00
80.4918 806.00
80.7961 791.00
81.1003 660.00
81.4046 684.00
81.7089 674.00
82.0131 729.00
82.3174 728.00
82.6217 723.00
82.9259 738.00
83.2302 682.00
83.5344 686.00
83.8387 679.00
84.143 645.00
84.4472 623.00
84.7515 735.00
85.0557 692.00
85.36 641.00
85.6643 682.00
85.9685 780.00
86.2728 736.00
86.577 696.00
86.8813 814.00
87.1856 854.00
87.4898 710.00
87.7941 666.00
88.0983 684.00
88.4026 649.00
88.7069 687.00
89.0111 750.00
89.3154 773.00
89.6196 730.00
89.9239 668.00
90.2282 649.00
90.5324 711.00
90.8367 722.00
91.1409 687.00
91.4452 694.00
91.7495 626.00
92.0537 684.00
92.358 732.00
92.6622 814.00
92.9665 748.00
93.2708 649.00
93.575 711.00
93.8793 709.00
94.1835 655.00
94.4878 630.00
94.7921 629.00
95.0963 626.00
95.4006 659.00
95.7048 659.00
96.0091 652.00
96.3134 693.00
96.6176 711.00
96.9219 668.00
97.2261 698.00
97.5304 661.00
97.8347 716.00
98.1389 622.00
98.4432 633.00
98.7474 668.00
99.0517 627.00
99.356 728.00
99.6602 716.00
99.9645 821.00
100.095 768.00

File: NSC_193.xy
9.903433 2661.00
10.2077 2491.00
10.512 2453.00
10.8162 2383.00
11.1205 2404.00
11.4247 2474.00
11.729 2249.00
12.0333 2005.00
12.3375 2112.00
12.6418 1930.00
12.946 1925.00
13.2503 1725.00
13.5546 1724.00
13.8588 1683.00
14.1631 1646.00
14.4673 1574.00
14.7716 1639.00
15.0759 1675.00
15.3801 1653.00
15.6844 1623.00
15.9886 1666.00
16.2929 1777.00
16.5972 1608.00
16.9014 1479.00
17.2057 1542.00
17.5099 1495.00
17.8142 1552.00
18.1185 1581.00
18.4227 1388.00
18.727 1386.00
19.0312 1381.00
19.3355 1462.00
19.6398 1334.00
19.944 1367.00
20.2483 1318.00
20.5525 1259.00
20.8568 1246.00
21.1611 1327.00
21.4653 1254.00
21.7696 1307.00
22.0738 1272.00
22.3781 1204.00
22.6824 1223.00
22.9866 1217.00
23.2909 1190.00
23.5951 1166.00
23.8994 1195.00
24.2037 1268.00
24.5079 1331.00
24.8122 1177.00
25.1164 1140.00
25.4207 1295.00
25.725 1467.00
26.0292 1401.00
26.3335 1457.00
26.6378 3282.00
26.942 1215.00
27.2463 1216.00
27.5505 1472.00
27.8548 1220.00
28.1591 1209.00
28.4633 1190.00
28.7676 1092.00
29.0718 1055.00
29.3761 1007.00
29.6804 1061.00
29.9846 1097.00
30.2889 1046.00
30.5931 1079.00
30.8974 1011.00
31.2017 1046.00
31.5059 1100.00
31.8102 1043.00
32.1144 1091.00
32.4187 988.00
32.723 1213.00
33.0272 1469.00
33.3315 1083.00
33.6357 1352.00
33.94 3178.00
34.2443 1448.00
34.5485 1362.00
34.8528 1015.00
35.157 815.00
35.4613 866.00
35.7656 871.00
36.0698 820.00
36.3741 807.00
36.6783 849.00
36.9826 831.00
37.2869 786.00
37.5911 777.00
37.8954 1217.00
38.1996 918.00
38.5039 729.00
38.8082 778.00
39.1124 850.00
39.4167 691.00
39.7209 670.00
40.0252 722.00
40.3295 718.00
40.6337 652.00
40.938 692.00
41.2422 764.00
41.5465 707.00
41.8508 717.00
42.155 714.00
42.4593 753.00
42.7635 717.00
43.0678 715.00
43.3721 738.00
43.6763 676.00
43.9806 693.00
44.2849 666.00
44.5891 678.00
44.8934 638.00
45.1976 692.00
45.5019 688.00
45.8062 668.00
46.1104 692.00
46.4147 722.00
46.7189 725.00
47.0232 707.00
47.3275 719.00
47.6317 741.00
47.936 670.00
48.2402 700.00
48.5445 636.00
48.8488 685.00
49.153 700.00
49.4573 708.00
49.7615 728.00
50.0658 792.00
50.3701 716.00
50.6743 692.00
50.9786 734.00
51.2828 774.00
51.5871 1054.00
51.8914 2310.00
52.1956 872.00
52.4999 668.00
52.8041 700.00
53.1084 640.00
53.4127 671.00
53.7169 626.00
54.0212 722.00
54.3254 648.00
54.6297 840.00
54.934 928.00
55.2382 637.00
55.5425 628.00
55.8467 624.00
56.151 675.00
56.4553 634.00
56.7595 612.00
57.0638 659.00
57.368 689.00
57.6723 724.00
57.9766 890.00
58.2808 696.00
58.5851 709.00
58.8893 702.00
59.1936 682.00
59.4979 747.00
59.8021 757.00
60.1064 731.00
60.4106 654.00
60.7149 611.00
61.0192 602.00
61.3234 589.00
61.6277 678.00
61.932 962.00
62.2362 768.00
62.5405 614.00
62.8447 683.00
63.149 612.00
63.4533 593.00
63.7575 615.00
64.0618 578.00
64.366 601.00
64.6703 868.00
64.9745 813.00
65.2788 658.00
65.5831 590.00
65.8873 922.00
66.1916 885.00
66.4959 631.00
66.8001 596.00
67.1044 551.00
67.4086 530.00
67.7129 559.00
68.0172 521.00
68.3214 553.00
68.6257 521.00
68.9299 552.00
69.2342 534.00
69.5385 529.00
69.8427 582.00
70.147 514.00
70.4512 523.00
70.7555 535.00
71.0598 564.00
71.364 697.00
71.6683 596.00
71.9725 580.00
72.2768 499.00
72.5811 521.00
72.8853 501.00
73.1896 548.00
73.4938 481.00
73.7981 491.00
74.1024 500.00
74.4066 508.00
74.7109 485.00
75.0151 448.00
75.3194 486.00
75.6237 502.00
75.9279 528.00
76.2322 500.00
76.5364 493.00
76.8407 456.00
77.145 472.00
77.4492 464.00
77.7535 480.00
78.0577 472.00
78.362 488.00
78.6663 680.00
78.9705 721.00
79.2748 513.00
79.579 496.00
79.8833 490.00
80.1876 463.00
80.4918 470.00
80.7961 468.00
81.1003 524.00
81.4046 546.00
81.7089 495.00
82.0131 504.00
82.3174 482.00
82.6217 445.00
82.9259 458.00
83.2302 468.00
83.5344 515.00
83.8387 646.00
84.143 537.00
84.4472 470.00
84.7515 481.00
85.0557 515.00
85.36 485.00
85.6643 480.00
85.9685 508.00
86.2728 474.00
86.577 457.00
86.8813 517.00
87.1856 487.00
87.4898 558.00
87.7941 478.00
88.0983 474.00
88.4026 486.00
88.7069 450.00
89.0111 459.00
89.3154 487.00
89.6196 558.00
89.9239 708.00
90.2282 577.00
90.5324 525.00
90.8367 627.00
91.1409 670.00
91.4452 575.00
91.7495 464.00
92.0537 434.00
92.358 481.00
92.6622 444.00
92.9665 470.00
93.2708 567.00
93.575 570.00
93.8793 482.00
94.1835 497.00
94.4878 442.00
94.7921 440.00
95.0963 475.00
95.4006 418.00
95.7048 490.00
96.0091 536.00
96.3134 521.00
96.6176 525.00
96.9219 469.00
97.2261 464.00
97.5304 472.00
97.8347 429.00
98.1389 492.00
98.4432 465.00
98.7474 432.00
99.0517 474.00
99.356 441.00
99.6602 483.00
99.9645 453.00
100.095 434.00

File: NSC_194.xy
9.903433 2816.00
10.2077 2763.00
10.512 2800.00
10.8162 2603.00
11.1205 2515.00
11.4247 2431.00
11.729 2436.00
12.0333 2425.00
12.3375 2758.00
12.6418 2266.00
12.946 2037.00
13.2503 2254.00
13.5546 2196.00
13.8588 2622.00
14.1631 2168.00
14.4673 2133.00
14.7716 2481.00
15.0759 2659.00
15.3801 2133.00
15.6844 1968.00
15.9886 1968.00
16.2929 2063.00
16.5972 1942.00
16.9014 2058.00
17.2057 2561.00
17.5099 2033.00
17.8142 2484.00
18.1185 1935.00
18.4227 1805.00
18.727 1765.00
19.0312 1833.00
19.3355 2410.00
19.6398 12456.00
19.944 3550.00
20.2483 1938.00
20.5525 1896.00
20.8568 1940.00
21.1611 2010.00
21.4653 2350.00
21.7696 2123.00
22.0738 1857.00
22.3781 1992.00
22.6824 2773.00
22.9866 2817.00
23.2909 1745.00
23.5951 1569.00
23.8994 1679.00
24.2037 2050.00
24.5079 3388.00
24.8122 2687.00
25.1164 1887.00
25.4207 1798.00
25.725 1582.00
26.0292 1670.00
26.3335 1512.00
26.6378 1528.00
26.942 1964.00
27.2463 1877.00
27.5505 1867.00
27.8548 5111.00
28.1591 2279.00
28.4633 7664.00
28.7676 7893.00
29.0718 2023.00
29.3761 1758.00
29.6804 4634.00
29.9846 1709.00
30.2889 2347.00
30.5931 1763.00
30.8974 2409.00
31.2017 6682.00
31.5059 3674.00
31.8102 7237.00
32.1144 4493.00
32.4187 1913.00
32.723 1692.00
33.0272 1826.00
33.3315 2207.00
33.6357 1850.00
33.94 2526.00
34.2443 9600.00
34.5485 5611.00
34.8528 3453.00
35.157 3975.00
35.4613 1923.00
35.7656 3486.00
36.0698 1865.00
36.3741 1958.00
36.6783 1418.00
36.9826 1456.00
37.2869 1379.00
37.5911 2425.00
37.8954 1229.00
38.1996 1200.00
38.5039 1316.00
38.8082 1460.00
39.1124 2030.00
39.4167 1465.00
39.7209 1840.00
40.0252 1568.00
40.3295 1289.00
40.6337 1314.00
40.938 1676.00
41.2422 2635.00
41.5465 2631.00
41.8508 1817.00
42.155 1974.00
42.4593 1555.00
42.7635 1308.00
43.0678 1212.00
43.3721 1218.00
43.6763 1201.00
43.9806 1253.00
44.2849 1387.00
44.5891 3198.00
44.8934 1768.00
45.1976 1635.00
45.5019 1540.00
45.8062 1888.00
46.1104 1822.00
46.4147 1480.00
46.7189 2490.00
47.0232 3016.00
47.3275 1539.00
47.6317 1260.00
47.936 1109.00
48.2402 1435.00
48.5445 1701.00
48.8488 1358.00
49.153 1721.00
49.4573 2067.00
49.7615 3053.00
50.0658 1924.00
50.3701 1931.00
50.6743 3331.00
50.9786 2698.00
51.2828 2942.00
51.5871 2184.00
51.8914 1685.00
52.1956 1502.00
52.4999 1786.00
52.8041 1389.00
53.1084 3165.00
53.4127 2171.00
53.7169 1357.00
54.0212 1324.00
54.3254 1589.00
54.6297 2071.00
54.934 1504.00
55.2382 1402.00
55.5425 1672.00
55.8467 2400.00
56.151 2355.00
56.4553 1746.00
56.7595 1650.00
57.0638 1534.00
57.368 1605.00
57.6723 1799.00
57.9766 1815.00
58.2808 1537.00
58.5851 1932.00
58.8893 2204.00
59.1936 3392.00
59.4979 1961.00
59.8021 1405.00
60.1064 1589.00
60.4106 2161.00
60.7149 2321.00
61.0192 2424.00
61.3234 1765.00
61.6277 1546.00
61.932 1735.00
62.2362 1670.00
62.5405 1848.00
62.8447 1793.00
63.149 1890.00
63.4533 1895.00
63.7575 1453.00
64.0618 1163.00
64.366 1362.00
64.6703 1743.00
64.9745 1402.00
65.2788 1237.00
65.5831 1318.00
65.8873 1992.00
66.1916 2309.00
66.4959 2145.00
66.8001 1800.00
67.1044 1249.00
67.4086 1104.00
67.7129 1057.00
68.0172 1325.00
68.3214 1305.00
68.6257 1160.00
68.9299 1107.00
69.2342 1119.00
69.5385 1242.00
69.8427 1253.00
70.147 1073.00
70.4512 1114.00
70.7555 1116.00
71.0598 1145.00
71.364 1628.00
71.6683 1823.00
71.9725 1712.00
72.2768 1338.00
72.5811 1219.00
72.8853 1246.00
73.1896 1222.00
73.4938 1278.00
73.7981 1348.00
74.1024 1218.00
74.4066 1124.00
74.7109 1174.00
75.0151 1383.00
75.3194 1341.00
75.6237 1264.00
75.9279 1312.00
76.2322 1278.00
76.5364 1184.00
76.8407 1302.00
77.145 1253.00
77.4492 1175.00
77.7535 1112.00
78.0577 1169.00
78.362 1203.00
78.6663 1061.00
78.9705 1086.00
79.2748 1110.00
79.579 1238.00
79.8833 1552.00
80.1876 1543.00
80.4918 1328.00
80.7961 1135.00
81.1003 1090.00
81.4046 1194.00
81.7089 1330.00
82.0131 1315.00
82.3174 1326.00
82.6217 1162.00
82.9259 1211.00
83.2302 1213.00
83.5344 1250.00
83.8387 1248.00
84.143 1257.00
84.4472 1270.00
84.7515 1326.00
85.0557 1315.00
85.36 1199.00
85.6643 1112.00
85.9685 1150.00
86.2728 1107.00
86.577 1341.00
86.8813 1311.00
87.1856 1423.00
87.4898 1318.00
87.7941 1170.00
88.0983 1333.00
88.4026 1425.00
88.7069 1429.00
89.0111 1339.00
89.3154 1354.00
89.6196 1349.00
89.9239 1330.00
90.2282 1322.00
90.5324 1280.00
90.8367 1175.00
91.1409 1254.00
91.4452 1206.00
91.7495 1132.00
92.0537 1134.00
92.358 1061.00
92.6622 1103.00
92.9665 1110.00
93.2708 1186.00
93.575 1172.00
93.8793 1108.00
94.1835 1068.00
94.4878 1253.00
94.7921 1298.00
95.0963 1261.00
95.4006 1170.00
95.7048 1183.00
96.0091 1254.00
96.3134 1258.00
96.6176 1147.00
96.9219 1256.00
97.2261 1271.00
97.5304 1317.00
97.8347 1308.00
98.1389 1168.00
98.4432 1139.00
98.7474 1200.00
99.0517 1291.00
99.356 1464.00
99.6602 1565.00
99.9645 1602.00
100.095 1555.00

File: NSC_195.xy
9.903433 3056.00
10.2077 2799.00
10.512 2888.00
10.8162 2751.00
11.1205 2603.00
11.4247 2614.00
11.729 2414.00
12.0333 2441.00
12.3375 2518.00
12.6418 2261.00
12.946 2291.00
13.2503 2232.00
13.5546 2225.00
13.8588 2303.00
14.1631 2906.00
14.4673 2032.00
14.7716 2219.00
15.0759 2373.00
15.3801 2127.00
15.6844 2027.00
15.9886 1987.00
16.2929 2029.00
16.5972 2027.00
16.9014 2160.00
17.2057 2699.00
17.5099 1844.00
17.8142 2055.00
18.1185 1801.00
18.4227 1828.00
18.727 1769.00
19.0312 1790.00
19.3355 1943.00
19.6398 3852.00
19.944 9994.00
20.2483 2037.00
20.5525 1683.00
20.8568 1680.00
21.1611 1694.00
21.4653 1774.00
21.7696 1927.00
22.0738 1619.00
22.3781 1606.00
22.6824 1906.00
22.9866 1881.00
23.2909 2428.00
23.5951 1476.00
23.8994 1399.00
24.2037 1788.00
24.5079 1730.00
24.8122 1839.00
25.1164 1520.00
25.4207 1673.00
25.725 1438.00
26.0292 1502.00
26.3335 1531.00
26.6378 2300.00
26.942 8335.00
27.2463 1970.00
27.5505 1488.00
27.8548 1850.00
28.1591 3889.00
28.4633 4699.00
28.7676 1709.00
29.0718 1365.00
29.3761 1361.00
29.6804 4198.00
29.9846 1336.00
30.2889 1409.00
30.5931 1961.00
30.8974 1471.00
31.2017 2131.00
31.5059 5982.00
31.8102 4076.00
32.1144 1398.00
32.4187 1251.00
32.723 1216.00
33.0272 1229.00
33.3315 1314.00
33.6357 1520.00
33.94 2347.00
34.2443 7766.00
34.5485 6059.00
34.8528 2165.00
35.157 2730.00
35.4613 1539.00
35.7656 1279.00
36.0698 1132.00
36.3741 1109.00
36.6783 1035.00
36.9826 1021.00
37.2869 1123.00
37.5911 2242.00
37.8954 1060.00
38.1996 2165.00
38.5039 1284.00
38.8082 1131.00
39.1124 1107.00
39.4167 1193.00
39.7209 1074.00
40.0252 1220.00
40.3295 1323.00
40.6337 982.00
40.938 1276.00
41.2422 1161.00
41.5465 1121.00
41.8508 1445.00
42.155 1228.00
42.4593 1161.00
42.7635 1177.00
43.0678 1044.00
43.3721 1008.00
43.6763 967.00
43.9806 918.00
44.2849 938.00
44.5891 1138.00
44.8934 1913.00
45.1976 1920.00
45.5019 1035.00
45.8062 1274.00
46.1104 1037.00
46.4147 947.00
46.7189 1068.00
47.0232 1477.00
47.3275 2447.00
47.6317 1425.00
47.936 909.00
48.2402 1005.00
48.5445 1352.00
48.8488 925.00
49.153 987.00
49.4573 1437.00
49.7615 1546.00
50.0658 1099.00
50.3701 1477.00
50.6743 1273.00
50.9786 1361.00
51.2828 1155.00
51.5871 1610.00
51.8914 2761.00
52.1956 3775.00
52.4999 1672.00
52.8041 970.00
53.1084 992.00
53.4127 1308.00
53.7169 1950.00
54.0212 1278.00
54.3254 1225.00
54.6297 870.00
54.934 1364.00
55.2382 1271.00
55.5425 1215.00
55.8467 1141.00
56.151 1026.00
56.4553 942.00
56.7595 783.00
57.0638 825.00
57.368 1101.00
57.6723 1034.00
57.9766 1131.00
58.2808 1234.00
58.5851 984.00
58.8893 937.00
59.1936 978.00
59.4979 1482.00
59.8021 1817.00
60.1064 1569.00
60.4106 1121.00
60.7149 966.00
61.0192 955.00
61.3234 1297.00
61.6277 1494.00
61.932 1281.00
62.2362 1506.00
62.5405 1006.00
62.8447 960.00
63.149 1129.00
63.4533 975.00
63.7575 1046.00
64.0618 865.00
64.366 1023.00
64.6703 1002.00
64.9745 1583.00
65.2788 1141.00
65.5831 985.00
65.8873 1658.00
66.1916 2047.00
66.4959 1260.00
66.8001 963.00
67.1044 1060.00
67.4086 1112.00
67.7129 845.00
68.0172 780.00
68.3214 759.00
68.6257 797.00
68.9299 967.00
69.2342 832.00
69.5385 760.00
69.8427 700.00
70.147 756.00
70.4512 705.00
70.7555 735.00
71.0598 787.00
71.364 969.00
71.6683 1103.00
71.9725 970.00
72.2768 1010.00
72.5811 926.00
72.8853 784.00
73.1896 722.00
73.4938 735.00
73.7981 812.00
74.1024 841.00
74.4066 855.00
74.7109 831.00
75.0151 700.00
75.3194 828.00
75.6237 918.00
75.9279 820.00
76.2322 808.00
76.5364 776.00
76.8407 710.00
77.145 671.00
77.4492 797.00
77.7535 811.00
78.0577 778.00
78.362 744.00
78.6663 760.00
78.9705 1189.00
79.2748 899.00
79.579 715.00
79.8833 648.00
80.1876 683.00
80.4918 788.00
80.7961 855.00
81.1003 916.00
81.4046 918.00
81.7089 819.00
82.0131 732.00
82.3174 777.00
82.6217 789.00
82.9259 737.00
83.2302 773.00
83.5344 755.00
83.8387 993.00
84.143 912.00
84.4472 793.00
84.7515 631.00
85.0557 668.00
85.36 607.00
85.6643 627.00
85.9685 639.00
86.2728 692.00
86.577 663.00
86.8813 671.00
87.1856 850.00
87.4898 1116.00
87.7941 974.00
88.0983 800.00
88.4026 800.00
88.7069 810.00
89.0111 810.00
89.3154 715.00
89.6196 789.00
89.9239 1098.00
90.2282 965.00
90.5324 858.00
90.8367 861.00
91.1409 1088.00
91.4452 950.00
91.7495 765.00
92.0537 672.00
92.358 662.00
92.6622 692.00
92.9665 725.00
93.2708 776.00
93.575 828.00
93.8793 810.00
94.1835 801.00
94.4878 737.00
94.7921 730.00
95.0963 694.00
95.4006 807.00
95.7048 748.00
96.0091 861.00
96.3134 923.00
96.6176 847.00
96.9219 767.00
97.2261 739.00
97.5304 669.00
97.8347 608.00
98.1389 639.00
98.4432 647.00
98.7474 604.00
99.0517 699.00
99.356 698.00
99.6602 679.00
99.9645 689.00
100.095 712.00

File: NSC_196.xy
9.903433 2798.00
10.2077 2716.00
10.512 2616.00
10.8162 2571.00
11.1205 2509.00
11.4247 2526.00
11.729 2378.00
12.0333 2247.00
12.3375 2159.00
12.6418 2091.00
12.946 2067.00
13.2503 2061.00
13.5546 2092.00
13.8588 2245.00
14.1631 3287.00
14.4673 2005.00
14.7716 1908.00
15.0759 2071.00
15.3801 1862.00
15.6844 1838.00
15.9886 1824.00
16.2929 1828.00
16.5972 1774.00
16.9014 1814.00
17.2057 2276.00
17.5099 1703.00
17.8142 2027.00
18.1185 1656.00
18.4227 1557.00
18.727 1595.00
19.0312 1653.00
19.3355 1922.00
19.6398 4568.00
19.944 15610.00
20.2483 1990.00
20.5525 1663.00
20.8568 1572.00
21.1611 1619.00
21.4653 1514.00
21.7696 1581.00
22.0738 1469.00
22.3781 1497.00
22.6824 1440.00
22.9866 1435.00
23.2909 2262.00
23.5951 1361.00
23.8994 1354.00
24.2037 1506.00
24.5079 2538.00
24.8122 1922.00
25.1164 1477.00
25.4207 1592.00
25.725 1297.00
26.0292 1332.00
26.3335 1411.00
26.6378 1868.00
26.942 7112.00
27.2463 1518.00
27.5505 1411.00
27.8548 1789.00
28.1591 5536.00
28.4633 3283.00
28.7676 5765.00
29.0718 1640.00
29.3761 1398.00
29.6804 3865.00
29.9846 1261.00
30.2889 1308.00
30.5931 1940.00
30.8974 1455.00
31.2017 2008.00
31.5059 7047.00
31.8102 4939.00
32.1144 3549.00
32.4187 1314.00
32.723 1204.00
33.0272 1186.00
33.3315 1255.00
33.6357 1331.00
33.94 1926.00
34.2443 6808.00
34.5485 9926.00
34.8528 2978.00
35.157 3035.00
35.4613 1259.00
35.7656 2612.00
36.0698 1242.00
36.3741 1451.00
36.6783 1031.00
36.9826 974.00
37.2869 1013.00
37.5911 2138.00
37.8954 1009.00
38.1996 2023.00
38.5039 1186.00
38.8082 987.00
39.1124 1586.00
39.4167 1140.00
39.7209 1046.00
40.0252 1566.00
40.3295 1357.00
40.6337 883.00
40.938 931.00
41.2422 1638.00
41.5465 1335.00
41.8508 1545.00
42.155 1213.00
42.4593 1325.00
42.7635 1584.00
43.0678 964.00
43.3721 875.00
43.6763 828.00
43.9806 810.00
44.2849 852.00
44.5891 1032.00
44.8934 2438.00
45.1976 2470.00
45.5019 1090.00
45.8062 1138.00
46.1104 1231.00
46.4147 971.00
46.7189 1009.00
47.0232 1536.00
47.3275 3305.00
47.6317 1825.00
47.936 824.00
48.2402 889.00
48.5445 1221.00
48.8488 850.00
49.153 855.00
49.4573 1144.00
49.7615 2079.00
50.0658 1420.00
50.3701 939.00
50.6743 2004.00
50.9786 1686.00
51.2828 1857.00
51.5871 1630.00
51.8914 3320.00
52.1956 3588.00
52.4999 1536.00
52.8041 876.00
53.1084 942.00
53.4127 1578.00
53.7169 2739.00
54.0212 1557.00
54.3254 998.00
54.6297 1465.00
54.934 1436.00
55.2382 1293.00
55.5425 972.00
55.8467 1517.00
56.151 1542.00
56.4553 1174.00
56.7595 1125.00
57.0638 845.00
57.368 834.00
57.6723 1091.00
57.9766 1432.00
58.2808 1142.00
58.5851 1252.00
58.8893 1185.00
59.1936 1159.00
59.4979 1764.00
59.8021 2684.00
60.1064 1770.00
60.4106 1511.00
60.7149 1462.00
61.0192 1072.00
61.3234 1370.00
61.6277 1647.00
61.932 1631.00
62.2362 1505.00
62.5405 1299.00
62.8447 984.00
63.149 1033.00
63.4533 1592.00
63.7575 1401.00
64.0618 1049.00
64.366 854.00
64.6703 1002.00
64.9745 1630.00
65.2788 1335.00
65.5831 896.00
65.8873 1336.00
66.1916 2080.00
66.4959 1673.00
66.8001 1148.00
67.1044 1271.00
67.4086 1379.00
67.7129 986.00
68.0172 737.00
68.3214 689.00
68.6257 927.00
68.9299 1030.00
69.2342 831.00
69.5385 829.00
69.8427 798.00
70.147 762.00
70.4512 713.00
70.7555 700.00
71.0598 673.00
71.364 815.00
71.6683 1113.00
71.9725 1204.00
72.2768 1119.00
72.5811 1049.00
72.8853 885.00
73.1896 801.00
73.4938 852.00
73.7981 833.00
74.1024 878.00
74.4066 958.00
74.7109 823.00
75.0151 692.00
75.3194 858.00
75.6237 1048.00
75.9279 1185.00
76.2322 976.00
76.5364 758.00
76.8407 751.00
77.145 852.00
77.4492 932.00
77.7535 928.00
78.0577 923.00
78.362 839.00
78.6663 800.00
78.9705 1137.00
79.2748 850.00
79.579 784.00
79.8833 790.00
80.1876 760.00
80.4918 863.00
80.7961 980.00
81.1003 1085.00
81.4046 1146.00
81.7089 842.00
82.0131 844.00
82.3174 985.00
82.6217 989.00
82.9259 884.00
83.2302 808.00
83.5344 750.00
83.8387 968.00
84.143 1089.00
84.4472 865.00
84.7515 844.00
85.0557 806.00
85.36 742.00
85.6643 710.00
85.9685 748.00
86.2728 682.00
86.577 640.00
86.8813 764.00
87.1856 890.00
87.4898 1109.00
87.7941 1058.00
88.0983 892.00
88.4026 893.00
88.7069 953.00
89.0111 907.00
89.3154 908.00
89.6196 921.00
89.9239 1098.00
90.2282 1093.00
90.5324 934.00
90.8367 1035.00
91.1409 1300.00
91.4452 932.00
91.7495 750.00
92.0537 783.00
92.358 781.00
92.6622 796.00
92.9665 726.00
93.2708 755.00
93.575 746.00
93.8793 776.00
94.1835 809.00
94.4878 856.00
94.7921 867.00
95.0963 752.00
95.4006 734.00
95.7048 861.00
96.0091 921.00
96.3134 1044.00
96.6176 886.00
96.9219 858.00
97.2261 836.00
97.5304 860.00
97.8347 804.00
98.1389 704.00
98.4432 738.00
98.7474 674.00
99.0517 824.00
99.356 821.00
99.6602 880.00
99.9645 903.00
100.095 945.00