Folder: alab-pipeline/data/xrd_creation/results (part 16)

File: Na_75.xy
9.903433 2565.00
10.2077 2497.00
10.512 2330.00
10.8162 2233.00
11.1205 2204.00
11.4247 2057.00
11.729 2008.00
12.0333 1897.00
12.3375 1869.00
12.6418 1684.00
12.946 1644.00
13.2503 1655.00
13.5546 1566.00
13.8588 1585.00
14.1631 1460.00
14.4673 1491.00
14.7716 1429.00
15.0759 1405.00
15.3801 1312.00
15.6844 1303.00
15.9886 1269.00
16.2929 1235.00
16.5972 1189.00
16.9014 1195.00
17.2057 1264.00
17.5099 1201.00
17.8142 1150.00
18.1185 1067.00
18.4227 1063.00
18.727 1059.00
19.0312 1000.00
19.3355 1015.00
19.6398 1001.00
19.944 1037.00
20.2483 992.00
20.5525 972.00
20.8568 940.00
21.1611 937.00
21.4653 882.00
21.7696 863.00
22.0738 845.00
22.3781 886.00
22.6824 840.00
22.9866 896.00
23.2909 846.00
23.5951 773.00
23.8994 790.00
24.2037 731.00
24.5079 780.00
24.8122 747.00
25.1164 924.00
25.4207 866.00
25.725 758.00
26.0292 654.00
26.3335 747.00
26.6378 734.00
26.942 659.00
27.2463 667.00
27.5505 678.00
27.8548 584.00
28.1591 642.00
28.4633 666.00
28.7676 633.00
29.0718 626.00
29.3761 728.00
29.6804 588.00
29.9846 545.00
30.2889 576.00
30.5931 559.00
30.8974 566.00
31.2017 569.00
31.5059 789.00
31.8102 547.00
32.1144 692.00
32.4187 551.00
32.723 669.00
33.0272 598.00
33.3315 538.00
33.6357 523.00
33.94 587.00
34.2443 482.00
34.5485 505.00
34.8528 503.00
35.157 433.00
35.4613 440.00
35.7656 467.00
36.0698 455.00
36.3741 415.00
36.6783 428.00
36.9826 427.00
37.2869 457.00
37.5911 428.00
37.8954 419.00
38.1996 343.00
38.5039 376.00
38.8082 361.00
39.1124 370.00
39.4167 362.00
39.7209 407.00
40.0252 374.00
40.3295 366.00
40.6337 405.00
40.938 386.00
41.2422 373.00
41.5465 381.00
41.8508 346.00
42.155 366.00
42.4593 355.00
42.7635 336.00
43.0678 354.00
43.3721 396.00
43.6763 335.00
43.9806 306.00
44.2849 370.00
44.5891 333.00
44.8934 329.00
45.1976 297.00
45.5019 372.00
45.8062 336.00
46.1104 328.00
46.4147 332.00
46.7189 296.00
47.0232 319.00
47.3275 371.00
47.6317 313.00
47.936 314.00
48.2402 240.00
48.5445 321.00
48.8488 293.00
49.153 282.00
49.4573 314.00
49.7615 276.00
50.0658 280.00
50.3701 301.00
50.6743 293.00
50.9786 290.00
51.2828 298.00
51.5871 310.00
51.8914 249.00
52.1956 283.00
52.4999 295.00
52.8041 287.00
53.1084 261.00
53.4127 281.00
53.7169 292.00
54.0212 267.00
54.3254 264.00
54.6297 242.00
54.934 282.00
55.2382 233.00
55.5425 277.00
55.8467 267.00
56.151 249.00
56.4553 237.00
56.7595 258.00
57.0638 263.00
57.368 273.00
57.6723 220.00
57.9766 220.00
58.2808 229.00
58.5851 245.00
58.8893 223.00
59.1936 256.00
59.4979 224.00
59.8021 226.00
60.1064 207.00
60.4106 225.00
60.7149 232.00
61.0192 206.00
61.3234 205.00
61.6277 257.00
61.932 228.00
62.2362 211.00
62.5405 221.00
62.8447 244.00
63.149 229.00
63.4533 228.00
63.7575 225.00
64.0618 187.00
64.366 228.00
64.6703 205.00
64.9745 216.00
65.2788 223.00
65.5831 182.00
65.8873 209.00
66.1916 203.00
66.4959 210.00
66.8001 174.00
67.1044 196.00
67.4086 201.00
67.7129 201.00
68.0172 176.00
68.3214 228.00
68.6257 210.00
68.9299 226.00
69.2342 210.00
69.5385 202.00
69.8427 210.00
70.147 203.00
70.4512 200.00
70.7555 205.00
71.0598 171.00
71.364 203.00
71.6683 206.00
71.9725 189.00
72.2768 183.00
72.5811 197.00
72.8853 226.00
73.1896 218.00
73.4938 215.00
73.7981 208.00
74.1024 201.00
74.4066 216.00
74.7109 161.00
75.0151 224.00
75.3194 195.00
75.6237 203.00
75.9279 205.00
76.2322 212.00
76.5364 230.00
76.8407 241.00
77.145 226.00
77.4492 214.00
77.7535 243.00
78.0577 204.00
78.362 227.00
78.6663 204.00
78.9705 226.00
79.2748 214.00
79.579 241.00
79.8833 223.00
80.1876 249.00
80.4918 243.00
80.7961 262.00
81.1003 224.00
81.4046 205.00
81.7089 218.00
82.0131 221.00
82.3174 267.00
82.6217 260.00
82.9259 245.00
83.2302 232.00
83.5344 268.00
83.8387 203.00
84.143 201.00
84.4472 240.00
84.7515 217.00
85.0557 201.00
85.36 201.00
85.6643 215.00
85.9685 204.00
86.2728 203.00
86.577 195.00
86.8813 201.00
87.1856 221.00
87.4898 198.00
87.7941 229.00
88.0983 212.00
88.4026 194.00
88.7069 192.00
89.0111 221.00
89.3154 192.00
89.6196 192.00
89.9239 195.00
90.2282 182.00
90.5324 199.00
90.8367 188.00
91.1409 199.00
91.4452 197.00
91.7495 185.00
92.0537 172.00
92.358 207.00
92.6622 189.00
92.9665 180.00
93.2708 200.00
93.575 173.00
93.8793 165.00
94.1835 191.00
94.4878 200.00
94.7921 204.00
95.0963 174.00
95.4006 181.00
95.7048 175.00
96.0091 193.00
96.3134 200.00
96.6176 197.00
96.9219 182.00
97.2261 188.00
97.5304 222.00
97.8347 197.00
98.1389 181.00
98.4432 174.00
98.7474 231.00
99.0517 183.00
99.356 184.00
99.6602 193.00
99.9645 192.00
100.095 173.00

File: Na_76.xy
9.903433 2841.00
10.2077 2791.00
10.512 2588.00
10.8162 2581.00
11.1205 2565.00
11.4247 2399.00
11.729 2959.00
12.0333 2230.00
12.3375 2220.00
12.6418 2168.00
12.946 2080.00
13.2503 2003.00
13.5546 1971.00
13.8588 1875.00
14.1631 1862.00
14.4673 1934.00
14.7716 1878.00
15.0759 1857.00
15.3801 1716.00
15.6844 1680.00
15.9886 1798.00
16.2929 1763.00
16.5972 1660.00
16.9014 1708.00
17.2057 1579.00
17.5099 1888.00
17.8142 3747.00
18.1185 1602.00
18.4227 1619.00
18.727 1844.00
19.0312 1593.00
19.3355 1645.00
19.6398 1386.00
19.944 1413.00
20.2483 1832.00
20.5525 1534.00
20.8568 1336.00
21.1611 1648.00
21.4653 1558.00
21.7696 1412.00
22.0738 1275.00
22.3781 1448.00
22.6824 5128.00
22.9866 1549.00
23.2909 3862.00
23.5951 2356.00
23.8994 1141.00
24.2037 1112.00
24.5079 1142.00
24.8122 1128.00
25.1164 1112.00
25.4207 3905.00
25.725 2596.00
26.0292 1367.00
26.3335 1238.00
26.6378 1147.00
26.942 2224.00
27.2463 1070.00
27.5505 974.00
27.8548 961.00
28.1591 1494.00
28.4633 1068.00
28.7676 960.00
29.0718 1539.00
29.3761 1405.00
29.6804 2860.00
29.9846 1184.00
30.2889 919.00
30.5931 858.00
30.8974 1054.00
31.2017 1866.00
31.5059 1594.00
31.8102 4818.00
32.1144 1693.00
32.4187 3765.00
32.723 3100.00
33.0272 2282.00
33.3315 2502.00
33.6357 1773.00
33.94 1125.00
34.2443 2157.00
34.5485 1622.00
34.8528 1211.00
35.157 1117.00
35.4613 925.00
35.7656 1102.00
36.0698 826.00
36.3741 1407.00
36.6783 762.00
36.9826 807.00
37.2869 776.00
37.5911 1605.00
37.8954 679.00
38.1996 631.00
38.5039 657.00
38.8082 711.00
39.1124 657.00
39.4167 919.00
39.7209 829.00
40.0252 643.00
40.3295 1028.00
40.6337 576.00
40.938 1127.00
41.2422 1228.00
41.5465 690.00
41.8508 1386.00
42.155 720.00
42.4593 821.00
42.7635 659.00
43.0678 629.00
43.3721 897.00
43.6763 1329.00
43.9806 1614.00
44.2849 782.00
44.5891 557.00
44.8934 544.00
45.1976 536.00
45.5019 764.00
45.8062 944.00
46.1104 1291.00
46.4147 761.00
46.7189 730.00
47.0232 1183.00
47.3275 1817.00
47.6317 1741.00
47.936 1291.00
48.2402 727.00
48.5445 658.00
48.8488 623.00
49.153 561.00
49.4573 562.00
49.7615 628.00
50.0658 695.00
50.3701 602.00
50.6743 520.00
50.9786 754.00
51.2828 620.00
51.5871 607.00
51.8914 754.00
52.1956 700.00
52.4999 826.00
52.8041 1388.00
53.1084 741.00
53.4127 978.00
53.7169 747.00
54.0212 740.00
54.3254 657.00
54.6297 856.00
54.934 899.00
55.2382 553.00
55.5425 416.00
55.8467 450.00
56.151 570.00
56.4553 726.00
56.7595 696.00
57.0638 880.00
57.368 1058.00
57.6723 857.00
57.9766 791.00
58.2808 464.00
58.5851 536.00
58.8893 700.00
59.1936 539.00
59.4979 565.00
59.8021 941.00
60.1064 675.00
60.4106 496.00
60.7149 770.00
61.0192 760.00
61.3234 536.00
61.6277 470.00
61.932 435.00
62.2362 445.00
62.5405 487.00
62.8447 501.00
63.149 610.00
63.4533 614.00
63.7575 651.00
64.0618 536.00
64.366 607.00
64.6703 595.00
64.9745 583.00
65.2788 446.00
65.5831 607.00
65.8873 607.00
66.1916 696.00
66.4959 658.00
66.8001 536.00
67.1044 451.00
67.4086 434.00
67.7129 726.00
68.0172 560.00
68.3214 391.00
68.6257 337.00
68.9299 371.00
69.2342 667.00
69.5385 567.00
69.8427 418.00
70.147 411.00
70.4512 497.00
70.7555 538.00
71.0598 435.00
71.364 379.00
71.6683 474.00
71.9725 767.00
72.2768 530.00
72.5811 476.00
72.8853 547.00
73.1896 418.00
73.4938 402.00
73.7981 352.00
74.1024 368.00
74.4066 341.00
74.7109 326.00
75.0151 392.00
75.3194 419.00
75.6237 388.00
75.9279 359.00
76.2322 515.00
76.5364 399.00
76.8407 400.00
77.145 483.00
77.4492 382.00
77.7535 428.00
78.0577 482.00
78.362 415.00
78.6663 363.00
78.9705 324.00
79.2748 402.00
79.579 470.00
79.8833 394.00
80.1876 406.00
80.4918 478.00
80.7961 482.00
81.1003 451.00
81.4046 536.00
81.7089 452.00
82.0131 344.00
82.3174 397.00
82.6217 361.00
82.9259 316.00
83.2302 372.00
83.5344 411.00
83.8387 346.00
84.143 395.00
84.4472 355.00
84.7515 406.00
85.0557 379.00
85.36 399.00
85.6643 367.00
85.9685 436.00
86.2728 458.00
86.577 411.00
86.8813 436.00
87.1856 385.00
87.4898 414.00
87.7941 372.00
88.0983 372.00
88.4026 463.00
88.7069 448.00
89.0111 399.00
89.3154 389.00
89.6196 316.00
89.9239 339.00
90.2282 328.00
90.5324 364.00
90.8367 380.00
91.1409 338.00
91.4452 382.00
91.7495 376.00
92.0537 358.00
92.358 385.00
92.6622 387.00
92.9665 379.00
93.2708 397.00
93.575 343.00
93.8793 367.00
94.1835 389.00
94.4878 300.00
94.7921 386.00
95.0963 367.00
95.4006 471.00
95.7048 486.00
96.0091 408.00
96.3134 387.00
96.6176 378.00
96.9219 338.00
97.2261 383.00
97.5304 291.00
97.8347 286.00
98.1389 320.00
98.4432 283.00
98.7474 318.00
99.0517 318.00
99.356 346.00
99.6602 344.00
99.9645 366.00
100.095 361.00

File: Na_77.xy
9.903433 2851.00
10.2077 2799.00
10.512 2713.00
10.8162 2675.00
11.1205 2462.00
11.4247 2515.00
11.729 2461.00
12.0333 2312.00
12.3375 2264.00
12.6418 2243.00
12.946 2198.00
13.2503 2038.00
13.5546 2016.00
13.8588 2150.00
14.1631 2091.00
14.4673 1965.00
14.7716 1987.00
15.0759 1914.00
15.3801 1943.00
15.6844 1887.00
15.9886 1744.00
16.2929 1799.00
16.5972 1742.00
16.9014 1701.00
17.2057 1676.00
17.5099 1680.00
17.8142 1676.00
18.1185 1628.00
18.4227 1646.00
18.727 1487.00
19.0312 1641.00
19.3355 2039.00
19.6398 1529.00
19.944 1605.00
20.2483 3553.00
20.5525 2738.00
20.8568 1526.00
21.1611 1492.00
21.4653 1417.00
21.7696 1477.00
22.0738 1404.00
22.3781 1407.00
22.6824 1281.00
22.9866 1339.00
23.2909 1600.00
23.5951 1340.00
23.8994 1257.00
24.2037 1288.00
24.5079 1168.00
24.8122 1303.00
25.1164 1117.00
25.4207 1083.00
25.725 1125.00
26.0292 1290.00
26.3335 1626.00
26.6378 3935.00
26.942 22271.00
27.2463 2449.00
27.5505 1524.00
27.8548 1307.00
28.1591 1183.00
28.4633 1377.00
28.7676 1157.00
29.0718 1063.00
29.3761 1020.00
29.6804 1049.00
29.9846 1059.00
30.2889 981.00
30.5931 1101.00
30.8974 1045.00
31.2017 929.00
31.5059 1077.00
31.8102 1019.00
32.1144 993.00
32.4187 1194.00
32.723 1144.00
33.0272 4670.00
33.3315 2724.00
33.6357 2826.00
33.94 2908.00
34.2443 16154.00
34.5485 2073.00
34.8528 1438.00
35.157 1028.00
35.4613 1017.00
35.7656 883.00
36.0698 961.00
36.3741 866.00
36.6783 952.00
36.9826 970.00
37.2869 1096.00
37.5911 1097.00
37.8954 984.00
38.1996 3551.00
38.5039 1749.00
38.8082 2255.00
39.1124 1163.00
39.4167 1371.00
39.7209 848.00
40.0252 704.00
40.3295 790.00
40.6337 741.00
40.938 690.00
41.2422 619.00
41.5465 662.00
41.8508 690.00
42.155 605.00
42.4593 757.00
42.7635 722.00
43.0678 890.00
43.3721 707.00
43.6763 749.00
43.9806 1107.00
44.2849 753.00
44.5891 641.00
44.8934 721.00
45.1976 825.00
45.5019 636.00
45.8062 604.00
46.1104 653.00
46.4147 562.00
46.7189 614.00
47.0232 616.00
47.3275 705.00
47.6317 1444.00
47.936 729.00
48.2402 684.00
48.5445 584.00
48.8488 584.00
49.153 613.00
49.4573 519.00
49.7615 517.00
50.0658 510.00
50.3701 514.00
50.6743 642.00
50.9786 606.00
51.2828 684.00
51.5871 937.00
51.8914 2817.00
52.1956 9503.00
52.4999 1739.00
52.8041 828.00
53.1084 609.00
53.4127 627.00
53.7169 616.00
54.0212 623.00
54.3254 605.00
54.6297 770.00
54.934 1552.00
55.2382 2105.00
55.5425 742.00
55.8467 590.00
56.151 667.00
56.4553 515.00
56.7595 565.00
57.0638 600.00
57.368 616.00
57.6723 670.00
57.9766 921.00
58.2808 1359.00
58.5851 607.00
58.8893 596.00
59.1936 861.00
59.4979 1222.00
59.8021 700.00
60.1064 650.00
60.4106 527.00
60.7149 500.00
61.0192 504.00
61.3234 501.00
61.6277 513.00
61.932 814.00
62.2362 2226.00
62.5405 942.00
62.8447 618.00
63.149 809.00
63.4533 606.00
63.7575 538.00
64.0618 507.00
64.366 498.00
64.6703 630.00
64.9745 2455.00
65.2788 1458.00
65.5831 1123.00
65.8873 886.00
66.1916 2630.00
66.4959 1826.00
66.8001 614.00
67.1044 466.00
67.4086 454.00
67.7129 482.00
68.0172 408.00
68.3214 384.00
68.6257 391.00
68.9299 407.00
69.2342 380.00
69.5385 383.00
69.8427 694.00
70.147 580.00
70.4512 490.00
70.7555 381.00
71.0598 450.00
71.364 653.00
71.6683 1143.00
71.9725 545.00
72.2768 433.00
72.5811 407.00
72.8853 438.00
73.1896 441.00
73.4938 431.00
73.7981 400.00
74.1024 349.00
74.4066 383.00
74.7109 486.00
75.0151 416.00
75.3194 358.00
75.6237 451.00
75.9279 416.00
76.2322 411.00
76.5364 378.00
76.8407 413.00
77.145 372.00
77.4492 391.00
77.7535 358.00
78.0577 368.00
78.362 390.00
78.6663 594.00
78.9705 1913.00
79.2748 1275.00
79.579 588.00
79.8833 377.00
80.1876 383.00
80.4918 384.00
80.7961 407.00
81.1003 426.00
81.4046 759.00
81.7089 589.00
82.0131 419.00
82.3174 413.00
82.6217 424.00
82.9259 432.00
83.2302 424.00
83.5344 410.00
83.8387 810.00
84.143 1173.00
84.4472 633.00
84.7515 478.00
85.0557 503.00
85.36 405.00
85.6643 379.00
85.9685 369.00
86.2728 341.00
86.577 343.00
86.8813 426.00
87.1856 464.00
87.4898 835.00
87.7941 662.00
88.0983 419.00
88.4026 392.00
88.7069 394.00
89.0111 371.00
89.3154 383.00
89.6196 462.00
89.9239 1121.00
90.2282 1183.00
90.5324 718.00
90.8367 587.00
91.1409 1529.00
91.4452 1098.00
91.7495 582.00
92.0537 482.00
92.358 430.00
92.6622 373.00
92.9665 416.00
93.2708 466.00
93.575 851.00
93.8793 637.00
94.1835 420.00
94.4878 381.00
94.7921 371.00
95.0963 332.00
95.4006 424.00
95.7048 411.00
96.0091 545.00
96.3134 710.00
96.6176 652.00
96.9219 381.00
97.2261 373.00
97.5304 348.00
97.8347 375.00
98.1389 372.00
98.4432 437.00
98.7474 391.00
99.0517 403.00
99.356 415.00
99.6602 369.00
99.9645 352.00
100.095 356.00

File: Na_78.xy
9.903433 2681.00
10.2077 2655.00
10.512 2526.00
10.8162 2468.00
11.1205 2362.00
11.4247 2220.00
11.729 2185.00
12.0333 2072.00
12.3375 2001.00
12.6418 1989.00
12.946 1920.00
13.2503 1796.00
13.5546 1887.00
13.8588 1783.00
14.1631 1813.00
14.4673 1764.00
14.7716 1751.00
15.0759 1695.00
15.3801 1631.00
15.6844 1567.00
15.9886 1581.00
16.2929 1518.00
16.5972 1509.00
16.9014 1571.00
17.2057 1523.00
17.5099 1515.00
17.8142 1414.00
18.1185 1500.00
18.4227 1447.00
18.727 1346.00
19.0312 1327.00
19.3355 1365.00
19.6398 1394.00
19.944 1506.00
20.2483 1248.00
20.5525 1347.00
20.8568 1528.00
21.1611 1207.00
21.4653 1154.00
21.7696 1202.00
22.0738 1100.00
22.3781 1059.00
22.6824 1078.00
22.9866 1028.00
23.2909 1064.00
23.5951 1053.00
23.8994 1145.00
24.2037 1109.00
24.5079 1138.00
24.8122 1029.00
25.1164 1043.00
25.4207 1083.00
25.725 1082.00
26.0292 1279.00
26.3335 1934.00
26.6378 4829.00
26.942 1565.00
27.2463 1175.00
27.5505 970.00
27.8548 1053.00
28.1591 928.00
28.4633 876.00
28.7676 980.00
29.0718 891.00
29.3761 973.00
29.6804 1297.00
29.9846 1434.00
30.2889 1070.00
30.5931 846.00
30.8974 843.00
31.2017 939.00
31.5059 882.00
31.8102 1191.00
32.1144 1220.00
32.4187 976.00
32.723 970.00
33.0272 946.00
33.3315 1070.00
33.6357 1660.00
33.94 4554.00
34.2443 1504.00
34.5485 1110.00
34.8528 865.00
35.157 912.00
35.4613 817.00
35.7656 854.00
36.0698 723.00
36.3741 781.00
36.6783 697.00
36.9826 671.00
37.2869 720.00
37.5911 772.00
37.8954 1821.00
38.1996 1131.00
38.5039 713.00
38.8082 724.00
39.1124 758.00
39.4167 675.00
39.7209 604.00
40.0252 636.00
40.3295 576.00
40.6337 565.00
40.938 593.00
41.2422 581.00
41.5465 647.00
41.8508 508.00
42.155 607.00
42.4593 581.00
42.7635 625.00
43.0678 513.00
43.3721 530.00
43.6763 513.00
43.9806 560.00
44.2849 502.00
44.5891 528.00
44.8934 517.00
45.1976 513.00
45.5019 463.00
45.8062 492.00
46.1104 480.00
46.4147 498.00
46.7189 476.00
47.0232 556.00
47.3275 524.00
47.6317 466.00
47.936 441.00
48.2402 549.00
48.5445 495.00
48.8488 441.00
49.153 491.00
49.4573 455.00
49.7615 437.00
50.0658 477.00
50.3701 540.00
50.6743 490.00
50.9786 592.00
51.2828 782.00
51.5871 1694.00
51.8914 3504.00
52.1956 1142.00
52.4999 767.00
52.8041 614.00
53.1084 585.00
53.4127 648.00
53.7169 540.00
54.0212 540.00
54.3254 562.00
54.6297 854.00
54.934 925.00
55.2382 464.00
55.5425 503.00
55.8467 442.00
56.151 418.00
56.4553 444.00
56.7595 484.00
57.0638 447.00
57.368 460.00
57.6723 557.00
57.9766 768.00
58.2808 568.00
58.5851 535.00
58.8893 525.00
59.1936 421.00
59.4979 455.00
59.8021 404.00
60.1064 434.00
60.4106 385.00
60.7149 412.00
61.0192 425.00
61.3234 500.00
61.6277 546.00
61.932 1130.00
62.2362 667.00
62.5405 544.00
62.8447 531.00
63.149 460.00
63.4533 526.00
63.7575 535.00
64.0618 492.00
64.366 519.00
64.6703 1018.00
64.9745 799.00
65.2788 523.00
65.5831 566.00
65.8873 1058.00
66.1916 854.00
66.4959 454.00
66.8001 411.00
67.1044 345.00
67.4086 398.00
67.7129 348.00
68.0172 372.00
68.3214 328.00
68.6257 305.00
68.9299 331.00
69.2342 339.00
69.5385 336.00
69.8427 307.00
70.147 321.00
70.4512 311.00
70.7555 328.00
71.0598 385.00
71.364 662.00
71.6683 415.00
71.9725 359.00
72.2768 345.00
72.5811 328.00
72.8853 293.00
73.1896 280.00
73.4938 262.00
73.7981 273.00
74.1024 288.00
74.4066 292.00
74.7109 307.00
75.0151 290.00
75.3194 328.00
75.6237 302.00
75.9279 302.00
76.2322 302.00
76.5364 273.00
76.8407 279.00
77.145 302.00
77.4492 287.00
77.7535 295.00
78.0577 324.00
78.362 369.00
78.6663 874.00
78.9705 702.00
79.2748 373.00
79.579 287.00
79.8833 323.00
80.1876 309.00
80.4918 339.00
80.7961 379.00
81.1003 442.00
81.4046 460.00
81.7089 317.00
82.0131 327.00
82.3174 285.00
82.6217 295.00
82.9259 313.00
83.2302 370.00
83.5344 390.00
83.8387 553.00
84.143 396.00
84.4472 342.00
84.7515 311.00
85.0557 321.00
85.36 272.00
85.6643 283.00
85.9685 256.00
86.2728 297.00
86.577 294.00
86.8813 297.00
87.1856 404.00
87.4898 440.00
87.7941 329.00
88.0983 357.00
88.4026 338.00
88.7069 325.00
89.0111 354.00
89.3154 354.00
89.6196 476.00
89.9239 624.00
90.2282 481.00
90.5324 452.00
90.8367 711.00
91.1409 655.00
91.4452 367.00
91.7495 322.00
92.0537 328.00
92.358 299.00
92.6622 323.00
92.9665 351.00
93.2708 541.00
93.575 398.00
93.8793 322.00
94.1835 364.00
94.4878 281.00
94.7921 356.00
95.0963 283.00
95.4006 302.00
95.7048 323.00
96.0091 499.00
96.3134 406.00
96.6176 317.00
96.9219 319.00
97.2261 277.00
97.5304 243.00
97.8347 241.00
98.1389 271.00
98.4432 277.00
98.7474 256.00
99.0517 262.00
99.356 239.00
99.6602 268.00
99.9645 296.00
100.095 269.00

File: Na_79.xy
9.903433 2657.00
10.2077 2503.00
10.512 2435.00
10.8162 2352.00
11.1205 2166.00
11.4247 2140.00
11.729 1979.00
12.0333 1961.00
12.3375 1795.00
12.6418 1842.00
12.946 1757.00
13.2503 1681.00
13.5546 1561.00
13.8588 1580.00
14.1631 1563.00
14.4673 1502.00
14.7716 1413.00
15.0759 1424.00
15.3801 1448.00
15.6844 1342.00
15.9886 1310.00
16.2929 1376.00
16.5972 1261.00
16.9014 1201.00
17.2057 1214.00
17.5099 1196.00
17.8142 1117.00
18.1185 1167.00
18.4227 1061.00
18.727 1116.00
19.0312 1025.00
19.3355 980.00
19.6398 1000.00
19.944 1231.00
20.2483 973.00
20.5525 948.00
20.8568 866.00
21.1611 900.00
21.4653 913.00
21.7696 891.00
22.0738 850.00
22.3781 851.00
22.6824 811.00
22.9866 805.00
23.2909 811.00
23.5951 783.00
23.8994 745.00
24.2037 735.00
24.5079 793.00
24.8122 736.00
25.1164 720.00
25.4207 712.00
25.725 719.00
26.0292 709.00
26.3335 1089.00
26.6378 1510.00
26.942 686.00
27.2463 622.00
27.5505 658.00
27.8548 581.00
28.1591 615.00
28.4633 643.00
28.7676 584.00
29.0718 563.00
29.3761 586.00
29.6804 596.00
29.9846 551.00
30.2889 522.00
30.5931 546.00
30.8974 503.00
31.2017 568.00
31.5059 513.00
31.8102 501.00
32.1144 506.00
32.4187 536.00
32.723 697.00
33.0272 680.00
33.3315 534.00
33.6357 730.00
33.94 1064.00
34.2443 497.00
34.5485 452.00
34.8528 481.00
35.157 440.00
35.4613 386.00
35.7656 458.00
36.0698 440.00
36.3741 389.00
36.6783 433.00
36.9826 361.00
37.2869 441.00
37.5911 428.00
37.8954 757.00
38.1996 441.00
38.5039 484.00
38.8082 396.00
39.1124 380.00
39.4167 329.00
39.7209 325.00
40.0252 366.00
40.3295 348.00
40.6337 343.00
40.938 359.00
41.2422 323.00
41.5465 352.00
41.8508 333.00
42.155 311.00
42.4593 356.00
42.7635 344.00
43.0678 370.00
43.3721 372.00
43.6763 351.00
43.9806 342.00
44.2849 310.00
44.5891 321.00
44.8934 328.00
45.1976 318.00
45.5019 303.00
45.8062 304.00
46.1104 287.00
46.4147 284.00
46.7189 278.00
47.0232 319.00
47.3275 324.00
47.6317 298.00
47.936 277.00
48.2402 288.00
48.5445 304.00
48.8488 272.00
49.153 292.00
49.4573 290.00
49.7615 278.00
50.0658 279.00
50.3701 266.00
50.6743 277.00
50.9786 239.00
51.2828 310.00
51.5871 558.00
51.8914 715.00
52.1956 304.00
52.4999 259.00
52.8041 238.00
53.1084 261.00
53.4127 294.00
53.7169 265.00
54.0212 222.00
54.3254 277.00
54.6297 379.00
54.934 288.00
55.2382 247.00
55.5425 211.00
55.8467 215.00
56.151 240.00
56.4553 244.00
56.7595 230.00
57.0638 224.00
57.368 273.00
57.6723 299.00
57.9766 296.00
58.2808 201.00
58.5851 206.00
58.8893 211.00
59.1936 244.00
59.4979 215.00
59.8021 217.00
60.1064 200.00
60.4106 183.00
60.7149 224.00
61.0192 193.00
61.3234 237.00
61.6277 237.00
61.932 330.00
62.2362 223.00
62.5405 184.00
62.8447 201.00
63.149 205.00
63.4533 174.00
63.7575 231.00
64.0618 195.00
64.366 213.00
64.6703 360.00
64.9745 237.00
65.2788 249.00
65.5831 232.00
65.8873 377.00
66.1916 226.00
66.4959 201.00
66.8001 191.00
67.1044 195.00
67.4086 227.00
67.7129 183.00
68.0172 181.00
68.3214 179.00
68.6257 198.00
68.9299 216.00
69.2342 204.00
69.5385 171.00
69.8427 188.00
70.147 193.00
70.4512 203.00
70.7555 196.00
71.0598 225.00
71.364 260.00
71.6683 201.00
71.9725 200.00
72.2768 193.00
72.5811 206.00
72.8853 190.00
73.1896 168.00
73.4938 208.00
73.7981 217.00
74.1024 201.00
74.4066 199.00
74.7109 195.00
75.0151 222.00
75.3194 188.00
75.6237 167.00
75.9279 194.00
76.2322 230.00
76.5364 190.00
76.8407 191.00
77.145 190.00
77.4492 198.00
77.7535 223.00
78.0577 243.00
78.362 241.00
78.6663 323.00
78.9705 269.00
79.2748 234.00
79.579 239.00
79.8833 240.00
80.1876 203.00
80.4918 228.00
80.7961 198.00
81.1003 266.00
81.4046 239.00
81.7089 210.00
82.0131 239.00
82.3174 224.00
82.6217 212.00
82.9259 227.00
83.2302 218.00
83.5344 271.00
83.8387 219.00
84.143 278.00
84.4472 222.00
84.7515 239.00
85.0557 223.00
85.36 220.00
85.6643 214.00
85.9685 197.00
86.2728 192.00
86.577 180.00
86.8813 199.00
87.1856 233.00
87.4898 196.00
87.7941 183.00
88.0983 215.00
88.4026 202.00
88.7069 200.00
89.0111 192.00
89.3154 193.00
89.6196 239.00
89.9239 210.00
90.2282 194.00
90.5324 205.00
90.8367 313.00
91.1409 228.00
91.4452 215.00
91.7495 206.00
92.0537 189.00
92.358 191.00
92.6622 200.00
92.9665 179.00
93.2708 226.00
93.575 209.00
93.8793 182.00
94.1835 186.00
94.4878 208.00
94.7921 203.00
95.0963 185.00
95.4006 180.00
95.7048 185.00
96.0091 211.00
96.3134 185.00
96.6176 170.00
96.9219 174.00
97.2261 176.00
97.5304 179.00
97.8347 188.00
98.1389 186.00
98.4432 180.00
98.7474 176.00
99.0517 177.00
99.356 172.00
99.6602 187.00
99.9645 186.00
100.095 175.00