Folder: alab-pipeline/data/xrd_creation/results (part 103)

File: PG_2438-1.xy
9.903433 2556.00
10.2077 2396.00
10.512 2280.00
10.8162 2206.00
11.1205 2177.00
11.4247 2014.00
11.729 1901.00
12.0333 1828.00
12.3375 1770.00
12.6418 1607.00
12.946 1564.00
13.2503 1433.00
13.5546 1555.00
13.8588 1498.00
14.1631 1410.00
14.4673 1396.00
14.7716 1299.00
15.0759 1272.00
15.3801 1233.00
15.6844 1202.00
15.9886 1175.00
16.2929 1146.00
16.5972 1137.00
16.9014 1113.00
17.2057 1071.00
17.5099 1090.00
17.8142 1044.00
18.1185 1065.00
18.4227 961.00
18.727 1050.00
19.0312 1016.00
19.3355 867.00
19.6398 908.00
19.944 889.00
20.2483 890.00
20.5525 869.00
20.8568 844.00
21.1611 817.00
21.4653 794.00
21.7696 745.00
22.0738 809.00
22.3781 766.00
22.6824 770.00
22.9866 697.00
23.2909 675.00
23.5951 686.00
23.8994 687.00
24.2037 700.00
24.5079 676.00
24.8122 651.00
25.1164 597.00
25.4207 599.00
25.725 619.00
26.0292 612.00
26.3335 591.00
26.6378 532.00
26.942 567.00
27.2463 601.00
27.5505 589.00
27.8548 580.00
28.1591 557.00
28.4633 505.00
28.7676 568.00
29.0718 534.00
29.3761 509.00
29.6804 480.00
29.9846 496.00
30.2889 476.00
30.5931 522.00
30.8974 501.00
31.2017 495.00
31.5059 425.00
31.8102 479.00
32.1144 459.00
32.4187 483.00
32.723 404.00
33.0272 421.00
33.3315 453.00
33.6357 407.00
33.94 430.00
34.2443 414.00
34.5485 392.00
34.8528 403.00
35.157 394.00
35.4613 376.00
35.7656 410.00
36.0698 375.00
36.3741 343.00
36.6783 396.00
36.9826 394.00
37.2869 365.00
37.5911 349.00
37.8954 336.00
38.1996 334.00
38.5039 318.00
38.8082 331.00
39.1124 306.00
39.4167 302.00
39.7209 303.00
40.0252 298.00
40.3295 310.00
40.6337 305.00
40.938 289.00
41.2422 318.00
41.5465 307.00
41.8508 327.00
42.155 280.00
42.4593 284.00
42.7635 315.00
43.0678 306.00
43.3721 278.00
43.6763 258.00
43.9806 295.00
44.2849 264.00
44.5891 284.00
44.8934 268.00
45.1976 244.00
45.5019 259.00
45.8062 268.00
46.1104 297.00
46.4147 236.00
46.7189 247.00
47.0232 210.00
47.3275 246.00
47.6317 237.00
47.936 268.00
48.2402 224.00
48.5445 246.00
48.8488 264.00
49.153 239.00
49.4573 226.00
49.7615 226.00
50.0658 236.00
50.3701 258.00
50.6743 246.00
50.9786 245.00
51.2828 241.00
51.5871 235.00
51.8914 233.00
52.1956 222.00
52.4999 212.00
52.8041 243.00
53.1084 228.00
53.4127 200.00
53.7169 191.00
54.0212 203.00
54.3254 235.00
54.6297 222.00
54.934 213.00
55.2382 220.00
55.5425 195.00
55.8467 180.00
56.151 204.00
56.4553 203.00
56.7595 201.00
57.0638 213.00
57.368 206.00
57.6723 212.00
57.9766 183.00
58.2808 187.00
58.5851 187.00
58.8893 199.00
59.1936 187.00
59.4979 159.00
59.8021 180.00
60.1064 183.00
60.4106 174.00
60.7149 179.00
61.0192 210.00
61.3234 173.00
61.6277 160.00
61.932 167.00
62.2362 171.00
62.5405 196.00
62.8447 191.00
63.149 161.00
63.4533 187.00
63.7575 191.00
64.0618 194.00
64.366 149.00
64.6703 186.00
64.9745 166.00
65.2788 162.00
65.5831 187.00
65.8873 178.00
66.1916 180.00
66.4959 201.00
66.8001 194.00
67.1044 147.00
67.4086 182.00
67.7129 164.00
68.0172 173.00
68.3214 152.00
68.6257 177.00
68.9299 176.00
69.2342 169.00
69.5385 179.00
69.8427 171.00
70.147 151.00
70.4512 164.00
70.7555 173.00
71.0598 151.00
71.364 173.00
71.6683 165.00
71.9725 184.00
72.2768 177.00
72.5811 183.00
72.8853 180.00
73.1896 195.00
73.4938 163.00
73.7981 177.00
74.1024 186.00
74.4066 193.00
74.7109 155.00
75.0151 172.00
75.3194 174.00
75.6237 158.00
75.9279 177.00
76.2322 187.00
76.5364 194.00
76.8407 195.00
77.145 177.00
77.4492 182.00
77.7535 192.00
78.0577 194.00
78.362 197.00
78.6663 186.00
78.9705 208.00
79.2748 213.00
79.579 209.00
79.8833 187.00
80.1876 201.00
80.4918 206.00
80.7961 196.00
81.1003 217.00
81.4046 190.00
81.7089 202.00
82.0131 235.00
82.3174 185.00
82.6217 203.00
82.9259 211.00
83.2302 174.00
83.5344 220.00
83.8387 168.00
84.143 195.00
84.4472 205.00
84.7515 187.00
85.0557 214.00
85.36 197.00
85.6643 183.00
85.9685 167.00
86.2728 204.00
86.577 197.00
86.8813 171.00
87.1856 177.00
87.4898 178.00
87.7941 176.00
88.0983 178.00
88.4026 183.00
88.7069 181.00
89.0111 183.00
89.3154 196.00
89.6196 177.00
89.9239 197.00
90.2282 160.00
90.5324 151.00
90.8367 183.00
91.1409 172.00
91.4452 166.00
91.7495 178.00
92.0537 164.00
92.358 162.00
92.6622 171.00
92.9665 170.00
93.2708 161.00
93.575 182.00
93.8793 164.00
94.1835 158.00
94.4878 147.00
94.7921 170.00
95.0963 156.00
95.4006 139.00
95.7048 157.00
96.0091 154.00
96.3134 168.00
96.6176 166.00
96.9219 154.00
97.2261 189.00
97.5304 147.00
97.8347 176.00
98.1389 153.00
98.4432 172.00
98.7474 170.00
99.0517 149.00
99.356 160.00
99.6602 179.00
99.9645 174.00
100.095 142.00

File: PG_2439-1.xy
9.903433 2569.00
10.2077 2489.00
10.512 2576.00
10.8162 2379.00
11.1205 2270.00
11.4247 2168.00
11.729 2034.00
12.0333 1929.00
12.3375 1893.00
12.6418 1789.00
12.946 1609.00
13.2503 1647.00
13.5546 1559.00
13.8588 1555.00
14.1631 1536.00
14.4673 1472.00
14.7716 1449.00
15.0759 1381.00
15.3801 1408.00
15.6844 1303.00
15.9886 1325.00
16.2929 1301.00
16.5972 1284.00
16.9014 1255.00
17.2057 1202.00
17.5099 1192.00
17.8142 1117.00
18.1185 1178.00
18.4227 1100.00
18.727 1100.00
19.0312 1121.00
19.3355 1009.00
19.6398 966.00
19.944 938.00
20.2483 995.00
20.5525 1016.00
20.8568 973.00
21.1611 993.00
21.4653 978.00
21.7696 942.00
22.0738 963.00
22.3781 917.00
22.6824 936.00
22.9866 866.00
23.2909 832.00
23.5951 841.00
23.8994 758.00
24.2037 833.00
24.5079 785.00
24.8122 817.00
25.1164 746.00
25.4207 714.00
25.725 791.00
26.0292 733.00
26.3335 731.00
26.6378 691.00
26.942 730.00
27.2463 736.00
27.5505 773.00
27.8548 724.00
28.1591 741.00
28.4633 756.00
28.7676 709.00
29.0718 728.00
29.3761 670.00
29.6804 665.00
29.9846 666.00
30.2889 752.00
30.5931 643.00
30.8974 587.00
31.2017 638.00
31.5059 632.00
31.8102 572.00
32.1144 593.00
32.4187 538.00
32.723 564.00
33.0272 593.00
33.3315 560.00
33.6357 605.00
33.94 538.00
34.2443 562.00
34.5485 526.00
34.8528 522.00
35.157 554.00
35.4613 506.00
35.7656 542.00
36.0698 489.00
36.3741 474.00
36.6783 494.00
36.9826 474.00
37.2869 502.00
37.5911 457.00
37.8954 420.00
38.1996 467.00
38.5039 442.00
38.8082 421.00
39.1124 460.00
39.4167 460.00
39.7209 414.00
40.0252 428.00
40.3295 402.00
40.6337 399.00
40.938 383.00
41.2422 392.00
41.5465 391.00
41.8508 404.00
42.155 412.00
42.4593 408.00
42.7635 419.00
43.0678 489.00
43.3721 414.00
43.6763 394.00
43.9806 389.00
44.2849 384.00
44.5891 353.00
44.8934 334.00
45.1976 370.00
45.5019 370.00
45.8062 326.00
46.1104 366.00
46.4147 369.00
46.7189 323.00
47.0232 338.00
47.3275 376.00
47.6317 328.00
47.936 343.00
48.2402 349.00
48.5445 367.00
48.8488 354.00
49.153 363.00
49.4573 356.00
49.7615 313.00
50.0658 328.00
50.3701 284.00
50.6743 336.00
50.9786 345.00
51.2828 329.00
51.5871 319.00
51.8914 319.00
52.1956 323.00
52.4999 324.00
52.8041 274.00
53.1084 317.00
53.4127 318.00
53.7169 306.00
54.0212 349.00
54.3254 332.00
54.6297 311.00
54.934 326.00
55.2382 288.00
55.5425 280.00
55.8467 277.00
56.151 287.00
56.4553 279.00
56.7595 278.00
57.0638 296.00
57.368 304.00
57.6723 270.00
57.9766 233.00
58.2808 290.00
58.5851 242.00
58.8893 276.00
59.1936 249.00
59.4979 243.00
59.8021 271.00
60.1064 271.00
60.4106 258.00
60.7149 242.00
61.0192 261.00
61.3234 229.00
61.6277 261.00
61.932 275.00
62.2362 260.00
62.5405 248.00
62.8447 247.00
63.149 286.00
63.4533 225.00
63.7575 236.00
64.0618 258.00
64.366 235.00
64.6703 292.00
64.9745 256.00
65.2788 258.00
65.5831 264.00
65.8873 243.00
66.1916 244.00
66.4959 231.00
66.8001 242.00
67.1044 264.00
67.4086 234.00
67.7129 270.00
68.0172 208.00
68.3214 242.00
68.6257 238.00
68.9299 230.00
69.2342 236.00
69.5385 257.00
69.8427 232.00
70.147 240.00
70.4512 238.00
70.7555 237.00
71.0598 260.00
71.364 248.00
71.6683 237.00
71.9725 247.00
72.2768 244.00
72.5811 269.00
72.8853 227.00
73.1896 238.00
73.4938 270.00
73.7981 246.00
74.1024 242.00
74.4066 223.00
74.7109 261.00
75.0151 237.00
75.3194 235.00
75.6237 277.00
75.9279 246.00
76.2322 263.00
76.5364 247.00
76.8407 257.00
77.145 284.00
77.4492 262.00
77.7535 224.00
78.0577 284.00
78.362 242.00
78.6663 247.00
78.9705 263.00
79.2748 270.00
79.579 293.00
79.8833 250.00
80.1876 257.00
80.4918 298.00
80.7961 264.00
81.1003 315.00
81.4046 248.00
81.7089 286.00
82.0131 234.00
82.3174 315.00
82.6217 293.00
82.9259 299.00
83.2302 267.00
83.5344 279.00
83.8387 260.00
84.143 272.00
84.4472 272.00
84.7515 268.00
85.0557 237.00
85.36 262.00
85.6643 243.00
85.9685 240.00
86.2728 270.00
86.577 251.00
86.8813 232.00
87.1856 234.00
87.4898 244.00
87.7941 244.00
88.0983 211.00
88.4026 261.00
88.7069 224.00
89.0111 244.00
89.3154 233.00
89.6196 222.00
89.9239 241.00
90.2282 241.00
90.5324 233.00
90.8367 233.00
91.1409 237.00
91.4452 216.00
91.7495 230.00
92.0537 237.00
92.358 248.00
92.6622 250.00
92.9665 231.00
93.2708 207.00
93.575 217.00
93.8793 232.00
94.1835 193.00
94.4878 235.00
94.7921 259.00
95.0963 198.00
95.4006 213.00
95.7048 211.00
96.0091 222.00
96.3134 232.00
96.6176 226.00
96.9219 222.00
97.2261 224.00
97.5304 211.00
97.8347 201.00
98.1389 215.00
98.4432 211.00
98.7474 217.00
99.0517 249.00
99.356 203.00
99.6602 229.00
99.9645 214.00
100.095 234.00

File: PG_2441-1.xy
9.903433 2604.00
10.2077 2427.00
10.512 2296.00
10.8162 2132.00
11.1205 2076.00
11.4247 2014.00
11.729 1897.00
12.0333 1824.00
12.3375 1720.00
12.6418 1719.00
12.946 1711.00
13.2503 1521.00
13.5546 1802.00
13.8588 1442.00
14.1631 1402.00
14.4673 1294.00
14.7716 1281.00
15.0759 1291.00
15.3801 1183.00
15.6844 1218.00
15.9886 1149.00
16.2929 1178.00
16.5972 1114.00
16.9014 1105.00
17.2057 1056.00
17.5099 1077.00
17.8142 1021.00
18.1185 1039.00
18.4227 988.00
18.727 1019.00
19.0312 897.00
19.3355 893.00
19.6398 931.00
19.944 922.00
20.2483 845.00
20.5525 867.00
20.8568 856.00
21.1611 864.00
21.4653 861.00
21.7696 781.00
22.0738 827.00
22.3781 750.00
22.6824 777.00
22.9866 723.00
23.2909 665.00
23.5951 728.00
23.8994 648.00
24.2037 672.00
24.5079 655.00
24.8122 631.00
25.1164 645.00
25.4207 625.00
25.725 631.00
26.0292 559.00
26.3335 590.00
26.6378 638.00
26.942 569.00
27.2463 656.00
27.5505 2682.00
27.8548 634.00
28.1591 617.00
28.4633 554.00
28.7676 574.00
29.0718 519.00
29.3761 523.00
29.6804 502.00
29.9846 520.00
30.2889 512.00
30.5931 559.00
30.8974 506.00
31.2017 506.00
31.5059 472.00
31.8102 610.00
32.1144 542.00
32.4187 449.00
32.723 451.00
33.0272 419.00
33.3315 436.00
33.6357 422.00
33.94 383.00
34.2443 442.00
34.5485 406.00
34.8528 494.00
35.157 428.00
35.4613 358.00
35.7656 392.00
36.0698 372.00
36.3741 386.00
36.6783 361.00
36.9826 383.00
37.2869 372.00
37.5911 337.00
37.8954 319.00
38.1996 365.00
38.5039 352.00
38.8082 346.00
39.1124 321.00
39.4167 336.00
39.7209 311.00
40.0252 338.00
40.3295 279.00
40.6337 289.00
40.938 283.00
41.2422 301.00
41.5465 275.00
41.8508 330.00
42.155 290.00
42.4593 282.00
42.7635 295.00
43.0678 308.00
43.3721 294.00
43.6763 271.00
43.9806 266.00
44.2849 313.00
44.5891 282.00
44.8934 281.00
45.1976 245.00
45.5019 268.00
45.8062 458.00
46.1104 287.00
46.4147 280.00
46.7189 237.00
47.0232 266.00
47.3275 235.00
47.6317 235.00
47.936 240.00
48.2402 258.00
48.5445 245.00
48.8488 273.00
49.153 238.00
49.4573 247.00
49.7615 231.00
50.0658 265.00
50.3701 237.00
50.6743 205.00
50.9786 220.00
51.2828 231.00
51.5871 228.00
51.8914 217.00
52.1956 256.00
52.4999 220.00
52.8041 236.00
53.1084 242.00
53.4127 196.00
53.7169 262.00
54.0212 191.00
54.3254 292.00
54.6297 310.00
54.934 224.00
55.2382 204.00
55.5425 185.00
55.8467 217.00
56.151 190.00
56.4553 187.00
56.7595 190.00
57.0638 328.00
57.368 200.00
57.6723 190.00
57.9766 200.00
58.2808 192.00
58.5851 201.00
58.8893 201.00
59.1936 201.00
59.4979 196.00
59.8021 181.00
60.1064 198.00
60.4106 149.00
60.7149 198.00
61.0192 203.00
61.3234 168.00
61.6277 176.00
61.932 153.00
62.2362 162.00
62.5405 167.00
62.8447 178.00
63.149 190.00
63.4533 173.00
63.7575 176.00
64.0618 175.00
64.366 164.00
64.6703 213.00
64.9745 167.00
65.2788 179.00
65.5831 165.00
65.8873 169.00
66.1916 182.00
66.4959 196.00
66.8001 162.00
67.1044 172.00
67.4086 169.00
67.7129 135.00
68.0172 162.00
68.3214 155.00
68.6257 157.00
68.9299 197.00
69.2342 156.00
69.5385 146.00
69.8427 182.00
70.147 165.00
70.4512 171.00
70.7555 161.00
71.0598 159.00
71.364 197.00
71.6683 181.00
71.9725 154.00
72.2768 181.00
72.5811 179.00
72.8853 160.00
73.1896 188.00
73.4938 177.00
73.7981 182.00
74.1024 189.00
74.4066 207.00
74.7109 205.00
75.0151 188.00
75.3194 180.00
75.6237 199.00
75.9279 175.00
76.2322 235.00
76.5364 185.00
76.8407 199.00
77.145 159.00
77.4492 167.00
77.7535 194.00
78.0577 225.00
78.362 195.00
78.6663 201.00
78.9705 204.00
79.2748 204.00
79.579 218.00
79.8833 211.00
80.1876 195.00
80.4918 210.00
80.7961 208.00
81.1003 207.00
81.4046 229.00
81.7089 187.00
82.0131 194.00
82.3174 228.00
82.6217 211.00
82.9259 194.00
83.2302 220.00
83.5344 202.00
83.8387 206.00
84.143 214.00
84.4472 193.00
84.7515 212.00
85.0557 209.00
85.36 202.00
85.6643 187.00
85.9685 187.00
86.2728 172.00
86.577 164.00
86.8813 193.00
87.1856 153.00
87.4898 199.00
87.7941 191.00
88.0983 156.00
88.4026 196.00
88.7069 184.00
89.0111 187.00
89.3154 168.00
89.6196 179.00
89.9239 189.00
90.2282 181.00
90.5324 191.00
90.8367 161.00
91.1409 190.00
91.4452 194.00
91.7495 204.00
92.0537 184.00
92.358 178.00
92.6622 159.00
92.9665 170.00
93.2708 160.00
93.575 169.00
93.8793 155.00
94.1835 164.00
94.4878 181.00
94.7921 162.00
95.0963 181.00
95.4006 176.00
95.7048 149.00
96.0091 166.00
96.3134 157.00
96.6176 143.00
96.9219 189.00
97.2261 156.00
97.5304 173.00
97.8347 150.00
98.1389 156.00
98.4432 158.00
98.7474 159.00
99.0517 157.00
99.356 163.00
99.6602 157.00
99.9645 183.00
100.095 150.00

File: PG_2443-1.xy
9.903433 3294.00
10.2077 3292.00
10.512 3179.00
10.8162 3106.00
11.1205 2950.00
11.4247 2926.00
11.729 2903.00
12.0333 2879.00
12.3375 2708.00
12.6418 2679.00
12.946 2731.00
13.2503 2613.00
13.5546 2656.00
13.8588 2614.00
14.1631 2613.00
14.4673 2629.00
14.7716 2484.00
15.0759 2550.00
15.3801 2503.00
15.6844 2538.00
15.9886 2577.00
16.2929 2492.00
16.5972 2497.00
16.9014 2511.00
17.2057 2632.00
17.5099 2586.00
17.8142 2634.00
18.1185 2623.00
18.4227 2786.00
18.727 2734.00
19.0312 2870.00
19.3355 2936.00
19.6398 3031.00
19.944 3150.00
20.2483 3152.00
20.5525 3157.00
20.8568 3290.00
21.1611 3521.00
21.4653 4038.00
21.7696 3918.00
22.0738 3557.00
22.3781 3405.00
22.6824 3345.00
22.9866 3315.00
23.2909 3508.00
23.5951 3563.00
23.8994 3606.00
24.2037 3276.00
24.5079 3302.00
24.8122 3259.00
25.1164 3212.00
25.4207 3261.00
25.725 3235.00
26.0292 3069.00
26.3335 3044.00
26.6378 2956.00
26.942 3081.00
27.2463 2811.00
27.5505 2795.00
27.8548 2731.00
28.1591 2620.00
28.4633 2693.00
28.7676 2564.00
29.0718 2528.00
29.3761 2442.00
29.6804 2498.00
29.9846 2525.00
30.2889 2652.00
30.5931 2629.00
30.8974 2623.00
31.2017 2409.00
31.5059 2485.00
31.8102 2530.00
32.1144 2506.00
32.4187 2289.00
32.723 2173.00
33.0272 2062.00
33.3315 2285.00
33.6357 2630.00
33.94 2475.00
34.2443 2146.00
34.5485 1873.00
34.8528 1748.00
35.157 1611.00
35.4613 1605.00
35.7656 1578.00
36.0698 1642.00
36.3741 1774.00
36.6783 1632.00
36.9826 1690.00
37.2869 1681.00
37.5911 1709.00
37.8954 1621.00
38.1996 1628.00
38.5039 1532.00
38.8082 1434.00
39.1124 1334.00
39.4167 1367.00
39.7209 1341.00
40.0252 1336.00
40.3295 1275.00
40.6337 1162.00
40.938 1142.00
41.2422 1148.00
41.5465 1040.00
41.8508 1139.00
42.155 1080.00
42.4593 1035.00
42.7635 1031.00
43.0678 1073.00
43.3721 1099.00
43.6763 1091.00
43.9806 997.00
44.2849 1016.00
44.5891 1039.00
44.8934 981.00
45.1976 966.00
45.5019 1019.00
45.8062 958.00
46.1104 976.00
46.4147 949.00
46.7189 953.00
47.0232 920.00
47.3275 901.00
47.6317 901.00
47.936 973.00
48.2402 944.00
48.5445 941.00
48.8488 941.00
49.153 980.00
49.4573 972.00
49.7615 971.00
50.0658 926.00
50.3701 893.00
50.6743 933.00
50.9786 951.00
51.2828 930.00
51.5871 952.00
51.8914 939.00
52.1956 880.00
52.4999 875.00
52.8041 862.00
53.1084 885.00
53.4127 873.00
53.7169 850.00
54.0212 815.00
54.3254 824.00
54.6297 836.00
54.934 837.00
55.2382 852.00
55.5425 829.00
55.8467 830.00
56.151 844.00
56.4553 858.00
56.7595 888.00
57.0638 902.00
57.368 908.00
57.6723 894.00
57.9766 890.00
58.2808 911.00
58.5851 893.00
58.8893 928.00
59.1936 932.00
59.4979 999.00
59.8021 1119.00
60.1064 1020.00
60.4106 1006.00
60.7149 958.00
61.0192 852.00
61.3234 877.00
61.6277 838.00
61.932 834.00
62.2362 864.00
62.5405 830.00
62.8447 795.00
63.149 833.00
63.4533 798.00
63.7575 809.00
64.0618 789.00
64.366 800.00
64.6703 860.00
64.9745 785.00
65.2788 794.00
65.5831 862.00
65.8873 801.00
66.1916 805.00
66.4959 808.00
66.8001 846.00
67.1044 802.00
67.4086 740.00
67.7129 781.00
68.0172 783.00
68.3214 766.00
68.6257 818.00
68.9299 747.00
69.2342 784.00
69.5385 749.00
69.8427 746.00
70.147 778.00
70.4512 763.00
70.7555 726.00
71.0598 781.00
71.364 724.00
71.6683 759.00
71.9725 711.00
72.2768 742.00
72.5811 732.00
72.8853 755.00
73.1896 734.00
73.4938 789.00
73.7981 786.00
74.1024 690.00
74.4066 708.00
74.7109 753.00
75.0151 716.00
75.3194 721.00
75.6237 685.00
75.9279 640.00
76.2322 674.00
76.5364 659.00
76.8407 629.00
77.145 641.00
77.4492 665.00
77.7535 594.00
78.0577 582.00
78.362 637.00
78.6663 619.00
78.9705 594.00
79.2748 611.00
79.579 589.00
79.8833 597.00
80.1876 619.00
80.4918 591.00
80.7961 595.00
81.1003 570.00
81.4046 551.00
81.7089 584.00
82.0131 590.00
82.3174 555.00
82.6217 559.00
82.9259 536.00
83.2302 549.00
83.5344 521.00
83.8387 533.00
84.143 480.00
84.4472 509.00
84.7515 500.00
85.0557 490.00
85.36 532.00
85.6643 509.00
85.9685 549.00
86.2728 472.00
86.577 501.00
86.8813 495.00
87.1856 457.00
87.4898 463.00
87.7941 478.00
88.0983 430.00
88.4026 488.00
88.7069 418.00
89.0111 431.00
89.3154 397.00
89.6196 437.00
89.9239 427.00
90.2282 397.00
90.5324 431.00
90.8367 424.00
91.1409 420.00
91.4452 377.00
91.7495 438.00
92.0537 382.00
92.358 399.00
92.6622 439.00
92.9665 415.00
93.2708 454.00
93.575 405.00
93.8793 400.00
94.1835 435.00
94.4878 407.00
94.7921 413.00
95.0963 428.00
95.4006 404.00
95.7048 418.00
96.0091 449.00
96.3134 475.00
96.6176 405.00
96.9219 398.00
97.2261 432.00
97.5304 372.00
97.8347 381.00
98.1389 422.00
98.4432 437.00
98.7474 400.00
99.0517 399.00
99.356 420.00
99.6602 420.00
99.9645 403.00
100.095 425.00

File: PG_2444-1.xy
9.903433 2616.00
10.2077 2553.00
10.512 2406.00
10.8162 2440.00
11.1205 2302.00
11.4247 2214.00
11.729 2192.00
12.0333 2115.00
12.3375 2045.00
12.6418 2035.00
12.946 1965.00
13.2503 1943.00
13.5546 1830.00
13.8588 1763.00
14.1631 1809.00
14.4673 1823.00
14.7716 1675.00
15.0759 1614.00
15.3801 1721.00
15.6844 1664.00
15.9886 1623.00
16.2929 1585.00
16.5972 1586.00
16.9014 1481.00
17.2057 1537.00
17.5099 1508.00
17.8142 1429.00
18.1185 1463.00
18.4227 1425.00
18.727 1429.00
19.0312 1344.00
19.3355 1384.00
19.6398 1317.00
19.944 1176.00
20.2483 1235.00
20.5525 1246.00
20.8568 1176.00
21.1611 1211.00
21.4653 1367.00
21.7696 1338.00
22.0738 1180.00
22.3781 1151.00
22.6824 1170.00
22.9866 1149.00
23.2909 1142.00
23.5951 1129.00
23.8994 1081.00
24.2037 1100.00
24.5079 1057.00
24.8122 1024.00
25.1164 1103.00
25.4207 995.00
25.725 1074.00
26.0292 1246.00
26.3335 1599.00
26.6378 4151.00
26.942 22178.00
27.2463 2204.00
27.5505 1251.00
27.8548 1108.00
28.1591 1059.00
28.4633 1005.00
28.7676 953.00
29.0718 918.00
29.3761 946.00
29.6804 965.00
29.9846 913.00
30.2889 827.00
30.5931 930.00
30.8974 1121.00
31.2017 870.00
31.5059 871.00
31.8102 988.00
32.1144 1034.00
32.4187 852.00
32.723 830.00
33.0272 831.00
33.3315 970.00
33.6357 1286.00
33.94 3427.00
34.2443 17122.00
34.5485 1894.00
34.8528 956.00
35.157 861.00
35.4613 790.00
35.7656 723.00
36.0698 721.00
36.3741 746.00
36.6783 696.00
36.9826 762.00
37.2869 809.00
37.5911 804.00
37.8954 946.00
38.1996 4869.00
38.5039 1262.00
38.8082 773.00
39.1124 817.00
39.4167 1160.00
39.7209 649.00
40.0252 635.00
40.3295 628.00
40.6337 537.00
40.938 533.00
41.2422 572.00
41.5465 526.00
41.8508 487.00
42.155 501.00
42.4593 548.00
42.7635 600.00
43.0678 728.00
43.3721 520.00
43.6763 508.00
43.9806 504.00
44.2849 483.00
44.5891 480.00
44.8934 482.00
45.1976 513.00
45.5019 458.00
45.8062 495.00
46.1104 463.00
46.4147 468.00
46.7189 507.00
47.0232 442.00
47.3275 464.00
47.6317 436.00
47.936 459.00
48.2402 450.00
48.5445 467.00
48.8488 416.00
49.153 511.00
49.4573 459.00
49.7615 488.00
50.0658 485.00
50.3701 519.00
50.6743 517.00
50.9786 552.00
51.2828 661.00
51.5871 1032.00
51.8914 3986.00
52.1956 10505.00
52.4999 1240.00
52.8041 662.00
53.1084 569.00
53.4127 553.00
53.7169 458.00
54.0212 506.00
54.3254 537.00
54.6297 637.00
54.934 2188.00
55.2382 1939.00
55.5425 533.00
55.8467 514.00
56.151 433.00
56.4553 495.00
56.7595 419.00
57.0638 425.00
57.368 458.00
57.6723 510.00
57.9766 1047.00
58.2808 1276.00
58.5851 527.00
58.8893 461.00
59.1936 428.00
59.4979 417.00
59.8021 470.00
60.1064 463.00
60.4106 394.00
60.7149 378.00
61.0192 414.00
61.3234 431.00
61.6277 503.00
61.932 883.00
62.2362 2528.00
62.5405 697.00
62.8447 512.00
63.149 446.00
63.4533 425.00
63.7575 453.00
64.0618 453.00
64.366 508.00
64.6703 746.00
64.9745 3309.00
65.2788 1324.00
65.5831 550.00
65.8873 782.00
66.1916 3895.00
66.4959 1665.00
66.8001 495.00
67.1044 404.00
67.4086 395.00
67.7129 408.00
68.0172 370.00
68.3214 363.00
68.6257 345.00
68.9299 397.00
69.2342 382.00
69.5385 408.00
69.8427 395.00
70.147 332.00
70.4512 398.00
70.7555 372.00
71.0598 386.00
71.364 819.00
71.6683 1262.00
71.9725 487.00
72.2768 364.00
72.5811 394.00
72.8853 349.00
73.1896 351.00
73.4938 333.00
73.7981 340.00
74.1024 317.00
74.4066 328.00
74.7109 379.00
75.0151 359.00
75.3194 342.00
75.6237 315.00
75.9279 321.00
76.2322 331.00
76.5364 322.00
76.8407 311.00
77.145 314.00
77.4492 290.00
77.7535 355.00
78.0577 338.00
78.362 367.00
78.6663 606.00
78.9705 2736.00
79.2748 1078.00
79.579 421.00
79.8833 337.00
80.1876 372.00
80.4918 344.00
80.7961 335.00
81.1003 434.00
81.4046 1060.00
81.7089 521.00
82.0131 365.00
82.3174 365.00
82.6217 319.00
82.9259 365.00
83.2302 349.00
83.5344 413.00
83.8387 1092.00
84.143 1233.00
84.4472 508.00
84.7515 356.00
85.0557 337.00
85.36 311.00
85.6643 329.00
85.9685 340.00
86.2728 303.00
86.577 313.00
86.8813 344.00
87.1856 411.00
87.4898 972.00
87.7941 647.00
88.0983 341.00
88.4026 333.00
88.7069 334.00
89.0111 335.00
89.3154 374.00
89.6196 515.00
89.9239 1487.00
90.2282 1350.00
90.5324 584.00
90.8367 688.00
91.1409 2261.00
91.4452 1308.00
91.7495 452.00
92.0537 383.00
92.358 327.00
92.6622 348.00
92.9665 357.00
93.2708 523.00
93.575 1001.00
93.8793 676.00
94.1835 370.00
94.4878 303.00
94.7921 292.00
95.0963 290.00
95.4006 327.00
95.7048 320.00
96.0091 530.00
96.3134 783.00
96.6176 611.00
96.9219 356.00
97.2261 301.00
97.5304 318.00
97.8347 296.00
98.1389 312.00
98.4432 268.00
98.7474 295.00
99.0517 331.00
99.356 340.00
99.6602 300.00
99.9645 320.00
100.095 314.00