Folder: alab-pipeline/data/xrd_creation/results (part 25)

File: Na_192.xy
9.903433 2850.00
10.2077 2803.00
10.512 2775.00
10.8162 2662.00
11.1205 2634.00
11.4247 3492.00
11.729 10823.00
12.0333 2803.00
12.3375 2402.00
12.6418 2372.00
12.946 2245.00
13.2503 2242.00
13.5546 2168.00
13.8588 2089.00
14.1631 2130.00
14.4673 2069.00
14.7716 2163.00
15.0759 2215.00
15.3801 1920.00
15.6844 1978.00
15.9886 1987.00
16.2929 2220.00
16.5972 6620.00
16.9014 1966.00
17.2057 1963.00
17.5099 1872.00
17.8142 1970.00
18.1185 3974.00
18.4227 1918.00
18.727 1776.00
19.0312 1703.00
19.3355 1635.00
19.6398 1802.00
19.944 1748.00
20.2483 1568.00
20.5525 1658.00
20.8568 1693.00
21.1611 1754.00
21.4653 1619.00
21.7696 1549.00
22.0738 1482.00
22.3781 1471.00
22.6824 1494.00
22.9866 1585.00
23.2909 1889.00
23.5951 1811.00
23.8994 1527.00
24.2037 1777.00
24.5079 3037.00
24.8122 2935.00
25.1164 1696.00
25.4207 1545.00
25.725 1622.00
26.0292 4529.00
26.3335 6504.00
26.6378 1730.00
26.942 3817.00
27.2463 1694.00
27.5505 2135.00
27.8548 7804.00
28.1591 2212.00
28.4633 1825.00
28.7676 1408.00
29.0718 1372.00
29.3761 1312.00
29.6804 1319.00
29.9846 1569.00
30.2889 2022.00
30.5931 1398.00
30.8974 1385.00
31.2017 1458.00
31.5059 2797.00
31.8102 3066.00
32.1144 2081.00
32.4187 1348.00
32.723 1386.00
33.0272 2490.00
33.3315 4687.00
33.6357 1400.00
33.94 1848.00
34.2443 4703.00
34.5485 8574.00
34.8528 4111.00
35.157 1406.00
35.4613 1194.00
35.7656 1196.00
36.0698 1209.00
36.3741 1338.00
36.6783 1114.00
36.9826 1197.00
37.2869 1269.00
37.5911 1124.00
37.8954 1329.00
38.1996 1445.00
38.5039 1165.00
38.8082 1059.00
39.1124 1203.00
39.4167 1139.00
39.7209 1176.00
40.0252 1109.00
40.3295 1193.00
40.6337 978.00
40.938 1027.00
41.2422 1265.00
41.5465 1227.00
41.8508 1679.00
42.155 1798.00
42.4593 1545.00
42.7635 1572.00
43.0678 1113.00
43.3721 1105.00
43.6763 1353.00
43.9806 1217.00
44.2849 954.00
44.5891 1012.00
44.8934 1026.00
45.1976 1222.00
45.5019 1272.00
45.8062 1062.00
46.1104 1099.00
46.4147 1050.00
46.7189 1056.00
47.0232 1263.00
47.3275 1706.00
47.6317 1817.00
47.936 2227.00
48.2402 1197.00
48.5445 1148.00
48.8488 1145.00
49.153 1198.00
49.4573 1526.00
49.7615 1801.00
50.0658 1836.00
50.3701 1746.00
50.6743 1508.00
50.9786 1064.00
51.2828 1525.00
51.5871 1898.00
51.8914 1271.00
52.1956 1863.00
52.4999 1152.00
52.8041 1168.00
53.1084 1178.00
53.4127 1082.00
53.7169 1100.00
54.0212 1175.00
54.3254 1148.00
54.6297 1053.00
54.934 1025.00
55.2382 1084.00
55.5425 1172.00
55.8467 1241.00
56.151 1076.00
56.4553 1230.00
56.7595 1190.00
57.0638 1445.00
57.368 1276.00
57.6723 1104.00
57.9766 1189.00
58.2808 1671.00
58.5851 1736.00
58.8893 1422.00
59.1936 1091.00
59.4979 1716.00
59.8021 2726.00
60.1064 1479.00
60.4106 1866.00
60.7149 1158.00
61.0192 1161.00
61.3234 1001.00
61.6277 926.00
61.932 1147.00
62.2362 1650.00
62.5405 1094.00
62.8447 1294.00
63.149 949.00
63.4533 962.00
63.7575 914.00
64.0618 979.00
64.366 1109.00
64.6703 1126.00
64.9745 1178.00
65.2788 940.00
65.5831 947.00
65.8873 1124.00
66.1916 1286.00
66.4959 1129.00
66.8001 948.00
67.1044 1016.00
67.4086 891.00
67.7129 969.00
68.0172 919.00
68.3214 936.00
68.6257 1015.00
68.9299 862.00
69.2342 1025.00
69.5385 900.00
69.8427 822.00
70.147 794.00
70.4512 792.00
70.7555 727.00
71.0598 827.00
71.364 841.00
71.6683 873.00
71.9725 973.00
72.2768 1188.00
72.5811 825.00
72.8853 797.00
73.1896 1048.00
73.4938 852.00
73.7981 788.00
74.1024 781.00
74.4066 876.00
74.7109 781.00
75.0151 782.00
75.3194 768.00
75.6237 820.00
75.9279 864.00
76.2322 847.00
76.5364 805.00
76.8407 885.00
77.145 834.00
77.4492 933.00
77.7535 737.00
78.0577 820.00
78.362 795.00
78.6663 802.00
78.9705 1014.00
79.2748 1049.00
79.579 953.00
79.8833 829.00
80.1876 920.00
80.4918 901.00
80.7961 811.00
81.1003 875.00
81.4046 822.00
81.7089 869.00
82.0131 744.00
82.3174 769.00
82.6217 812.00
82.9259 782.00
83.2302 763.00
83.5344 727.00
83.8387 830.00
84.143 832.00
84.4472 769.00
84.7515 787.00
85.0557 964.00
85.36 986.00
85.6643 1011.00
85.9685 858.00
86.2728 844.00
86.577 791.00
86.8813 753.00
87.1856 830.00
87.4898 814.00
87.7941 720.00
88.0983 705.00
88.4026 747.00
88.7069 836.00
89.0111 797.00
89.3154 745.00
89.6196 819.00
89.9239 933.00
90.2282 833.00
90.5324 858.00
90.8367 894.00
91.1409 982.00
91.4452 828.00
91.7495 830.00
92.0537 813.00
92.358 795.00
92.6622 787.00
92.9665 748.00
93.2708 724.00
93.575 713.00
93.8793 713.00
94.1835 676.00
94.4878 701.00
94.7921 749.00
95.0963 688.00
95.4006 727.00
95.7048 759.00
96.0091 794.00
96.3134 798.00
96.6176 821.00
96.9219 805.00
97.2261 843.00
97.5304 780.00
97.8347 869.00
98.1389 832.00
98.4432 736.00
98.7474 732.00
99.0517 759.00
99.356 769.00
99.6602 805.00
99.9645 887.00
100.095 852.00

File: Na_203.xy
9.903433 2880.00
10.2077 2779.00
10.512 2741.00
10.8162 2652.00
11.1205 2494.00
11.4247 3188.00
11.729 10042.00
12.0333 8252.00
12.3375 2414.00
12.6418 2201.00
12.946 2155.00
13.2503 2026.00
13.5546 1962.00
13.8588 1879.00
14.1631 1824.00
14.4673 1830.00
14.7716 1823.00
15.0759 1848.00
15.3801 1711.00
15.6844 1740.00
15.9886 1943.00
16.2929 1709.00
16.5972 2243.00
16.9014 1655.00
17.2057 1504.00
17.5099 1692.00
17.8142 1669.00
18.1185 1928.00
18.4227 3169.00
18.727 1848.00
19.0312 1316.00
19.3355 1453.00
19.6398 1411.00
19.944 1319.00
20.2483 1375.00
20.5525 1307.00
20.8568 1436.00
21.1611 1796.00
21.4653 1289.00
21.7696 1216.00
22.0738 1271.00
22.3781 1146.00
22.6824 1101.00
22.9866 1310.00
23.2909 1903.00
23.5951 1079.00
23.8994 1663.00
24.2037 1325.00
24.5079 1596.00
24.8122 1456.00
25.1164 2162.00
25.4207 1474.00
25.725 1213.00
26.0292 2662.00
26.3335 1542.00
26.6378 3989.00
26.942 1029.00
27.2463 989.00
27.5505 1165.00
27.8548 1504.00
28.1591 1839.00
28.4633 2880.00
28.7676 1001.00
29.0718 1019.00
29.3761 1536.00
29.6804 994.00
29.9846 933.00
30.2889 1104.00
30.5931 868.00
30.8974 1287.00
31.2017 1299.00
31.5059 858.00
31.8102 955.00
32.1144 936.00
32.4187 812.00
32.723 871.00
33.0272 1042.00
33.3315 5855.00
33.6357 3004.00
33.94 1639.00
34.2443 1292.00
34.5485 1188.00
34.8528 1224.00
35.157 7882.00
35.4613 1206.00
35.7656 698.00
36.0698 1094.00
36.3741 812.00
36.6783 639.00
36.9826 736.00
37.2869 716.00
37.5911 618.00
37.8954 655.00
38.1996 622.00
38.5039 590.00
38.8082 1001.00
39.1124 652.00
39.4167 613.00
39.7209 807.00
40.0252 572.00
40.3295 550.00
40.6337 647.00
40.938 589.00
41.2422 649.00
41.5465 693.00
41.8508 650.00
42.155 605.00
42.4593 800.00
42.7635 966.00
43.0678 1070.00
43.3721 539.00
43.6763 591.00
43.9806 507.00
44.2849 1009.00
44.5891 742.00
44.8934 739.00
45.1976 635.00
45.5019 624.00
45.8062 579.00
46.1104 951.00
46.4147 593.00
46.7189 665.00
47.0232 2078.00
47.3275 1529.00
47.6317 562.00
47.936 669.00
48.2402 615.00
48.5445 1361.00
48.8488 1378.00
49.153 633.00
49.4573 815.00
49.7615 697.00
50.0658 693.00
50.3701 707.00
50.6743 965.00
50.9786 1322.00
51.2828 823.00
51.5871 604.00
51.8914 638.00
52.1956 1534.00
52.4999 635.00
52.8041 461.00
53.1084 474.00
53.4127 518.00
53.7169 658.00
54.0212 550.00
54.3254 594.00
54.6297 743.00
54.934 490.00
55.2382 453.00
55.5425 524.00
55.8467 480.00
56.151 593.00
56.4553 649.00
56.7595 660.00
57.0638 823.00
57.368 567.00
57.6723 580.00
57.9766 405.00
58.2808 681.00
58.5851 622.00
58.8893 601.00
59.1936 1392.00
59.4979 601.00
59.8021 781.00
60.1064 689.00
60.4106 1314.00
60.7149 1180.00
61.0192 778.00
61.3234 951.00
61.6277 527.00
61.932 538.00
62.2362 391.00
62.5405 590.00
62.8447 387.00
63.149 368.00
63.4533 426.00
63.7575 485.00
64.0618 661.00
64.366 686.00
64.6703 351.00
64.9745 384.00
65.2788 653.00
65.5831 487.00
65.8873 420.00
66.1916 362.00
66.4959 457.00
66.8001 434.00
67.1044 540.00
67.4086 439.00
67.7129 439.00
68.0172 385.00
68.3214 489.00
68.6257 391.00
68.9299 366.00
69.2342 435.00
69.5385 424.00
69.8427 608.00
70.147 362.00
70.4512 429.00
70.7555 381.00
71.0598 374.00
71.364 594.00
71.6683 409.00
71.9725 374.00
72.2768 378.00
72.5811 386.00
72.8853 393.00
73.1896 368.00
73.4938 373.00
73.7981 529.00
74.1024 508.00
74.4066 435.00
74.7109 534.00
75.0151 374.00
75.3194 407.00
75.6237 409.00
75.9279 337.00
76.2322 356.00
76.5364 388.00
76.8407 311.00
77.145 324.00
77.4492 312.00
77.7535 339.00
78.0577 521.00
78.362 707.00
78.6663 404.00
78.9705 345.00
79.2748 505.00
79.579 366.00
79.8833 371.00
80.1876 510.00
80.4918 490.00
80.7961 382.00
81.1003 319.00
81.4046 397.00
81.7089 350.00
82.0131 435.00
82.3174 421.00
82.6217 377.00
82.9259 359.00
83.2302 311.00
83.5344 265.00
83.8387 318.00
84.143 311.00
84.4472 298.00
84.7515 306.00
85.0557 315.00
85.36 308.00
85.6643 286.00
85.9685 295.00
86.2728 319.00
86.577 322.00
86.8813 348.00
87.1856 397.00
87.4898 312.00
87.7941 346.00
88.0983 287.00
88.4026 321.00
88.7069 314.00
89.0111 290.00
89.3154 301.00
89.6196 388.00
89.9239 335.00
90.2282 304.00
90.5324 336.00
90.8367 378.00
91.1409 367.00
91.4452 316.00
91.7495 275.00
92.0537 332.00
92.358 306.00
92.6622 339.00
92.9665 332.00
93.2708 354.00
93.575 320.00
93.8793 317.00
94.1835 343.00
94.4878 348.00
94.7921 300.00
95.0963 283.00
95.4006 297.00
95.7048 321.00
96.0091 305.00
96.3134 324.00
96.6176 319.00
96.9219 323.00
97.2261 480.00
97.5304 443.00
97.8347 327.00
98.1389 384.00
98.4432 350.00
98.7474 423.00
99.0517 377.00
99.356 390.00
99.6602 414.00
99.9645 352.00
100.095 335.00

File: Na_204.xy
9.903433 2696.00
10.2077 2654.00
10.512 2582.00
10.8162 2445.00
11.1205 2491.00
11.4247 3212.00
11.729 6387.00
12.0333 4820.00
12.3375 2169.00
12.6418 2112.00
12.946 1948.00
13.2503 1897.00
13.5546 1891.00
13.8588 1806.00
14.1631 1762.00
14.4673 1800.00
14.7716 1808.00
15.0759 1790.00
15.3801 1658.00
15.6844 1710.00
15.9886 1771.00
16.2929 1699.00
16.5972 1918.00
16.9014 1576.00
17.2057 1496.00
17.5099 1615.00
17.8142 1584.00
18.1185 2012.00
18.4227 2899.00
18.727 1638.00
19.0312 1365.00
19.3355 1420.00
19.6398 1404.00
19.944 1269.00
20.2483 1284.00
20.5525 1221.00
20.8568 1343.00
21.1611 1963.00
21.4653 1232.00
21.7696 1142.00
22.0738 1260.00
22.3781 1213.00
22.6824 1134.00
22.9866 1153.00
23.2909 1417.00
23.5951 1117.00
23.8994 1522.00
24.2037 1485.00
24.5079 1522.00
24.8122 1483.00
25.1164 2022.00
25.4207 1352.00
25.725 1183.00
26.0292 2748.00
26.3335 1464.00
26.6378 2444.00
26.942 1004.00
27.2463 988.00
27.5505 1085.00
27.8548 1373.00
28.1591 1868.00
28.4633 2854.00
28.7676 993.00
29.0718 1032.00
29.3761 1402.00
29.6804 992.00
29.9846 848.00
30.2889 1113.00
30.5931 936.00
30.8974 1344.00
31.2017 1114.00
31.5059 911.00
31.8102 957.00
32.1144 959.00
32.4187 840.00
32.723 814.00
33.0272 1010.00
33.3315 4629.00
33.6357 2527.00
33.94 1876.00
34.2443 1353.00
34.5485 1416.00
34.8528 1274.00
35.157 6973.00
35.4613 1088.00
35.7656 660.00
36.0698 1060.00
36.3741 867.00
36.6783 723.00
36.9826 767.00
37.2869 705.00
37.5911 673.00
37.8954 623.00
38.1996 609.00
38.5039 602.00
38.8082 900.00
39.1124 655.00
39.4167 617.00
39.7209 697.00
40.0252 552.00
40.3295 577.00
40.6337 654.00
40.938 578.00
41.2422 662.00
41.5465 673.00
41.8508 661.00
42.155 556.00
42.4593 723.00
42.7635 909.00
43.0678 1020.00
43.3721 516.00
43.6763 542.00
43.9806 574.00
44.2849 936.00
44.5891 691.00
44.8934 639.00
45.1976 565.00
45.5019 573.00
45.8062 573.00
46.1104 919.00
46.4147 592.00
46.7189 673.00
47.0232 2228.00
47.3275 1092.00
47.6317 502.00
47.936 739.00
48.2402 656.00
48.5445 1306.00
48.8488 996.00
49.153 640.00
49.4573 739.00
49.7615 716.00
50.0658 704.00
50.3701 701.00
50.6743 935.00
50.9786 1228.00
51.2828 840.00
51.5871 565.00
51.8914 638.00
52.1956 1614.00
52.4999 499.00
52.8041 487.00
53.1084 467.00
53.4127 503.00
53.7169 642.00
54.0212 586.00
54.3254 588.00
54.6297 795.00
54.934 532.00
55.2382 439.00
55.5425 530.00
55.8467 509.00
56.151 612.00
56.4553 623.00
56.7595 621.00
57.0638 701.00
57.368 591.00
57.6723 499.00
57.9766 417.00
58.2808 708.00
58.5851 606.00
58.8893 624.00
59.1936 1396.00
59.4979 543.00
59.8021 848.00
60.1064 627.00
60.4106 2100.00
60.7149 1361.00
61.0192 769.00
61.3234 1045.00
61.6277 564.00
61.932 502.00
62.2362 450.00
62.5405 685.00
62.8447 413.00
63.149 364.00
63.4533 421.00
63.7575 515.00
64.0618 702.00
64.366 649.00
64.6703 372.00
64.9745 377.00
65.2788 553.00
65.5831 518.00
65.8873 432.00
66.1916 403.00
66.4959 467.00
66.8001 434.00
67.1044 453.00
67.4086 401.00
67.7129 432.00
68.0172 414.00
68.3214 503.00
68.6257 363.00
68.9299 396.00
69.2342 515.00
69.5385 427.00
69.8427 573.00
70.147 431.00
70.4512 368.00
70.7555 360.00
71.0598 446.00
71.364 640.00
71.6683 401.00
71.9725 371.00
72.2768 391.00
72.5811 372.00
72.8853 357.00
73.1896 332.00
73.4938 330.00
73.7981 490.00
74.1024 455.00
74.4066 434.00
74.7109 419.00
75.0151 353.00
75.3194 459.00
75.6237 355.00
75.9279 332.00
76.2322 341.00
76.5364 371.00
76.8407 354.00
77.145 289.00
77.4492 292.00
77.7535 350.00
78.0577 478.00
78.362 625.00
78.6663 372.00
78.9705 351.00
79.2748 406.00
79.579 317.00
79.8833 344.00
80.1876 554.00
80.4918 436.00
80.7961 328.00
81.1003 334.00
81.4046 397.00
81.7089 343.00
82.0131 418.00
82.3174 357.00
82.6217 379.00
82.9259 380.00
83.2302 303.00
83.5344 283.00
83.8387 337.00
84.143 316.00
84.4472 318.00
84.7515 284.00
85.0557 280.00
85.36 306.00
85.6643 309.00
85.9685 309.00
86.2728 323.00
86.577 320.00
86.8813 326.00
87.1856 362.00
87.4898 333.00
87.7941 347.00
88.0983 335.00
88.4026 334.00
88.7069 298.00
89.0111 321.00
89.3154 323.00
89.6196 349.00
89.9239 319.00
90.2282 312.00
90.5324 358.00
90.8367 367.00
91.1409 378.00
91.4452 316.00
91.7495 298.00
92.0537 346.00
92.358 323.00
92.6622 293.00
92.9665 345.00
93.2708 340.00
93.575 303.00
93.8793 313.00
94.1835 367.00
94.4878 340.00
94.7921 297.00
95.0963 271.00
95.4006 294.00
95.7048 326.00
96.0091 288.00
96.3134 326.00
96.6176 325.00
96.9219 298.00
97.2261 435.00
97.5304 372.00
97.8347 306.00
98.1389 373.00
98.4432 365.00
98.7474 437.00
99.0517 367.00
99.356 403.00
99.6602 422.00
99.9645 337.00
100.095 348.00

File: Na_205.xy
9.903433 3041.00
10.2077 3178.00
10.512 3470.00
10.8162 2855.00
11.1205 2787.00
11.4247 2704.00
11.729 2751.00
12.0333 3451.00
12.3375 2529.00
12.6418 2386.00
12.946 2402.00
13.2503 2314.00
13.5546 2390.00
13.8588 2258.00
14.1631 2427.00
14.4673 2175.00
14.7716 2156.00
15.0759 2169.00
15.3801 2157.00
15.6844 2161.00
15.9886 2180.00
16.2929 2270.00
16.5972 2203.00
16.9014 2079.00
17.2057 2105.00
17.5099 2106.00
17.8142 2258.00
18.1185 2015.00
18.4227 1987.00
18.727 2035.00
19.0312 1862.00
19.3355 1888.00
19.6398 2480.00
19.944 3426.00
20.2483 1972.00
20.5525 2241.00
20.8568 3719.00
21.1611 2075.00
21.4653 1781.00
21.7696 1856.00
22.0738 1845.00
22.3781 1916.00
22.6824 1948.00
22.9866 2612.00
23.2909 3187.00
23.5951 2196.00
23.8994 2593.00
24.2037 4732.00
24.5079 2424.00
24.8122 2675.00
25.1164 1826.00
25.4207 1892.00
25.725 1799.00
26.0292 1858.00
26.3335 1953.00
26.6378 1740.00
26.942 1760.00
27.2463 1842.00
27.5505 1840.00
27.8548 2075.00
28.1591 2974.00
28.4633 9997.00
28.7676 2098.00
29.0718 1904.00
29.3761 1667.00
29.6804 1770.00
29.9846 1894.00
30.2889 2269.00
30.5931 2080.00
30.8974 1910.00
31.2017 2254.00
31.5059 5256.00
31.8102 7679.00
32.1144 1914.00
32.4187 1747.00
32.723 1587.00
33.0272 1668.00
33.3315 1656.00
33.6357 1817.00
33.94 3670.00
34.2443 8919.00
34.5485 4253.00
34.8528 1934.00
35.157 1587.00
35.4613 2225.00
35.7656 2014.00
36.0698 1688.00
36.3741 1628.00
36.6783 1568.00
36.9826 1492.00
37.2869 1521.00
37.5911 1482.00
37.8954 1422.00
38.1996 1430.00
38.5039 1400.00
38.8082 1881.00
39.1124 1454.00
39.4167 1495.00
39.7209 1553.00
40.0252 1450.00
40.3295 1508.00
40.6337 1582.00
40.938 2248.00
41.2422 1699.00
41.5465 2141.00
41.8508 1562.00
42.155 1590.00
42.4593 1433.00
42.7635 1303.00
43.0678 1435.00
43.3721 1488.00
43.6763 1488.00
43.9806 1366.00
44.2849 1306.00
44.5891 1365.00
44.8934 1513.00
45.1976 1780.00
45.5019 1499.00
45.8062 1963.00
46.1104 1476.00
46.4147 1586.00
46.7189 1546.00
47.0232 2509.00
47.3275 1862.00
47.6317 1399.00
47.936 1422.00
48.2402 1310.00
48.5445 1322.00
48.8488 1703.00
49.153 3150.00
49.4573 2807.00
49.7615 1644.00
50.0658 1603.00
50.3701 3466.00
50.6743 2014.00
50.9786 2020.00
51.2828 1516.00
51.5871 1670.00
51.8914 1406.00
52.1956 1361.00
52.4999 1290.00
52.8041 1349.00
53.1084 1627.00
53.4127 1426.00
53.7169 1365.00
54.0212 1404.00
54.3254 2318.00
54.6297 1492.00
54.934 1452.00
55.2382 1411.00
55.5425 2212.00
55.8467 2259.00
56.151 2050.00
56.4553 1376.00
56.7595 1129.00
57.0638 1243.00
57.368 1781.00
57.6723 1342.00
57.9766 1397.00
58.2808 1566.00
58.5851 1450.00
58.8893 1309.00
59.1936 1648.00
59.4979 1512.00
59.8021 1412.00
60.1064 2031.00
60.4106 1684.00
60.7149 1621.00
61.0192 2027.00
61.3234 1503.00
61.6277 1803.00
61.932 1602.00
62.2362 1921.00
62.5405 1307.00
62.8447 1323.00
63.149 1880.00
63.4533 1252.00
63.7575 1126.00
64.0618 1110.00
64.366 1284.00
64.6703 1316.00
64.9745 1238.00
65.2788 1291.00
65.5831 1305.00
65.8873 1633.00
66.1916 1410.00
66.4959 1207.00
66.8001 1127.00
67.1044 1071.00
67.4086 1075.00
67.7129 1054.00
68.0172 1080.00
68.3214 1099.00
68.6257 1043.00
68.9299 1034.00
69.2342 1116.00
69.5385 1050.00
69.8427 1092.00
70.147 1092.00
70.4512 1019.00
70.7555 1012.00
71.0598 1055.00
71.364 1491.00
71.6683 1402.00
71.9725 1168.00
72.2768 1134.00
72.5811 1093.00
72.8853 1071.00
73.1896 1054.00
73.4938 943.00
73.7981 937.00
74.1024 1003.00
74.4066 945.00
74.7109 994.00
75.0151 1166.00
75.3194 1258.00
75.6237 1083.00
75.9279 958.00
76.2322 979.00
76.5364 1032.00
76.8407 1056.00
77.145 1020.00
77.4492 1086.00
77.7535 1060.00
78.0577 966.00
78.362 965.00
78.6663 979.00
78.9705 1064.00
79.2748 1027.00
79.579 916.00
79.8833 958.00
80.1876 1004.00
80.4918 1000.00
80.7961 932.00
81.1003 925.00
81.4046 1005.00
81.7089 1129.00
82.0131 1094.00
82.3174 1008.00
82.6217 1071.00
82.9259 1079.00
83.2302 1123.00
83.5344 1137.00
83.8387 1049.00
84.143 1089.00
84.4472 1049.00
84.7515 1004.00
85.0557 1089.00
85.36 999.00
85.6643 910.00
85.9685 927.00
86.2728 985.00
86.577 1036.00
86.8813 1049.00
87.1856 916.00
87.4898 1020.00
87.7941 1039.00
88.0983 1028.00
88.4026 1170.00
88.7069 1198.00
89.0111 1048.00
89.3154 921.00
89.6196 995.00
89.9239 1083.00
90.2282 1131.00
90.5324 942.00
90.8367 985.00
91.1409 928.00
91.4452 983.00
91.7495 946.00
92.0537 923.00
92.358 937.00
92.6622 908.00
92.9665 901.00
93.2708 896.00
93.575 859.00
93.8793 948.00
94.1835 896.00
94.4878 894.00
94.7921 933.00
95.0963 1037.00
95.4006 1025.00
95.7048 979.00
96.0091 858.00
96.3134 1069.00
96.6176 1108.00
96.9219 1067.00
97.2261 1094.00
97.5304 894.00
97.8347 826.00
98.1389 959.00
98.4432 956.00
98.7474 929.00
99.0517 983.00
99.356 1005.00
99.6602 1080.00
99.9645 1048.00
100.095 936.00

File: Na_206.xy
9.903433 2907.00
10.2077 2834.00
10.512 2996.00
10.8162 2646.00
11.1205 2583.00
11.4247 2554.00
11.729 2592.00
12.0333 3785.00
12.3375 2468.00
12.6418 2264.00
12.946 2167.00
13.2503 2129.00
13.5546 2110.00
13.8588 2169.00
14.1631 2291.00
14.4673 1967.00
14.7716 2027.00
15.0759 1915.00
15.3801 1947.00
15.6844 1938.00
15.9886 1894.00
16.2929 1943.00
16.5972 1867.00
16.9014 1922.00
17.2057 1814.00
17.5099 1856.00
17.8142 1919.00
18.1185 1741.00
18.4227 1752.00
18.727 1757.00
19.0312 1687.00
19.3355 1800.00
19.6398 2325.00
19.944 2783.00
20.2483 1755.00
20.5525 1863.00
20.8568 2669.00
21.1611 1731.00
21.4653 1584.00
21.7696 1534.00
22.0738 1563.00
22.3781 1575.00
22.6824 1807.00
22.9866 2867.00
23.2909 3570.00
23.5951 2288.00
23.8994 2145.00
24.2037 3327.00
24.5079 2115.00
24.8122 2271.00
25.1164 1600.00
25.4207 1619.00
25.725 1557.00
26.0292 1598.00
26.3335 1648.00
26.6378 1570.00
26.942 1481.00
27.2463 1522.00
27.5505 1484.00
27.8548 1715.00
28.1591 2866.00
28.4633 6620.00
28.7676 1708.00
29.0718 1514.00
29.3761 1448.00
29.6804 1518.00
29.9846 1698.00
30.2889 2320.00
30.5931 2001.00
30.8974 1695.00
31.2017 2224.00
31.5059 5909.00
31.8102 6374.00
32.1144 1738.00
32.4187 1414.00
32.723 1402.00
33.0272 1439.00
33.3315 1475.00
33.6357 1624.00
33.94 3961.00
34.2443 7992.00
34.5485 3168.00
34.8528 1599.00
35.157 1401.00
35.4613 1837.00
35.7656 1618.00
36.0698 1401.00
36.3741 1494.00
36.6783 1385.00
36.9826 1265.00
37.2869 1297.00
37.5911 1270.00
37.8954 1179.00
38.1996 1244.00
38.5039 1262.00
38.8082 1556.00
39.1124 1219.00
39.4167 1250.00
39.7209 1341.00
40.0252 1240.00
40.3295 1304.00
40.6337 1350.00
40.938 1829.00
41.2422 1617.00
41.5465 1959.00
41.8508 1419.00
42.155 1640.00
42.4593 1380.00
42.7635 1234.00
43.0678 1255.00
43.3721 1388.00
43.6763 1227.00
43.9806 1176.00
44.2849 1167.00
44.5891 1266.00
44.8934 1456.00
45.1976 1524.00
45.5019 1262.00
45.8062 1587.00
46.1104 1362.00
46.4147 1616.00
46.7189 1464.00
47.0232 2931.00
47.3275 2093.00
47.6317 1359.00
47.936 1239.00
48.2402 1180.00
48.5445 1167.00
48.8488 1414.00
49.153 2340.00
49.4573 2119.00
49.7615 1400.00
50.0658 1387.00
50.3701 2938.00
50.6743 1983.00
50.9786 1780.00
51.2828 1430.00
51.5871 1489.00
51.8914 1409.00
52.1956 1269.00
52.4999 1164.00
52.8041 1126.00
53.1084 1561.00
53.4127 1359.00
53.7169 1279.00
54.0212 1221.00
54.3254 1886.00
54.6297 1431.00
54.934 1276.00
55.2382 1286.00
55.5425 1778.00
55.8467 1839.00
56.151 1629.00
56.4553 1219.00
56.7595 1109.00
57.0638 1163.00
57.368 1494.00
57.6723 1261.00
57.9766 1225.00
58.2808 1324.00
58.5851 1350.00
58.8893 1269.00
59.1936 1731.00
59.4979 1585.00
59.8021 1289.00
60.1064 1716.00
60.4106 1454.00
60.7149 1510.00
61.0192 1784.00
61.3234 1376.00
61.6277 1423.00
61.932 1391.00
62.2362 1884.00
62.5405 1225.00
62.8447 1215.00
63.149 1527.00
63.4533 1170.00
63.7575 989.00
64.0618 1046.00
64.366 1110.00
64.6703 1157.00
64.9745 1093.00
65.2788 1112.00
65.5831 1176.00
65.8873 1396.00
66.1916 1253.00
66.4959 1102.00
66.8001 1059.00
67.1044 938.00
67.4086 1010.00
67.7129 1011.00
68.0172 1022.00
68.3214 923.00
68.6257 898.00
68.9299 954.00
69.2342 985.00
69.5385 1032.00
69.8427 949.00
70.147 989.00
70.4512 999.00
70.7555 892.00
71.0598 972.00
71.364 1377.00
71.6683 1171.00
71.9725 1099.00
72.2768 1017.00
72.5811 988.00
72.8853 1010.00
73.1896 911.00
73.4938 879.00
73.7981 857.00
74.1024 824.00
74.4066 917.00
74.7109 844.00
75.0151 1031.00
75.3194 1117.00
75.6237 1004.00
75.9279 896.00
76.2322 885.00
76.5364 1006.00
76.8407 966.00
77.145 956.00
77.4492 960.00
77.7535 952.00
78.0577 824.00
78.362 875.00
78.6663 796.00
78.9705 969.00
79.2748 971.00
79.579 844.00
79.8833 952.00
80.1876 1025.00
80.4918 890.00
80.7961 841.00
81.1003 850.00
81.4046 841.00
81.7089 1056.00
82.0131 975.00
82.3174 932.00
82.6217 1019.00
82.9259 978.00
83.2302 949.00
83.5344 998.00
83.8387 890.00
84.143 997.00
84.4472 929.00
84.7515 849.00
85.0557 882.00
85.36 880.00
85.6643 921.00
85.9685 877.00
86.2728 950.00
86.577 933.00
86.8813 887.00
87.1856 852.00
87.4898 929.00
87.7941 900.00
88.0983 901.00
88.4026 975.00
88.7069 980.00
89.0111 892.00
89.3154 839.00
89.6196 917.00
89.9239 1033.00
90.2282 1004.00
90.5324 896.00
90.8367 824.00
91.1409 861.00
91.4452 870.00
91.7495 917.00
92.0537 893.00
92.358 800.00
92.6622 880.00
92.9665 880.00
93.2708 764.00
93.575 798.00
93.8793 828.00
94.1835 896.00
94.4878 832.00
94.7921 808.00
95.0963 813.00
95.4006 826.00
95.7048 825.00
96.0091 818.00
96.3134 870.00
96.6176 995.00
96.9219 931.00
97.2261 969.00
97.5304 868.00
97.8347 801.00
98.1389 889.00
98.4432 801.00
98.7474 812.00
99.0517 898.00
99.356 893.00
99.6602 1025.00
99.9645 881.00
100.095 901.00