Folder: alab-pipeline/data/xrd_creation/results (part 4)

File: MINES_14.xy
9.903433 2618.00
10.2077 2514.00
10.512 2447.00
10.8162 2268.00
11.1205 2257.00
11.4247 2150.00
11.729 2020.00
12.0333 2039.00
12.3375 1900.00
12.6418 1887.00
12.946 1790.00
13.2503 1702.00
13.5546 1723.00
13.8588 1583.00
14.1631 1549.00
14.4673 1635.00
14.7716 1556.00
15.0759 1735.00
15.3801 1789.00
15.6844 1495.00
15.9886 1542.00
16.2929 1672.00
16.5972 1417.00
16.9014 1356.00
17.2057 1267.00
17.5099 1308.00
17.8142 1288.00
18.1185 1320.00
18.4227 1286.00
18.727 1404.00
19.0312 1462.00
19.3355 3280.00
19.6398 1432.00
19.944 1122.00
20.2483 1147.00
20.5525 1191.00
20.8568 1027.00
21.1611 1117.00
21.4653 1081.00
21.7696 1044.00
22.0738 974.00
22.3781 1184.00
22.6824 3675.00
22.9866 3182.00
23.2909 1059.00
23.5951 1727.00
23.8994 1453.00
24.2037 1808.00
24.5079 1337.00
24.8122 3585.00
25.1164 2722.00
25.4207 9335.00
25.725 14602.00
26.0292 1718.00
26.3335 1554.00
26.6378 1209.00
26.942 1088.00
27.2463 916.00
27.5505 942.00
27.8548 913.00
28.1591 1933.00
28.4633 1355.00
28.7676 791.00
29.0718 757.00
29.3761 732.00
29.6804 767.00
29.9846 784.00
30.2889 786.00
30.5931 892.00
30.8974 796.00
31.2017 693.00
31.5059 803.00
31.8102 921.00
32.1144 809.00
32.4187 741.00
32.723 776.00
33.0272 961.00
33.3315 700.00
33.6357 664.00
33.94 886.00
34.2443 787.00
34.5485 603.00
34.8528 597.00
35.157 630.00
35.4613 606.00
35.7656 627.00
36.0698 632.00
36.3741 629.00
36.6783 601.00
36.9826 641.00
37.2869 869.00
37.5911 1555.00
37.8954 871.00
38.1996 1040.00
38.5039 674.00
38.8082 576.00
39.1124 1051.00
39.4167 1058.00
39.7209 806.00
40.0252 859.00
40.3295 610.00
40.6337 530.00
40.938 508.00
41.2422 528.00
41.5465 573.00
41.8508 531.00
42.155 511.00
42.4593 506.00
42.7635 715.00
43.0678 995.00
43.3721 693.00
43.6763 510.00
43.9806 648.00
44.2849 469.00
44.5891 486.00
44.8934 511.00
45.1976 591.00
45.5019 627.00
45.8062 742.00
46.1104 837.00
46.4147 470.00
46.7189 538.00
47.0232 997.00
47.3275 644.00
47.6317 736.00
47.936 1005.00
48.2402 1201.00
48.5445 1805.00
48.8488 993.00
49.153 590.00
49.4573 460.00
49.7615 554.00
50.0658 468.00
50.3701 483.00
50.6743 492.00
50.9786 441.00
51.2828 460.00
51.5871 407.00
51.8914 415.00
52.1956 394.00
52.4999 480.00
52.8041 490.00
53.1084 424.00
53.4127 356.00
53.7169 377.00
54.0212 478.00
54.3254 529.00
54.6297 419.00
54.934 422.00
55.2382 432.00
55.5425 691.00
55.8467 712.00
56.151 907.00
56.4553 514.00
56.7595 403.00
57.0638 382.00
57.368 376.00
57.6723 438.00
57.9766 350.00
58.2808 346.00
58.5851 412.00
58.8893 350.00
59.1936 396.00
59.4979 393.00
59.8021 376.00
60.1064 523.00
60.4106 703.00
60.7149 584.00
61.0192 462.00
61.3234 394.00
61.6277 343.00
61.932 351.00
62.2362 385.00
62.5405 412.00
62.8447 506.00
63.149 581.00
63.4533 507.00
63.7575 559.00
64.0618 583.00
64.366 578.00
64.6703 542.00
64.9745 458.00
65.2788 618.00
65.5831 691.00
65.8873 480.00
66.1916 404.00
66.4959 605.00
66.8001 834.00
67.1044 606.00
67.4086 429.00
67.7129 459.00
68.0172 605.00
68.3214 527.00
68.6257 409.00
68.9299 424.00
69.2342 344.00
69.5385 402.00
69.8427 406.00
70.147 360.00
70.4512 362.00
70.7555 337.00
71.0598 418.00
71.364 437.00
71.6683 534.00
71.9725 476.00
72.2768 404.00
72.5811 357.00
72.8853 328.00
73.1896 315.00
73.4938 304.00
73.7981 321.00
74.1024 342.00
74.4066 348.00
74.7109 396.00
75.0151 384.00
75.3194 353.00
75.6237 347.00
75.9279 386.00
76.2322 455.00
76.5364 347.00
76.8407 468.00
77.145 529.00
77.4492 510.00
77.7535 525.00
78.0577 428.00
78.362 388.00
78.6663 363.00
78.9705 375.00
79.2748 379.00
79.579 361.00
79.8833 320.00
80.1876 320.00
80.4918 364.00
80.7961 397.00
81.1003 404.00
81.4046 361.00
81.7089 310.00
82.0131 339.00
82.3174 303.00
82.6217 328.00
82.9259 301.00
83.2302 306.00
83.5344 283.00
83.8387 314.00
84.143 336.00
84.4472 350.00
84.7515 366.00
85.0557 376.00
85.36 390.00
85.6643 367.00
85.9685 319.00
86.2728 297.00
86.577 260.00
86.8813 304.00
87.1856 286.00
87.4898 330.00
87.7941 327.00
88.0983 358.00
88.4026 311.00
88.7069 337.00
89.0111 296.00
89.3154 336.00
89.6196 278.00
89.9239 288.00
90.2282 308.00
90.5324 288.00
90.8367 293.00
91.1409 294.00
91.4452 281.00
91.7495 301.00
92.0537 303.00
92.358 307.00
92.6622 320.00
92.9665 323.00
93.2708 326.00
93.575 334.00
93.8793 363.00
94.1835 316.00
94.4878 280.00
94.7921 336.00
95.0963 281.00
95.4006 322.00
95.7048 304.00
96.0091 316.00
96.3134 332.00
96.6176 334.00
96.9219 324.00
97.2261 334.00
97.5304 304.00
97.8347 320.00
98.1389 283.00
98.4432 284.00
98.7474 284.00
99.0517 274.00
99.356 313.00
99.6602 275.00
99.9645 281.00
100.095 269.00

File: MINES_16.xy
9.903433 2738.00
10.2077 2620.00
10.512 2543.00
10.8162 2470.00
11.1205 2435.00
11.4247 2294.00
11.729 2264.00
12.0333 2220.00
12.3375 2144.00
12.6418 2052.00
12.946 2012.00
13.2503 1974.00
13.5546 2008.00
13.8588 2518.00
14.1631 2262.00
14.4673 1901.00
14.7716 1834.00
15.0759 1753.00
15.3801 1765.00
15.6844 1718.00
15.9886 1715.00
16.2929 1645.00
16.5972 1852.00
16.9014 1702.00
17.2057 2188.00
17.5099 1623.00
17.8142 1620.00
18.1185 1601.00
18.4227 1537.00
18.727 1477.00
19.0312 1555.00
19.3355 1595.00
19.6398 2210.00
19.944 2298.00
20.2483 1444.00
20.5525 1502.00
20.8568 1435.00
21.1611 2323.00
21.4653 1458.00
21.7696 3836.00
22.0738 1452.00
22.3781 1317.00
22.6824 1271.00
22.9866 1257.00
23.2909 1284.00
23.5951 1236.00
23.8994 1466.00
24.2037 2069.00
24.5079 1528.00
24.8122 1512.00
25.1164 4414.00
25.4207 2021.00
25.725 1145.00
26.0292 1160.00
26.3335 1219.00
26.6378 1257.00
26.942 5798.00
27.2463 1143.00
27.5505 1014.00
27.8548 1075.00
28.1591 1036.00
28.4633 1034.00
28.7676 1132.00
29.0718 1518.00
29.3761 2211.00
29.6804 1403.00
29.9846 1226.00
30.2889 1303.00
30.5931 2109.00
30.8974 34910.00
31.2017 2770.00
31.5059 1528.00
31.8102 1165.00
32.1144 1015.00
32.4187 917.00
32.723 917.00
33.0272 879.00
33.3315 1036.00
33.6357 847.00
33.94 855.00
34.2443 856.00
34.5485 1811.00
34.8528 1005.00
35.157 1933.00
35.4613 1261.00
35.7656 10768.00
36.0698 1450.00
36.3741 1089.00
36.6783 1152.00
36.9826 1196.00
37.2869 928.00
37.5911 939.00
37.8954 2243.00
38.1996 980.00
38.5039 1276.00
38.8082 728.00
39.1124 812.00
39.4167 933.00
39.7209 1109.00
40.0252 896.00
40.3295 786.00
40.6337 800.00
40.938 675.00
41.2422 941.00
41.5465 867.00
41.8508 1199.00
42.155 2472.00
42.4593 967.00
42.7635 901.00
43.0678 743.00
43.3721 765.00
43.6763 698.00
43.9806 789.00
44.2849 958.00
44.5891 668.00
44.8934 785.00
45.1976 659.00
45.5019 764.00
45.8062 1068.00
46.1104 2289.00
46.4147 1086.00
46.7189 656.00
47.0232 647.00
47.3275 613.00
47.6317 661.00
47.936 606.00
48.2402 697.00
48.5445 657.00
48.8488 596.00
49.153 656.00
49.4573 778.00
49.7615 925.00
50.0658 820.00
50.3701 1094.00
50.6743 744.00
50.9786 1075.00
51.2828 10020.00
51.5871 2019.00
51.8914 762.00
52.1956 635.00
52.4999 553.00
52.8041 705.00
53.1084 958.00
53.4127 689.00
53.7169 664.00
54.0212 645.00
54.3254 589.00
54.6297 809.00
54.934 788.00
55.2382 903.00
55.5425 845.00
55.8467 721.00
56.151 1349.00
56.4553 1119.00
56.7595 540.00
57.0638 567.00
57.368 800.00
57.6723 568.00
57.9766 689.00
58.2808 489.00
58.5851 508.00
58.8893 605.00
59.1936 662.00
59.4979 1350.00
59.8021 635.00
60.1064 874.00
60.4106 945.00
60.7149 1427.00
61.0192 4896.00
61.3234 1198.00
61.6277 828.00
61.932 595.00
62.2362 746.00
62.5405 1275.00
62.8447 625.00
63.149 527.00
63.4533 621.00
63.7575 741.00
64.0618 1343.00
64.366 606.00
64.6703 590.00
64.9745 710.00
65.2788 630.00
65.5831 851.00
65.8873 766.00
66.1916 527.00
66.4959 458.00
66.8001 752.00
67.1044 603.00
67.4086 571.00
67.7129 619.00
68.0172 803.00
68.3214 1519.00
68.6257 1002.00
68.9299 648.00
69.2342 732.00
69.5385 583.00
69.8427 690.00
70.147 482.00
70.4512 511.00
70.7555 436.00
71.0598 444.00
71.364 459.00
71.6683 473.00
71.9725 523.00
72.2768 441.00
72.5811 494.00
72.8853 548.00
73.1896 569.00
73.4938 582.00
73.7981 673.00
74.1024 802.00
74.4066 456.00
74.7109 439.00
75.0151 489.00
75.3194 1195.00
75.6237 612.00
75.9279 596.00
76.2322 576.00
76.5364 771.00
76.8407 795.00
77.145 463.00
77.4492 454.00
77.7535 555.00
78.0577 932.00
78.362 612.00
78.6663 461.00
78.9705 455.00
79.2748 651.00
79.579 641.00
79.8833 470.00
80.1876 483.00
80.4918 496.00
80.7961 626.00
81.1003 499.00
81.4046 536.00
81.7089 487.00
82.0131 981.00
82.3174 811.00
82.6217 460.00
82.9259 517.00
83.2302 719.00
83.5344 1007.00
83.8387 600.00
84.143 499.00
84.4472 434.00
84.7515 465.00
85.0557 406.00
85.36 435.00
85.6643 534.00
85.9685 952.00
86.2728 913.00
86.577 461.00
86.8813 424.00
87.1856 535.00
87.4898 613.00
87.7941 522.00
88.0983 480.00
88.4026 449.00
88.7069 638.00
89.0111 590.00
89.3154 467.00
89.6196 457.00
89.9239 587.00
90.2282 591.00
90.5324 464.00
90.8367 427.00
91.1409 450.00
91.4452 488.00
91.7495 396.00
92.0537 427.00
92.358 412.00
92.6622 820.00
92.9665 708.00
93.2708 499.00
93.575 469.00
93.8793 443.00
94.1835 408.00
94.4878 387.00
94.7921 405.00
95.0963 521.00
95.4006 782.00
95.7048 692.00
96.0091 510.00
96.3134 560.00
96.6176 1033.00
96.9219 815.00
97.2261 447.00
97.5304 463.00
97.8347 502.00
98.1389 665.00
98.4432 571.00
98.7474 459.00
99.0517 470.00
99.356 754.00
99.6602 559.00
99.9645 443.00
100.095 430.00

File: MINES_17.xy
9.903433 2530.00
10.2077 2539.00
10.512 2418.00
10.8162 2221.00
11.1205 2200.00
11.4247 2044.00
11.729 1995.00
12.0333 1955.00
12.3375 1849.00
12.6418 1795.00
12.946 1661.00
13.2503 1631.00
13.5546 1579.00
13.8588 1485.00
14.1631 1444.00
14.4673 1482.00
14.7716 1353.00
15.0759 1358.00
15.3801 1368.00
15.6844 1289.00
15.9886 1316.00
16.2929 1370.00
16.5972 1215.00
16.9014 1250.00
17.2057 1134.00
17.5099 1043.00
17.8142 1079.00
18.1185 1067.00
18.4227 1065.00
18.727 943.00
19.0312 1014.00
19.3355 1209.00
19.6398 1062.00
19.944 954.00
20.2483 898.00
20.5525 1120.00
20.8568 964.00
21.1611 834.00
21.4653 847.00
21.7696 749.00
22.0738 869.00
22.3781 789.00
22.6824 980.00
22.9866 999.00
23.2909 761.00
23.5951 1036.00
23.8994 899.00
24.2037 1061.00
24.5079 859.00
24.8122 1784.00
25.1164 1100.00
25.4207 2084.00
25.725 1918.00
26.0292 889.00
26.3335 1553.00
26.6378 1194.00
26.942 657.00
27.2463 691.00
27.5505 634.00
27.8548 601.00
28.1591 616.00
28.4633 667.00
28.7676 563.00
29.0718 573.00
29.3761 600.00
29.6804 582.00
29.9846 576.00
30.2889 595.00
30.5931 1014.00
30.8974 533.00
31.2017 563.00
31.5059 560.00
31.8102 554.00
32.1144 497.00
32.4187 488.00
32.723 523.00
33.0272 479.00
33.3315 500.00
33.6357 431.00
33.94 457.00
34.2443 494.00
34.5485 468.00
34.8528 531.00
35.157 396.00
35.4613 503.00
35.7656 398.00
36.0698 445.00
36.3741 499.00
36.6783 405.00
36.9826 417.00
37.2869 444.00
37.5911 747.00
37.8954 479.00
38.1996 552.00
38.5039 367.00
38.8082 400.00
39.1124 423.00
39.4167 503.00
39.7209 427.00
40.0252 432.00
40.3295 313.00
40.6337 325.00
40.938 335.00
41.2422 327.00
41.5465 314.00
41.8508 322.00
42.155 377.00
42.4593 294.00
42.7635 338.00
43.0678 384.00
43.3721 313.00
43.6763 295.00
43.9806 369.00
44.2849 270.00
44.5891 275.00
44.8934 325.00
45.1976 322.00
45.5019 383.00
45.8062 383.00
46.1104 412.00
46.4147 300.00
46.7189 247.00
47.0232 303.00
47.3275 295.00
47.6317 337.00
47.936 367.00
48.2402 377.00
48.5445 409.00
48.8488 376.00
49.153 282.00
49.4573 284.00
49.7615 356.00
50.0658 334.00
50.3701 303.00
50.6743 322.00
50.9786 354.00
51.2828 314.00
51.5871 236.00
51.8914 271.00
52.1956 271.00
52.4999 283.00
52.8041 263.00
53.1084 302.00
53.4127 242.00
53.7169 229.00
54.0212 239.00
54.3254 260.00
54.6297 297.00
54.934 222.00
55.2382 226.00
55.5425 237.00
55.8467 302.00
56.151 305.00
56.4553 258.00
56.7595 211.00
57.0638 217.00
57.368 208.00
57.6723 232.00
57.9766 199.00
58.2808 208.00
58.5851 176.00
58.8893 205.00
59.1936 220.00
59.4979 239.00
59.8021 224.00
60.1064 239.00
60.4106 280.00
60.7149 304.00
61.0192 281.00
61.3234 212.00
61.6277 210.00
61.932 203.00
62.2362 235.00
62.5405 194.00
62.8447 209.00
63.149 215.00
63.4533 224.00
63.7575 230.00
64.0618 222.00
64.366 205.00
64.6703 249.00
64.9745 186.00
65.2788 223.00
65.5831 236.00
65.8873 213.00
66.1916 196.00
66.4959 242.00
66.8001 286.00
67.1044 246.00
67.4086 285.00
67.7129 256.00
68.0172 280.00
68.3214 216.00
68.6257 199.00
68.9299 196.00
69.2342 202.00
69.5385 208.00
69.8427 184.00
70.147 208.00
70.4512 178.00
70.7555 217.00
71.0598 210.00
71.364 224.00
71.6683 187.00
71.9725 206.00
72.2768 208.00
72.5811 207.00
72.8853 204.00
73.1896 186.00
73.4938 215.00
73.7981 193.00
74.1024 168.00
74.4066 218.00
74.7109 190.00
75.0151 225.00
75.3194 206.00
75.6237 226.00
75.9279 210.00
76.2322 237.00
76.5364 234.00
76.8407 217.00
77.145 256.00
77.4492 204.00
77.7535 265.00
78.0577 236.00
78.362 210.00
78.6663 223.00
78.9705 271.00
79.2748 222.00
79.579 232.00
79.8833 240.00
80.1876 200.00
80.4918 238.00
80.7961 217.00
81.1003 232.00
81.4046 240.00
81.7089 226.00
82.0131 213.00
82.3174 219.00
82.6217 222.00
82.9259 212.00
83.2302 228.00
83.5344 218.00
83.8387 241.00
84.143 192.00
84.4472 216.00
84.7515 219.00
85.0557 224.00
85.36 214.00
85.6643 222.00
85.9685 191.00
86.2728 219.00
86.577 195.00
86.8813 179.00
87.1856 223.00
87.4898 204.00
87.7941 200.00
88.0983 210.00
88.4026 205.00
88.7069 195.00
89.0111 185.00
89.3154 200.00
89.6196 227.00
89.9239 198.00
90.2282 196.00
90.5324 169.00
90.8367 169.00
91.1409 194.00
91.4452 185.00
91.7495 193.00
92.0537 195.00
92.358 211.00
92.6622 208.00
92.9665 187.00
93.2708 172.00
93.575 184.00
93.8793 197.00
94.1835 195.00
94.4878 209.00
94.7921 197.00
95.0963 172.00
95.4006 185.00
95.7048 196.00
96.0091 196.00
96.3134 195.00
96.6176 198.00
96.9219 198.00
97.2261 200.00
97.5304 190.00
97.8347 163.00
98.1389 195.00
98.4432 187.00
98.7474 169.00
99.0517 173.00
99.356 184.00
99.6602 195.00
99.9645 172.00
100.095 175.00

File: MINES_18.xy
9.903433 2735.00
10.2077 2669.00
10.512 2645.00
10.8162 2469.00
11.1205 2390.00
11.4247 2364.00
11.729 2359.00
12.0333 2294.00
12.3375 2238.00
12.6418 2014.00
12.946 2058.00
13.2503 1941.00
13.5546 1955.00
13.8588 2451.00
14.1631 1905.00
14.4673 1804.00
14.7716 1715.00
15.0759 1753.00
15.3801 1740.00
15.6844 1686.00
15.9886 1667.00
16.2929 1638.00
16.5972 1892.00
16.9014 1630.00
17.2057 1904.00
17.5099 1526.00
17.8142 1637.00
18.1185 1451.00
18.4227 1418.00
18.727 1411.00
19.0312 1397.00
19.3355 1532.00
19.6398 2042.00
19.944 1987.00
20.2483 1478.00
20.5525 1389.00
20.8568 1695.00
21.1611 1831.00
21.4653 1454.00
21.7696 3205.00
22.0738 1313.00
22.3781 1185.00
22.6824 1172.00
22.9866 1349.00
23.2909 1437.00
23.5951 1203.00
23.8994 1813.00
24.2037 1659.00
24.5079 2016.00
24.8122 1599.00
25.1164 5723.00
25.4207 1909.00
25.725 2866.00
26.0292 2413.00
26.3335 1514.00
26.6378 2937.00
26.942 4812.00
27.2463 1102.00
27.5505 992.00
27.8548 1052.00
28.1591 992.00
28.4633 993.00
28.7676 1128.00
29.0718 1389.00
29.3761 1647.00
29.6804 1373.00
29.9846 1102.00
30.2889 1189.00
30.5931 3068.00
30.8974 21373.00
31.2017 1703.00
31.5059 1243.00
31.8102 1069.00
32.1144 981.00
32.4187 866.00
32.723 839.00
33.0272 747.00
33.3315 954.00
33.6357 833.00
33.94 760.00
34.2443 853.00
34.5485 1369.00
34.8528 886.00
35.157 1698.00
35.4613 1353.00
35.7656 6974.00
36.0698 1037.00
36.3741 957.00
36.6783 1288.00
36.9826 867.00
37.2869 865.00
37.5911 1071.00
37.8954 2954.00
38.1996 1144.00
38.5039 1440.00
38.8082 715.00
39.1124 777.00
39.4167 920.00
39.7209 1242.00
40.0252 968.00
40.3295 790.00
40.6337 666.00
40.938 631.00
41.2422 812.00
41.5465 807.00
41.8508 990.00
42.155 1601.00
42.4593 936.00
42.7635 719.00
43.0678 667.00
43.3721 658.00
43.6763 599.00
43.9806 728.00
44.2849 871.00
44.5891 553.00
44.8934 678.00
45.1976 742.00
45.5019 774.00
45.8062 1385.00
46.1104 1608.00
46.4147 1176.00
46.7189 594.00
47.0232 613.00
47.3275 571.00
47.6317 591.00
47.936 602.00
48.2402 727.00
48.5445 743.00
48.8488 671.00
49.153 630.00
49.4573 905.00
49.7615 816.00
50.0658 920.00
50.3701 1140.00
50.6743 707.00
50.9786 1166.00
51.2828 7955.00
51.5871 1269.00
51.8914 633.00
52.1956 513.00
52.4999 502.00
52.8041 634.00
53.1084 766.00
53.4127 632.00
53.7169 558.00
54.0212 534.00
54.3254 478.00
54.6297 715.00
54.934 778.00
55.2382 758.00
55.5425 718.00
55.8467 699.00
56.151 1361.00
56.4553 853.00
56.7595 507.00
57.0638 495.00
57.368 598.00
57.6723 557.00
57.9766 572.00
58.2808 435.00
58.5851 468.00
58.8893 439.00
59.1936 708.00
59.4979 1023.00
59.8021 728.00
60.1064 831.00
60.4106 818.00
60.7149 1947.00
61.0192 3533.00
61.3234 926.00
61.6277 661.00
61.932 552.00
62.2362 776.00
62.5405 1030.00
62.8447 477.00
63.149 501.00
63.4533 608.00
63.7575 963.00
64.0618 1126.00
64.366 588.00
64.6703 518.00
64.9745 668.00
65.2788 722.00
65.5831 762.00
65.8873 713.00
66.1916 497.00
66.4959 504.00
66.8001 780.00
67.1044 746.00
67.4086 662.00
67.7129 803.00
68.0172 898.00
68.3214 1297.00
68.6257 759.00
68.9299 598.00
69.2342 635.00
69.5385 573.00
69.8427 562.00
70.147 403.00
70.4512 410.00
70.7555 401.00
71.0598 415.00
71.364 386.00
71.6683 431.00
71.9725 421.00
72.2768 423.00
72.5811 497.00
72.8853 439.00
73.1896 459.00
73.4938 508.00
73.7981 688.00
74.1024 588.00
74.4066 364.00
74.7109 377.00
75.0151 510.00
75.3194 850.00
75.6237 561.00
75.9279 493.00
76.2322 570.00
76.5364 818.00
76.8407 700.00
77.145 420.00
77.4492 444.00
77.7535 492.00
78.0577 733.00
78.362 631.00
78.6663 407.00
78.9705 421.00
79.2748 631.00
79.579 638.00
79.8833 494.00
80.1876 416.00
80.4918 460.00
80.7961 485.00
81.1003 478.00
81.4046 480.00
81.7089 464.00
82.0131 822.00
82.3174 553.00
82.6217 369.00
82.9259 395.00
83.2302 791.00
83.5344 815.00
83.8387 430.00
84.143 349.00
84.4472 379.00
84.7515 385.00
85.0557 343.00
85.36 432.00
85.6643 475.00
85.9685 955.00
86.2728 719.00
86.577 377.00
86.8813 352.00
87.1856 447.00
87.4898 461.00
87.7941 390.00
88.0983 427.00
88.4026 394.00
88.7069 518.00
89.0111 422.00
89.3154 385.00
89.6196 401.00
89.9239 609.00
90.2282 550.00
90.5324 391.00
90.8367 367.00
91.1409 365.00
91.4452 323.00
91.7495 344.00
92.0537 305.00
92.358 353.00
92.6622 630.00
92.9665 545.00
93.2708 364.00
93.575 360.00
93.8793 405.00
94.1835 321.00
94.4878 344.00
94.7921 392.00
95.0963 480.00
95.4006 591.00
95.7048 478.00
96.0091 426.00
96.3134 523.00
96.6176 991.00
96.9219 696.00
97.2261 408.00
97.5304 379.00
97.8347 481.00
98.1389 483.00
98.4432 449.00
98.7474 372.00
99.0517 350.00
99.356 504.00
99.6602 448.00
99.9645 366.00
100.095 356.00

File: MINES_19.xy
9.903433 2599.00
10.2077 2641.00
10.512 2389.00
10.8162 2384.00
11.1205 2274.00
11.4247 2133.00
11.729 2062.00
12.0333 2054.00
12.3375 1892.00
12.6418 1858.00
12.946 2498.00
13.2503 1699.00
13.5546 1582.00
13.8588 1620.00
14.1631 1562.00
14.4673 1511.00
14.7716 1497.00
15.0759 1607.00
15.3801 1465.00
15.6844 1384.00
15.9886 1343.00
16.2929 1492.00
16.5972 1239.00
16.9014 1218.00
17.2057 1211.00
17.5099 1243.00
17.8142 1268.00
18.1185 1179.00
18.4227 1228.00
18.727 1114.00
19.0312 1070.00
19.3355 1075.00
19.6398 1030.00
19.944 1005.00
20.2483 1011.00
20.5525 1367.00
20.8568 2630.00
21.1611 976.00
21.4653 926.00
21.7696 1106.00
22.0738 4286.00
22.3781 1383.00
22.6824 1063.00
22.9866 830.00
23.2909 922.00
23.5951 1427.00
23.8994 1137.00
24.2037 1820.00
24.5079 1070.00
24.8122 2438.00
25.1164 858.00
25.4207 774.00
25.725 881.00
26.0292 3120.00
26.3335 2473.00
26.6378 4022.00
26.942 876.00
27.2463 717.00
27.5505 775.00
27.8548 1118.00
28.1591 782.00
28.4633 688.00
28.7676 836.00
29.0718 799.00
29.3761 611.00
29.6804 643.00
29.9846 675.00
30.2889 765.00
30.5931 1259.00
30.8974 1196.00
31.2017 756.00
31.5059 619.00
31.8102 604.00
32.1144 1403.00
32.4187 1269.00
32.723 565.00
33.0272 578.00
33.3315 516.00
33.6357 594.00
33.94 524.00
34.2443 614.00
34.5485 941.00
34.8528 1718.00
35.157 630.00
35.4613 624.00
35.7656 755.00
36.0698 2069.00
36.3741 2740.00
36.6783 811.00
36.9826 569.00
37.2869 659.00
37.5911 882.00
37.8954 685.00
38.1996 706.00
38.5039 486.00
38.8082 472.00
39.1124 586.00
39.4167 941.00
39.7209 1138.00
40.0252 516.00
40.3295 568.00
40.6337 429.00
40.938 414.00
41.2422 407.00
41.5465 562.00
41.8508 429.00
42.155 486.00
42.4593 473.00
42.7635 401.00
43.0678 700.00
43.3721 408.00
43.6763 347.00
43.9806 793.00
44.2849 494.00
44.5891 411.00
44.8934 463.00
45.1976 420.00
45.5019 488.00
45.8062 415.00
46.1104 669.00
46.4147 361.00
46.7189 323.00
47.0232 364.00
47.3275 402.00
47.6317 385.00
47.936 602.00
48.2402 423.00
48.5445 349.00
48.8488 301.00
49.153 393.00
49.4573 353.00
49.7615 453.00
50.0658 1504.00
50.3701 541.00
50.6743 474.00
50.9786 435.00
51.2828 410.00
51.5871 383.00
51.8914 336.00
52.1956 343.00
52.4999 338.00
52.8041 294.00
53.1084 307.00
53.4127 310.00
53.7169 286.00
54.0212 298.00
54.3254 449.00
54.6297 631.00
54.934 521.00
55.2382 478.00
55.5425 483.00
55.8467 394.00
56.151 394.00
56.4553 323.00
56.7595 270.00
57.0638 369.00
57.368 410.00
57.6723 352.00
57.9766 431.00
58.2808 648.00
58.5851 613.00
58.8893 536.00
59.1936 393.00
59.4979 420.00
59.8021 578.00
60.1064 329.00
60.4106 345.00
60.7149 347.00
61.0192 485.00
61.3234 327.00
61.6277 297.00
61.932 288.00
62.2362 346.00
62.5405 348.00
62.8447 300.00
63.149 340.00
63.4533 329.00
63.7575 451.00
64.0618 992.00
64.366 675.00
64.6703 336.00
64.9745 325.00
65.2788 296.00
65.5831 315.00
65.8873 297.00
66.1916 303.00
66.4959 268.00
66.8001 274.00
67.1044 382.00
67.4086 777.00
67.7129 452.00
68.0172 577.00
68.3214 390.00
68.6257 296.00
68.9299 324.00
69.2342 271.00
69.5385 251.00
69.8427 247.00
70.147 264.00
70.4512 449.00
70.7555 307.00
71.0598 270.00
71.364 240.00
71.6683 283.00
71.9725 308.00
72.2768 419.00
72.5811 310.00
72.8853 338.00
73.1896 282.00
73.4938 282.00
73.7981 307.00
74.1024 263.00
74.4066 239.00
74.7109 238.00
75.0151 231.00
75.3194 310.00
75.6237 312.00
75.9279 319.00
76.2322 364.00
76.5364 303.00
76.8407 264.00
77.145 292.00
77.4492 284.00
77.7535 279.00
78.0577 300.00
78.362 317.00
78.6663 244.00
78.9705 250.00
79.2748 293.00
79.579 348.00
79.8833 327.00
80.1876 299.00
80.4918 311.00
80.7961 313.00
81.1003 437.00
81.4046 341.00
81.7089 295.00
82.0131 239.00
82.3174 260.00
82.6217 250.00
82.9259 283.00
83.2302 282.00
83.5344 289.00
83.8387 265.00
84.143 230.00
84.4472 258.00
84.7515 274.00
85.0557 247.00
85.36 278.00
85.6643 292.00
85.9685 235.00
86.2728 259.00
86.577 265.00
86.8813 235.00
87.1856 270.00
87.4898 232.00
87.7941 234.00
88.0983 275.00
88.4026 244.00
88.7069 272.00
89.0111 266.00
89.3154 237.00
89.6196 290.00
89.9239 233.00
90.2282 303.00
90.5324 295.00
90.8367 261.00
91.1409 226.00
91.4452 231.00
91.7495 260.00
92.0537 251.00
92.358 368.00
92.6622 304.00
92.9665 281.00
93.2708 282.00
93.575 238.00
93.8793 224.00
94.1835 276.00
94.4878 294.00
94.7921 266.00
95.0963 209.00
95.4006 232.00
95.7048 211.00
96.0091 267.00
96.3134 239.00
96.6176 244.00
96.9219 244.00
97.2261 284.00
97.5304 264.00
97.8347 249.00
98.1389 228.00
98.4432 307.00
98.7474 226.00
99.0517 261.00
99.356 219.00
99.6602 202.00
99.9645 195.00
100.095 198.00