Folder: alab-pipeline/data/xrd_creation/results (part 52)

File: NSC_96.xy
9.903433 2631.00
10.2077 2522.00
10.512 2447.00
10.8162 2320.00
11.1205 2192.00
11.4247 2047.00
11.729 1976.00
12.0333 1954.00
12.3375 1842.00
12.6418 1748.00
12.946 1627.00
13.2503 1625.00
13.5546 1602.00
13.8588 1458.00
14.1631 1524.00
14.4673 1387.00
14.7716 1362.00
15.0759 1314.00
15.3801 1289.00
15.6844 1260.00
15.9886 1231.00
16.2929 1167.00
16.5972 1206.00
16.9014 1183.00
17.2057 1107.00
17.5099 1133.00
17.8142 1105.00
18.1185 1049.00
18.4227 1029.00
18.727 1074.00
19.0312 931.00
19.3355 933.00
19.6398 1013.00
19.944 894.00
20.2483 969.00
20.5525 976.00
20.8568 845.00
21.1611 843.00
21.4653 788.00
21.7696 834.00
22.0738 772.00
22.3781 793.00
22.6824 757.00
22.9866 779.00
23.2909 746.00
23.5951 792.00
23.8994 788.00
24.2037 698.00
24.5079 725.00
24.8122 674.00
25.1164 626.00
25.4207 626.00
25.725 662.00
26.0292 626.00
26.3335 680.00
26.6378 621.00
26.942 577.00
27.2463 636.00
27.5505 604.00
27.8548 595.00
28.1591 618.00
28.4633 579.00
28.7676 644.00
29.0718 523.00
29.3761 540.00
29.6804 573.00
29.9846 541.00
30.2889 510.00
30.5931 535.00
30.8974 483.00
31.2017 496.00
31.5059 508.00
31.8102 495.00
32.1144 481.00
32.4187 461.00
32.723 443.00
33.0272 432.00
33.3315 459.00
33.6357 456.00
33.94 435.00
34.2443 427.00
34.5485 412.00
34.8528 419.00
35.157 408.00
35.4613 422.00
35.7656 433.00
36.0698 401.00
36.3741 448.00
36.6783 388.00
36.9826 398.00
37.2869 373.00
37.5911 368.00
37.8954 415.00
38.1996 355.00
38.5039 373.00
38.8082 368.00
39.1124 382.00
39.4167 335.00
39.7209 320.00
40.0252 338.00
40.3295 360.00
40.6337 322.00
40.938 305.00
41.2422 323.00
41.5465 335.00
41.8508 275.00
42.155 288.00
42.4593 331.00
42.7635 334.00
43.0678 294.00
43.3721 310.00
43.6763 322.00
43.9806 280.00
44.2849 259.00
44.5891 269.00
44.8934 278.00
45.1976 268.00
45.5019 280.00
45.8062 259.00
46.1104 282.00
46.4147 283.00
46.7189 277.00
47.0232 285.00
47.3275 289.00
47.6317 268.00
47.936 239.00
48.2402 278.00
48.5445 233.00
48.8488 279.00
49.153 245.00
49.4573 247.00
49.7615 241.00
50.0658 249.00
50.3701 245.00
50.6743 226.00
50.9786 250.00
51.2828 275.00
51.5871 257.00
51.8914 245.00
52.1956 261.00
52.4999 225.00
52.8041 205.00
53.1084 214.00
53.4127 223.00
53.7169 260.00
54.0212 236.00
54.3254 218.00
54.6297 220.00
54.934 232.00
55.2382 200.00
55.5425 234.00
55.8467 214.00
56.151 201.00
56.4553 209.00
56.7595 200.00
57.0638 226.00
57.368 208.00
57.6723 197.00
57.9766 220.00
58.2808 183.00
58.5851 183.00
58.8893 213.00
59.1936 213.00
59.4979 189.00
59.8021 192.00
60.1064 199.00
60.4106 208.00
60.7149 181.00
61.0192 187.00
61.3234 199.00
61.6277 201.00
61.932 183.00
62.2362 164.00
62.5405 174.00
62.8447 206.00
63.149 207.00
63.4533 210.00
63.7575 161.00
64.0618 159.00
64.366 180.00
64.6703 187.00
64.9745 193.00
65.2788 175.00
65.5831 196.00
65.8873 204.00
66.1916 186.00
66.4959 169.00
66.8001 181.00
67.1044 173.00
67.4086 135.00
67.7129 177.00
68.0172 162.00
68.3214 177.00
68.6257 195.00
68.9299 175.00
69.2342 206.00
69.5385 192.00
69.8427 177.00
70.147 153.00
70.4512 183.00
70.7555 191.00
71.0598 166.00
71.364 178.00
71.6683 168.00
71.9725 176.00
72.2768 192.00
72.5811 195.00
72.8853 182.00
73.1896 197.00
73.4938 215.00
73.7981 202.00
74.1024 156.00
74.4066 188.00
74.7109 183.00
75.0151 220.00
75.3194 151.00
75.6237 193.00
75.9279 217.00
76.2322 213.00
76.5364 193.00
76.8407 204.00
77.145 209.00
77.4492 176.00
77.7535 206.00
78.0577 193.00
78.362 200.00
78.6663 206.00
78.9705 189.00
79.2748 197.00
79.579 205.00
79.8833 239.00
80.1876 199.00
80.4918 217.00
80.7961 215.00
81.1003 231.00
81.4046 227.00
81.7089 195.00
82.0131 229.00
82.3174 213.00
82.6217 184.00
82.9259 213.00
83.2302 211.00
83.5344 212.00
83.8387 238.00
84.143 206.00
84.4472 213.00
84.7515 221.00
85.0557 217.00
85.36 240.00
85.6643 211.00
85.9685 171.00
86.2728 196.00
86.577 195.00
86.8813 193.00
87.1856 213.00
87.4898 197.00
87.7941 178.00
88.0983 189.00
88.4026 161.00
88.7069 195.00
89.0111 181.00
89.3154 178.00
89.6196 199.00
89.9239 158.00
90.2282 180.00
90.5324 173.00
90.8367 181.00
91.1409 182.00
91.4452 201.00
91.7495 197.00
92.0537 175.00
92.358 177.00
92.6622 153.00
92.9665 182.00
93.2708 175.00
93.575 153.00
93.8793 163.00
94.1835 180.00
94.4878 174.00
94.7921 199.00
95.0963 165.00
95.4006 190.00
95.7048 196.00
96.0091 180.00
96.3134 167.00
96.6176 202.00
96.9219 164.00
97.2261 189.00
97.5304 174.00
97.8347 154.00
98.1389 186.00
98.4432 178.00
98.7474 187.00
99.0517 175.00
99.356 175.00
99.6602 192.00
99.9645 177.00
100.095 149.00

File: NSC_97.xy
9.903433 2669.00
10.2077 2622.00
10.512 2519.00
10.8162 2438.00
11.1205 2171.00
11.4247 2211.00
11.729 2149.00
12.0333 2044.00
12.3375 1943.00
12.6418 1891.00
12.946 1862.00
13.2503 1765.00
13.5546 1709.00
13.8588 1645.00
14.1631 1843.00
14.4673 1551.00
14.7716 1535.00
15.0759 1459.00
15.3801 1502.00
15.6844 1397.00
15.9886 1349.00
16.2929 1307.00
16.5972 1291.00
16.9014 1253.00
17.2057 1193.00
17.5099 1219.00
17.8142 1213.00
18.1185 1183.00
18.4227 1162.00
18.727 1115.00
19.0312 1105.00
19.3355 1132.00
19.6398 1477.00
19.944 1150.00
20.2483 1140.00
20.5525 1279.00
20.8568 1245.00
21.1611 1010.00
21.4653 928.00
21.7696 909.00
22.0738 916.00
22.3781 883.00
22.6824 909.00
22.9866 921.00
23.2909 820.00
23.5951 886.00
23.8994 1683.00
24.2037 839.00
24.5079 814.00
24.8122 800.00
25.1164 802.00
25.4207 818.00
25.725 889.00
26.0292 739.00
26.3335 1488.00
26.6378 1400.00
26.942 769.00
27.2463 722.00
27.5505 772.00
27.8548 786.00
28.1591 731.00
28.4633 691.00
28.7676 1150.00
29.0718 736.00
29.3761 594.00
29.6804 659.00
29.9846 678.00
30.2889 562.00
30.5931 602.00
30.8974 600.00
31.2017 661.00
31.5059 706.00
31.8102 1164.00
32.1144 657.00
32.4187 576.00
32.723 635.00
33.0272 566.00
33.3315 598.00
33.6357 1187.00
33.94 1157.00
34.2443 580.00
34.5485 499.00
34.8528 530.00
35.157 521.00
35.4613 485.00
35.7656 706.00
36.0698 552.00
36.3741 822.00
36.6783 478.00
36.9826 483.00
37.2869 475.00
37.5911 460.00
37.8954 1049.00
38.1996 423.00
38.5039 446.00
38.8082 535.00
39.1124 413.00
39.4167 395.00
39.7209 401.00
40.0252 403.00
40.3295 450.00
40.6337 437.00
40.938 375.00
41.2422 380.00
41.5465 386.00
41.8508 422.00
42.155 415.00
42.4593 419.00
42.7635 416.00
43.0678 352.00
43.3721 365.00
43.6763 370.00
43.9806 501.00
44.2849 333.00
44.5891 345.00
44.8934 350.00
45.1976 376.00
45.5019 324.00
45.8062 440.00
46.1104 389.00
46.4147 338.00
46.7189 327.00
47.0232 380.00
47.3275 454.00
47.6317 362.00
47.936 300.00
48.2402 321.00
48.5445 340.00
48.8488 319.00
49.153 551.00
49.4573 366.00
49.7615 322.00
50.0658 331.00
50.3701 315.00
50.6743 293.00
50.9786 325.00
51.2828 385.00
51.5871 1111.00
51.8914 923.00
52.1956 627.00
52.4999 326.00
52.8041 319.00
53.1084 347.00
53.4127 267.00
53.7169 269.00
54.0212 284.00
54.3254 306.00
54.6297 661.00
54.934 362.00
55.2382 292.00
55.5425 311.00
55.8467 278.00
56.151 278.00
56.4553 268.00
56.7595 380.00
57.0638 478.00
57.368 322.00
57.6723 425.00
57.9766 358.00
58.2808 271.00
58.5851 237.00
58.8893 299.00
59.1936 248.00
59.4979 248.00
59.8021 284.00
60.1064 267.00
60.4106 269.00
60.7149 260.00
61.0192 278.00
61.3234 335.00
61.6277 328.00
61.932 482.00
62.2362 308.00
62.5405 333.00
62.8447 326.00
63.149 337.00
63.4533 276.00
63.7575 238.00
64.0618 271.00
64.366 277.00
64.6703 617.00
64.9745 297.00
65.2788 348.00
65.5831 350.00
65.8873 706.00
66.1916 352.00
66.4959 229.00
66.8001 273.00
67.1044 267.00
67.4086 279.00
67.7129 220.00
68.0172 238.00
68.3214 222.00
68.6257 230.00
68.9299 238.00
69.2342 299.00
69.5385 284.00
69.8427 222.00
70.147 215.00
70.4512 226.00
70.7555 259.00
71.0598 265.00
71.364 335.00
71.6683 230.00
71.9725 223.00
72.2768 230.00
72.5811 196.00
72.8853 192.00
73.1896 259.00
73.4938 230.00
73.7981 235.00
74.1024 210.00
74.4066 183.00
74.7109 227.00
75.0151 240.00
75.3194 238.00
75.6237 215.00
75.9279 231.00
76.2322 229.00
76.5364 256.00
76.8407 228.00
77.145 206.00
77.4492 288.00
77.7535 267.00
78.0577 225.00
78.362 262.00
78.6663 475.00
78.9705 310.00
79.2748 225.00
79.579 270.00
79.8833 241.00
80.1876 241.00
80.4918 235.00
80.7961 245.00
81.1003 365.00
81.4046 278.00
81.7089 232.00
82.0131 232.00
82.3174 243.00
82.6217 264.00
82.9259 251.00
83.2302 247.00
83.5344 353.00
83.8387 274.00
84.143 265.00
84.4472 231.00
84.7515 230.00
85.0557 207.00
85.36 221.00
85.6643 243.00
85.9685 240.00
86.2728 247.00
86.577 205.00
86.8813 233.00
87.1856 332.00
87.4898 306.00
87.7941 220.00
88.0983 223.00
88.4026 219.00
88.7069 218.00
89.0111 214.00
89.3154 231.00
89.6196 326.00
89.9239 323.00
90.2282 238.00
90.5324 228.00
90.8367 408.00
91.1409 327.00
91.4452 204.00
91.7495 209.00
92.0537 215.00
92.358 245.00
92.6622 213.00
92.9665 203.00
93.2708 306.00
93.575 281.00
93.8793 199.00
94.1835 200.00
94.4878 205.00
94.7921 203.00
95.0963 212.00
95.4006 211.00
95.7048 234.00
96.0091 232.00
96.3134 272.00
96.6176 178.00
96.9219 188.00
97.2261 170.00
97.5304 185.00
97.8347 220.00
98.1389 226.00
98.4432 204.00
98.7474 187.00
99.0517 182.00
99.356 209.00
99.6602 198.00
99.9645 196.00
100.095 223.00

File: NSC_98.xy
9.903433 2638.00
10.2077 2626.00
10.512 2562.00
10.8162 2333.00
11.1205 2294.00
11.4247 2216.00
11.729 2222.00
12.0333 2104.00
12.3375 2032.00
12.6418 2022.00
12.946 1930.00
13.2503 1710.00
13.5546 1803.00
13.8588 1795.00
14.1631 1993.00
14.4673 2347.00
14.7716 1699.00
15.0759 1619.00
15.3801 1642.00
15.6844 1631.00
15.9886 1481.00
16.2929 1470.00
16.5972 1517.00
16.9014 1537.00
17.2057 1546.00
17.5099 1438.00
17.8142 1451.00
18.1185 1330.00
18.4227 1347.00
18.727 1381.00
19.0312 1409.00
19.3355 1537.00
19.6398 2166.00
19.944 4231.00
20.2483 1701.00
20.5525 1605.00
20.8568 4093.00
21.1611 3467.00
21.4653 1367.00
21.7696 1306.00
22.0738 1329.00
22.3781 1654.00
22.6824 1417.00
22.9866 1177.00
23.2909 1129.00
23.5951 1216.00
23.8994 1930.00
24.2037 3345.00
24.5079 1140.00
24.8122 1038.00
25.1164 1171.00
25.4207 1030.00
25.725 1007.00
26.0292 922.00
26.3335 938.00
26.6378 1009.00
26.942 848.00
27.2463 965.00
27.5505 1038.00
27.8548 917.00
28.1591 940.00
28.4633 897.00
28.7676 1294.00
29.0718 3497.00
29.3761 1159.00
29.6804 817.00
29.9846 890.00
30.2889 811.00
30.5931 802.00
30.8974 864.00
31.2017 850.00
31.5059 1021.00
31.8102 3549.00
32.1144 3001.00
32.4187 1121.00
32.723 886.00
33.0272 742.00
33.3315 739.00
33.6357 752.00
33.94 754.00
34.2443 938.00
34.5485 653.00
34.8528 676.00
35.157 664.00
35.4613 665.00
35.7656 814.00
36.0698 2037.00
36.3741 1089.00
36.6783 2617.00
36.9826 952.00
37.2869 729.00
37.5911 1022.00
37.8954 770.00
38.1996 601.00
38.5039 613.00
38.8082 720.00
39.1124 608.00
39.4167 721.00
39.7209 553.00
40.0252 586.00
40.3295 740.00
40.6337 763.00
40.938 588.00
41.2422 530.00
41.5465 528.00
41.8508 641.00
42.155 1044.00
42.4593 760.00
42.7635 911.00
43.0678 630.00
43.3721 565.00
43.6763 559.00
43.9806 706.00
44.2849 1335.00
44.5891 556.00
44.8934 521.00
45.1976 677.00
45.5019 583.00
45.8062 865.00
46.1104 1207.00
46.4147 543.00
46.7189 514.00
47.0232 503.00
47.3275 1308.00
47.6317 1441.00
47.936 521.00
48.2402 487.00
48.5445 551.00
48.8488 564.00
49.153 865.00
49.4573 2082.00
49.7615 577.00
50.0658 612.00
50.3701 675.00
50.6743 465.00
50.9786 444.00
51.2828 515.00
51.5871 578.00
51.8914 524.00
52.1956 1000.00
52.4999 1886.00
52.8041 524.00
53.1084 502.00
53.4127 493.00
53.7169 420.00
54.0212 405.00
54.3254 442.00
54.6297 460.00
54.934 428.00
55.2382 410.00
55.5425 588.00
55.8467 772.00
56.151 449.00
56.4553 479.00
56.7595 716.00
57.0638 1405.00
57.368 1681.00
57.6723 955.00
57.9766 476.00
58.2808 456.00
58.5851 489.00
58.8893 827.00
59.1936 604.00
59.4979 421.00
59.8021 390.00
60.1064 612.00
60.4106 505.00
60.7149 572.00
61.0192 544.00
61.3234 1220.00
61.6277 810.00
61.932 454.00
62.2362 511.00
62.5405 541.00
62.8447 993.00
63.149 1573.00
63.4533 724.00
63.7575 439.00
64.0618 428.00
64.366 524.00
64.6703 448.00
64.9745 356.00
65.2788 512.00
65.5831 1048.00
65.8873 896.00
66.1916 714.00
66.4959 475.00
66.8001 464.00
67.1044 546.00
67.4086 962.00
67.7129 472.00
68.0172 414.00
68.3214 410.00
68.6257 356.00
68.9299 331.00
69.2342 407.00
69.5385 795.00
69.8427 790.00
70.147 399.00
70.4512 384.00
70.7555 394.00
71.0598 513.00
71.364 523.00
71.6683 378.00
71.9725 411.00
72.2768 352.00
72.5811 350.00
72.8853 395.00
73.1896 338.00
73.4938 621.00
73.7981 603.00
74.1024 399.00
74.4066 353.00
74.7109 352.00
75.0151 400.00
75.3194 665.00
75.6237 511.00
75.9279 516.00
76.2322 509.00
76.5364 407.00
76.8407 342.00
77.145 345.00
77.4492 393.00
77.7535 541.00
78.0577 541.00
78.362 387.00
78.6663 340.00
78.9705 395.00
79.2748 447.00
79.579 418.00
79.8833 402.00
80.1876 404.00
80.4918 356.00
80.7961 344.00
81.1003 433.00
81.4046 675.00
81.7089 562.00
82.0131 403.00
82.3174 336.00
82.6217 423.00
82.9259 774.00
83.2302 571.00
83.5344 360.00
83.8387 320.00
84.143 311.00
84.4472 299.00
84.7515 325.00
85.0557 357.00
85.36 364.00
85.6643 312.00
85.9685 327.00
86.2728 422.00
86.577 603.00
86.8813 452.00
87.1856 376.00
87.4898 491.00
87.7941 738.00
88.0983 544.00
88.4026 360.00
88.7069 415.00
89.0111 429.00
89.3154 368.00
89.6196 329.00
89.9239 366.00
90.2282 371.00
90.5324 439.00
90.8367 410.00
91.1409 418.00
91.4452 382.00
91.7495 368.00
92.0537 344.00
92.358 415.00
92.6622 639.00
92.9665 575.00
93.2708 349.00
93.575 318.00
93.8793 330.00
94.1835 509.00
94.4878 425.00
94.7921 329.00
95.0963 385.00
95.4006 469.00
95.7048 423.00
96.0091 340.00
96.3134 428.00
96.6176 408.00
96.9219 341.00
97.2261 349.00
97.5304 372.00
97.8347 538.00
98.1389 566.00
98.4432 477.00
98.7474 316.00
99.0517 340.00
99.356 321.00
99.6602 348.00
99.9645 440.00
100.095 587.00

File: NSC_99.xy
9.903433 2705.00
10.2077 2565.00
10.512 2524.00
10.8162 2347.00
11.1205 2351.00
11.4247 2214.00
11.729 2031.00
12.0333 1932.00
12.3375 1893.00
12.6418 1873.00
12.946 1807.00
13.2503 1759.00
13.5546 1761.00
13.8588 1699.00
14.1631 1796.00
14.4673 1883.00
14.7716 1687.00
15.0759 1631.00
15.3801 1522.00
15.6844 1528.00
15.9886 1481.00
16.2929 1432.00
16.5972 1449.00
16.9014 1442.00
17.2057 1421.00
17.5099 1387.00
17.8142 1369.00
18.1185 1345.00
18.4227 1283.00
18.727 1321.00
19.0312 1308.00
19.3355 1272.00
19.6398 1458.00
19.944 1881.00
20.2483 2314.00
20.5525 1442.00
20.8568 1709.00
21.1611 6200.00
21.4653 1247.00
21.7696 1264.00
22.0738 1119.00
22.3781 1180.00
22.6824 1090.00
22.9866 1111.00
23.2909 1125.00
23.5951 1044.00
23.8994 1227.00
24.2037 2287.00
24.5079 1151.00
24.8122 1023.00
25.1164 1038.00
25.4207 989.00
25.725 1003.00
26.0292 1025.00
26.3335 1078.00
26.6378 1578.00
26.942 6120.00
27.2463 1061.00
27.5505 928.00
27.8548 905.00
28.1591 892.00
28.4633 845.00
28.7676 973.00
29.0718 1550.00
29.3761 1396.00
29.6804 832.00
29.9846 832.00
30.2889 786.00
30.5931 743.00
30.8974 819.00
31.2017 769.00
31.5059 803.00
31.8102 1164.00
32.1144 5561.00
32.4187 887.00
32.723 1032.00
33.0272 737.00
33.3315 779.00
33.6357 810.00
33.94 1244.00
34.2443 4732.00
34.5485 924.00
34.8528 652.00
35.157 639.00
35.4613 683.00
35.7656 734.00
36.0698 988.00
36.3741 1227.00
36.6783 1280.00
36.9826 1372.00
37.2869 664.00
37.5911 635.00
37.8954 679.00
38.1996 1758.00
38.5039 722.00
38.8082 818.00
39.1124 635.00
39.4167 679.00
39.7209 526.00
40.0252 516.00
40.3295 599.00
40.6337 935.00
40.938 485.00
41.2422 554.00
41.5465 483.00
41.8508 513.00
42.155 984.00
42.4593 627.00
42.7635 989.00
43.0678 580.00
43.3721 572.00
43.6763 498.00
43.9806 543.00
44.2849 1354.00
44.5891 570.00
44.8934 545.00
45.1976 569.00
45.5019 515.00
45.8062 493.00
46.1104 1501.00
46.4147 495.00
46.7189 488.00
47.0232 502.00
47.3275 585.00
47.6317 1627.00
47.936 491.00
48.2402 474.00
48.5445 497.00
48.8488 573.00
49.153 595.00
49.4573 2230.00
49.7615 566.00
50.0658 402.00
50.3701 648.00
50.6743 455.00
50.9786 430.00
51.2828 476.00
51.5871 535.00
51.8914 1273.00
52.1956 3381.00
52.4999 2196.00
52.8041 567.00
53.1084 476.00
53.4127 529.00
53.7169 391.00
54.0212 398.00
54.3254 456.00
54.6297 514.00
54.934 803.00
55.2382 850.00
55.5425 490.00
55.8467 870.00
56.151 415.00
56.4553 432.00
56.7595 479.00
57.0638 1235.00
57.368 1031.00
57.6723 1098.00
57.9766 620.00
58.2808 662.00
58.5851 461.00
58.8893 631.00
59.1936 554.00
59.4979 410.00
59.8021 394.00
60.1064 451.00
60.4106 461.00
60.7149 387.00
61.0192 435.00
61.3234 601.00
61.6277 941.00
61.932 501.00
62.2362 1142.00
62.5405 573.00
62.8447 553.00
63.149 1226.00
63.4533 821.00
63.7575 414.00
64.0618 373.00
64.366 422.00
64.6703 541.00
64.9745 1345.00
65.2788 681.00
65.5831 797.00
65.8873 841.00
66.1916 1682.00
66.4959 835.00
66.8001 390.00
67.1044 380.00
67.4086 821.00
67.7129 521.00
68.0172 396.00
68.3214 368.00
68.6257 304.00
68.9299 352.00
69.2342 363.00
69.5385 493.00
69.8427 720.00
70.147 394.00
70.4512 359.00
70.7555 349.00
71.0598 389.00
71.364 554.00
71.6683 707.00
71.9725 389.00
72.2768 401.00
72.5811 307.00
72.8853 338.00
73.1896 323.00
73.4938 490.00
73.7981 587.00
74.1024 411.00
74.4066 345.00
74.7109 389.00
75.0151 345.00
75.3194 626.00
75.6237 501.00
75.9279 397.00
76.2322 398.00
76.5364 431.00
76.8407 311.00
77.145 333.00
77.4492 385.00
77.7535 490.00
78.0577 444.00
78.362 406.00
78.6663 373.00
78.9705 1078.00
79.2748 611.00
79.579 407.00
79.8833 397.00
80.1876 356.00
80.4918 360.00
80.7961 319.00
81.1003 409.00
81.4046 830.00
81.7089 707.00
82.0131 400.00
82.3174 365.00
82.6217 382.00
82.9259 624.00
83.2302 552.00
83.5344 365.00
83.8387 543.00
84.143 609.00
84.4472 354.00
84.7515 327.00
85.0557 359.00
85.36 335.00
85.6643 336.00
85.9685 357.00
86.2728 367.00
86.577 586.00
86.8813 466.00
87.1856 342.00
87.4898 638.00
87.7941 717.00
88.0983 540.00
88.4026 369.00
88.7069 345.00
89.0111 349.00
89.3154 359.00
89.6196 383.00
89.9239 663.00
90.2282 647.00
90.5324 538.00
90.8367 473.00
91.1409 903.00
91.4452 688.00
91.7495 424.00
92.0537 342.00
92.358 336.00
92.6622 584.00
92.9665 564.00
93.2708 410.00
93.575 552.00
93.8793 487.00
94.1835 420.00
94.4878 417.00
94.7921 333.00
95.0963 342.00
95.4006 410.00
95.7048 445.00
96.0091 401.00
96.3134 537.00
96.6176 490.00
96.9219 357.00
97.2261 341.00
97.5304 317.00
97.8347 425.00
98.1389 493.00
98.4432 432.00
98.7474 356.00
99.0517 308.00
99.356 287.00
99.6602 319.00
99.9645 395.00
100.095 502.00

File: NSC_100.xy
9.903433 2715.00
10.2077 2627.00
10.512 2480.00
10.8162 2470.00
11.1205 2340.00
11.4247 2305.00
11.729 2001.00
12.0333 2211.00
12.3375 2091.00
12.6418 1940.00
12.946 1866.00
13.2503 1890.00
13.5546 1765.00
13.8588 1735.00
14.1631 1816.00
14.4673 2279.00
14.7716 1917.00
15.0759 1667.00
15.3801 1655.00
15.6844 1576.00
15.9886 1545.00
16.2929 1628.00
16.5972 1457.00
16.9014 1499.00
17.2057 1671.00
17.5099 1574.00
17.8142 1622.00
18.1185 1484.00
18.4227 1468.00
18.727 1397.00
19.0312 1400.00
19.3355 1490.00
19.6398 2720.00
19.944 3138.00
20.2483 3410.00
20.5525 1596.00
20.8568 2200.00
21.1611 12434.00
21.4653 1480.00
21.7696 1308.00
22.0738 1359.00
22.3781 1484.00
22.6824 3186.00
22.9866 1299.00
23.2909 1235.00
23.5951 1231.00
23.8994 1364.00
24.2037 3411.00
24.5079 1392.00
24.8122 1065.00
25.1164 1206.00
25.4207 1283.00
25.725 973.00
26.0292 1023.00
26.3335 1012.00
26.6378 1097.00
26.942 992.00
27.2463 942.00
27.5505 1039.00
27.8548 1234.00
28.1591 950.00
28.4633 892.00
28.7676 1122.00
29.0718 1943.00
29.3761 2183.00
29.6804 1018.00
29.9846 1060.00
30.2889 833.00
30.5931 891.00
30.8974 947.00
31.2017 950.00
31.5059 942.00
31.8102 1404.00
32.1144 10945.00
32.4187 1107.00
32.723 1505.00
33.0272 791.00
33.3315 785.00
33.6357 764.00
33.94 792.00
34.2443 964.00
34.5485 833.00
34.8528 711.00
35.157 703.00
35.4613 753.00
35.7656 823.00
36.0698 1266.00
36.3741 1911.00
36.6783 1533.00
36.9826 2396.00
37.2869 788.00
37.5911 882.00
37.8954 1263.00
38.1996 669.00
38.5039 674.00
38.8082 936.00
39.1124 683.00
39.4167 797.00
39.7209 669.00
40.0252 672.00
40.3295 626.00
40.6337 1339.00
40.938 580.00
41.2422 633.00
41.5465 560.00
41.8508 557.00
42.155 1475.00
42.4593 710.00
42.7635 1597.00
43.0678 613.00
43.3721 655.00
43.6763 607.00
43.9806 647.00
44.2849 2214.00
44.5891 768.00
44.8934 574.00
45.1976 690.00
45.5019 676.00
45.8062 633.00
46.1104 2572.00
46.4147 657.00
46.7189 589.00
47.0232 574.00
47.3275 733.00
47.6317 3018.00
47.936 638.00
48.2402 536.00
48.5445 577.00
48.8488 700.00
49.153 655.00
49.4573 3670.00
49.7615 767.00
50.0658 634.00
50.3701 1027.00
50.6743 529.00
50.9786 509.00
51.2828 583.00
51.5871 816.00
51.8914 596.00
52.1956 625.00
52.4999 3716.00
52.8041 626.00
53.1084 596.00
53.4127 655.00
53.7169 474.00
54.0212 492.00
54.3254 471.00
54.6297 597.00
54.934 493.00
55.2382 484.00
55.5425 499.00
55.8467 1293.00
56.151 534.00
56.4553 523.00
56.7595 662.00
57.0638 2243.00
57.368 1350.00
57.6723 1916.00
57.9766 530.00
58.2808 526.00
58.5851 578.00
58.8893 912.00
59.1936 797.00
59.4979 438.00
59.8021 446.00
60.1064 543.00
60.4106 713.00
60.7149 810.00
61.0192 627.00
61.3234 803.00
61.6277 1447.00
61.932 474.00
62.2362 551.00
62.5405 660.00
62.8447 609.00
63.149 2284.00
63.4533 1152.00
63.7575 557.00
64.0618 463.00
64.366 495.00
64.6703 621.00
64.9745 490.00
65.2788 444.00
65.5831 1007.00
65.8873 1094.00
66.1916 1132.00
66.4959 541.00
66.8001 507.00
67.1044 523.00
67.4086 1290.00
67.7129 656.00
68.0172 531.00
68.3214 419.00
68.6257 380.00
68.9299 413.00
69.2342 423.00
69.5385 542.00
69.8427 1142.00
70.147 544.00
70.4512 461.00
70.7555 355.00
71.0598 528.00
71.364 684.00
71.6683 546.00
71.9725 444.00
72.2768 429.00
72.5811 405.00
72.8853 401.00
73.1896 400.00
73.4938 519.00
73.7981 960.00
74.1024 452.00
74.4066 425.00
74.7109 379.00
75.0151 418.00
75.3194 883.00
75.6237 695.00
75.9279 665.00
76.2322 597.00
76.5364 495.00
76.8407 383.00
77.145 406.00
77.4492 431.00
77.7535 539.00
78.0577 739.00
78.362 496.00
78.6663 375.00
78.9705 421.00
79.2748 519.00
79.579 443.00
79.8833 461.00
80.1876 519.00
80.4918 476.00
80.7961 437.00
81.1003 390.00
81.4046 866.00
81.7089 804.00
82.0131 556.00
82.3174 385.00
82.6217 421.00
82.9259 793.00
83.2302 653.00
83.5344 436.00
83.8387 366.00
84.143 362.00
84.4472 350.00
84.7515 338.00
85.0557 443.00
85.36 444.00
85.6643 383.00
85.9685 395.00
86.2728 371.00
86.577 798.00
86.8813 622.00
87.1856 395.00
87.4898 495.00
87.7941 855.00
88.0983 746.00
88.4026 437.00
88.7069 408.00
89.0111 555.00
89.3154 402.00
89.6196 346.00
89.9239 386.00
90.2282 356.00
90.5324 551.00
90.8367 494.00
91.1409 482.00
91.4452 472.00
91.7495 415.00
92.0537 368.00
92.358 389.00
92.6622 813.00
92.9665 740.00
93.2708 509.00
93.575 391.00
93.8793 346.00
94.1835 472.00
94.4878 497.00
94.7921 420.00
95.0963 388.00
95.4006 584.00
95.7048 497.00
96.0091 388.00
96.3134 530.00
96.6176 522.00
96.9219 405.00
97.2261 399.00
97.5304 375.00
97.8347 511.00
98.1389 771.00
98.4432 632.00
98.7474 373.00
99.0517 346.00
99.356 351.00
99.6602 343.00
99.9645 448.00
100.095 553.00