Folder: alab-pipeline/data/xrd_creation/results (part 48)

File: NSC_73.xy
9.903433 2599.00
10.2077 2454.00
10.512 2369.00
10.8162 2285.00
11.1205 2119.00
11.4247 2064.00
11.729 1983.00
12.0333 1901.00
12.3375 1776.00
12.6418 1683.00
12.946 1777.00
13.2503 1662.00
13.5546 1612.00
13.8588 1557.00
14.1631 1513.00
14.4673 1509.00
14.7716 1385.00
15.0759 1357.00
15.3801 1416.00
15.6844 1411.00
15.9886 1307.00
16.2929 1258.00
16.5972 1259.00
16.9014 1259.00
17.2057 1237.00
17.5099 1123.00
17.8142 1156.00
18.1185 1132.00
18.4227 1079.00
18.727 1090.00
19.0312 1076.00
19.3355 1046.00
19.6398 955.00
19.944 1170.00
20.2483 997.00
20.5525 1036.00
20.8568 1642.00
21.1611 1573.00
21.4653 947.00
21.7696 934.00
22.0738 883.00
22.3781 880.00
22.6824 891.00
22.9866 829.00
23.2909 906.00
23.5951 861.00
23.8994 893.00
24.2037 773.00
24.5079 782.00
24.8122 757.00
25.1164 861.00
25.4207 758.00
25.725 730.00
26.0292 684.00
26.3335 743.00
26.6378 771.00
26.942 681.00
27.2463 625.00
27.5505 649.00
27.8548 614.00
28.1591 659.00
28.4633 672.00
28.7676 632.00
29.0718 646.00
29.3761 642.00
29.6804 600.00
29.9846 610.00
30.2889 586.00
30.5931 591.00
30.8974 592.00
31.2017 513.00
31.5059 578.00
31.8102 606.00
32.1144 641.00
32.4187 669.00
32.723 569.00
33.0272 656.00
33.3315 553.00
33.6357 506.00
33.94 490.00
34.2443 706.00
34.5485 737.00
34.8528 753.00
35.157 598.00
35.4613 471.00
35.7656 486.00
36.0698 457.00
36.3741 470.00
36.6783 537.00
36.9826 410.00
37.2869 416.00
37.5911 411.00
37.8954 410.00
38.1996 414.00
38.5039 411.00
38.8082 401.00
39.1124 374.00
39.4167 405.00
39.7209 395.00
40.0252 448.00
40.3295 386.00
40.6337 467.00
40.938 421.00
41.2422 378.00
41.5465 363.00
41.8508 356.00
42.155 353.00
42.4593 381.00
42.7635 367.00
43.0678 374.00
43.3721 384.00
43.6763 375.00
43.9806 323.00
44.2849 360.00
44.5891 401.00
44.8934 360.00
45.1976 320.00
45.5019 317.00
45.8062 357.00
46.1104 358.00
46.4147 338.00
46.7189 307.00
47.0232 324.00
47.3275 337.00
47.6317 287.00
47.936 299.00
48.2402 307.00
48.5445 296.00
48.8488 299.00
49.153 305.00
49.4573 294.00
49.7615 322.00
50.0658 356.00
50.3701 312.00
50.6743 322.00
50.9786 295.00
51.2828 299.00
51.5871 304.00
51.8914 335.00
52.1956 270.00
52.4999 267.00
52.8041 307.00
53.1084 269.00
53.4127 285.00
53.7169 273.00
54.0212 271.00
54.3254 267.00
54.6297 272.00
54.934 291.00
55.2382 258.00
55.5425 238.00
55.8467 244.00
56.151 241.00
56.4553 243.00
56.7595 267.00
57.0638 256.00
57.368 203.00
57.6723 265.00
57.9766 244.00
58.2808 257.00
58.5851 257.00
58.8893 249.00
59.1936 222.00
59.4979 195.00
59.8021 220.00
60.1064 244.00
60.4106 241.00
60.7149 240.00
61.0192 245.00
61.3234 230.00
61.6277 226.00
61.932 238.00
62.2362 264.00
62.5405 204.00
62.8447 203.00
63.149 238.00
63.4533 198.00
63.7575 222.00
64.0618 223.00
64.366 208.00
64.6703 195.00
64.9745 213.00
65.2788 234.00
65.5831 223.00
65.8873 214.00
66.1916 221.00
66.4959 227.00
66.8001 233.00
67.1044 238.00
67.4086 236.00
67.7129 237.00
68.0172 201.00
68.3214 201.00
68.6257 212.00
68.9299 211.00
69.2342 185.00
69.5385 213.00
69.8427 223.00
70.147 211.00
70.4512 193.00
70.7555 210.00
71.0598 192.00
71.364 189.00
71.6683 223.00
71.9725 199.00
72.2768 223.00
72.5811 235.00
72.8853 212.00
73.1896 225.00
73.4938 195.00
73.7981 206.00
74.1024 204.00
74.4066 239.00
74.7109 227.00
75.0151 222.00
75.3194 227.00
75.6237 222.00
75.9279 206.00
76.2322 215.00
76.5364 233.00
76.8407 230.00
77.145 249.00
77.4492 207.00
77.7535 217.00
78.0577 238.00
78.362 213.00
78.6663 245.00
78.9705 240.00
79.2748 225.00
79.579 183.00
79.8833 240.00
80.1876 258.00
80.4918 239.00
80.7961 241.00
81.1003 218.00
81.4046 219.00
81.7089 244.00
82.0131 218.00
82.3174 233.00
82.6217 231.00
82.9259 231.00
83.2302 222.00
83.5344 229.00
83.8387 242.00
84.143 249.00
84.4472 258.00
84.7515 274.00
85.0557 228.00
85.36 214.00
85.6643 208.00
85.9685 214.00
86.2728 234.00
86.577 205.00
86.8813 231.00
87.1856 214.00
87.4898 203.00
87.7941 238.00
88.0983 236.00
88.4026 258.00
88.7069 206.00
89.0111 193.00
89.3154 199.00
89.6196 207.00
89.9239 189.00
90.2282 162.00
90.5324 202.00
90.8367 240.00
91.1409 214.00
91.4452 181.00
91.7495 187.00
92.0537 211.00
92.358 181.00
92.6622 227.00
92.9665 202.00
93.2708 192.00
93.575 221.00
93.8793 225.00
94.1835 206.00
94.4878 194.00
94.7921 208.00
95.0963 212.00
95.4006 228.00
95.7048 172.00
96.0091 199.00
96.3134 193.00
96.6176 197.00
96.9219 198.00
97.2261 173.00
97.5304 199.00
97.8347 217.00
98.1389 203.00
98.4432 216.00
98.7474 214.00
99.0517 169.00
99.356 228.00
99.6602 199.00
99.9645 213.00
100.095 187.00

File: NSC_74.xy
9.903433 2745.00
10.2077 2746.00
10.512 2690.00
10.8162 2459.00
11.1205 2294.00
11.4247 2154.00
11.729 2113.00
12.0333 1984.00
12.3375 1970.00
12.6418 1790.00
12.946 2060.00
13.2503 1750.00
13.5546 1652.00
13.8588 1657.00
14.1631 1600.00
14.4673 1564.00
14.7716 1520.00
15.0759 1447.00
15.3801 1494.00
15.6844 1455.00
15.9886 1417.00
16.2929 1334.00
16.5972 1365.00
16.9014 1294.00
17.2057 1276.00
17.5099 1246.00
17.8142 1232.00
18.1185 1184.00
18.4227 1155.00
18.727 1145.00
19.0312 1234.00
19.3355 1154.00
19.6398 1085.00
19.944 1375.00
20.2483 1107.00
20.5525 1471.00
20.8568 5486.00
21.1611 3345.00
21.4653 1128.00
21.7696 1025.00
22.0738 1024.00
22.3781 1071.00
22.6824 1302.00
22.9866 954.00
23.2909 1156.00
23.5951 1045.00
23.8994 971.00
24.2037 924.00
24.5079 918.00
24.8122 892.00
25.1164 1152.00
25.4207 866.00
25.725 902.00
26.0292 861.00
26.3335 840.00
26.6378 898.00
26.942 739.00
27.2463 726.00
27.5505 827.00
27.8548 728.00
28.1591 768.00
28.4633 730.00
28.7676 763.00
29.0718 766.00
29.3761 747.00
29.6804 730.00
29.9846 730.00
30.2889 740.00
30.5931 687.00
30.8974 703.00
31.2017 723.00
31.5059 733.00
31.8102 746.00
32.1144 899.00
32.4187 1325.00
32.723 736.00
33.0272 683.00
33.3315 600.00
33.6357 648.00
33.94 674.00
34.2443 1294.00
34.5485 1835.00
34.8528 1355.00
35.157 820.00
35.4613 617.00
35.7656 592.00
36.0698 558.00
36.3741 581.00
36.6783 527.00
36.9826 511.00
37.2869 519.00
37.5911 506.00
37.8954 604.00
38.1996 519.00
38.5039 534.00
38.8082 504.00
39.1124 465.00
39.4167 436.00
39.7209 520.00
40.0252 528.00
40.3295 496.00
40.6337 640.00
40.938 483.00
41.2422 463.00
41.5465 484.00
41.8508 443.00
42.155 466.00
42.4593 502.00
42.7635 527.00
43.0678 494.00
43.3721 393.00
43.6763 451.00
43.9806 444.00
44.2849 450.00
44.5891 514.00
44.8934 464.00
45.1976 426.00
45.5019 426.00
45.8062 381.00
46.1104 413.00
46.4147 500.00
46.7189 438.00
47.0232 416.00
47.3275 382.00
47.6317 384.00
47.936 439.00
48.2402 404.00
48.5445 427.00
48.8488 411.00
49.153 395.00
49.4573 394.00
49.7615 408.00
50.0658 460.00
50.3701 481.00
50.6743 435.00
50.9786 317.00
51.2828 353.00
51.5871 359.00
51.8914 392.00
52.1956 402.00
52.4999 410.00
52.8041 361.00
53.1084 405.00
53.4127 380.00
53.7169 379.00
54.0212 352.00
54.3254 367.00
54.6297 385.00
54.934 354.00
55.2382 306.00
55.5425 356.00
55.8467 329.00
56.151 360.00
56.4553 341.00
56.7595 302.00
57.0638 329.00
57.368 350.00
57.6723 403.00
57.9766 384.00
58.2808 316.00
58.5851 328.00
58.8893 332.00
59.1936 265.00
59.4979 313.00
59.8021 298.00
60.1064 324.00
60.4106 315.00
60.7149 302.00
61.0192 283.00
61.3234 324.00
61.6277 353.00
61.932 357.00
62.2362 445.00
62.5405 357.00
62.8447 345.00
63.149 300.00
63.4533 257.00
63.7575 309.00
64.0618 288.00
64.366 291.00
64.6703 258.00
64.9745 260.00
65.2788 279.00
65.5831 242.00
65.8873 246.00
66.1916 308.00
66.4959 308.00
66.8001 296.00
67.1044 267.00
67.4086 245.00
67.7129 270.00
68.0172 316.00
68.3214 263.00
68.6257 267.00
68.9299 283.00
69.2342 313.00
69.5385 272.00
69.8427 269.00
70.147 233.00
70.4512 237.00
70.7555 245.00
71.0598 270.00
71.364 269.00
71.6683 234.00
71.9725 276.00
72.2768 286.00
72.5811 290.00
72.8853 268.00
73.1896 290.00
73.4938 309.00
73.7981 264.00
74.1024 278.00
74.4066 262.00
74.7109 276.00
75.0151 239.00
75.3194 256.00
75.6237 247.00
75.9279 245.00
76.2322 273.00
76.5364 281.00
76.8407 291.00
77.145 298.00
77.4492 291.00
77.7535 281.00
78.0577 290.00
78.362 249.00
78.6663 286.00
78.9705 256.00
79.2748 282.00
79.579 258.00
79.8833 231.00
80.1876 273.00
80.4918 242.00
80.7961 242.00
81.1003 278.00
81.4046 276.00
81.7089 243.00
82.0131 265.00
82.3174 244.00
82.6217 264.00
82.9259 249.00
83.2302 266.00
83.5344 281.00
83.8387 271.00
84.143 264.00
84.4472 283.00
84.7515 286.00
85.0557 278.00
85.36 256.00
85.6643 210.00
85.9685 266.00
86.2728 236.00
86.577 258.00
86.8813 240.00
87.1856 273.00
87.4898 222.00
87.7941 268.00
88.0983 240.00
88.4026 238.00
88.7069 196.00
89.0111 214.00
89.3154 200.00
89.6196 205.00
89.9239 244.00
90.2282 222.00
90.5324 239.00
90.8367 195.00
91.1409 240.00
91.4452 227.00
91.7495 225.00
92.0537 200.00
92.358 211.00
92.6622 215.00
92.9665 208.00
93.2708 212.00
93.575 217.00
93.8793 236.00
94.1835 214.00
94.4878 227.00
94.7921 238.00
95.0963 234.00
95.4006 226.00
95.7048 233.00
96.0091 197.00
96.3134 229.00
96.6176 211.00
96.9219 215.00
97.2261 224.00
97.5304 241.00
97.8347 228.00
98.1389 203.00
98.4432 219.00
98.7474 226.00
99.0517 227.00
99.356 204.00
99.6602 196.00
99.9645 184.00
100.095 192.00

File: NSC_75.xy
9.903433 2751.00
10.2077 2537.00
10.512 2500.00
10.8162 2317.00
11.1205 2299.00
11.4247 2214.00
11.729 2159.00
12.0333 1991.00
12.3375 1894.00
12.6418 1815.00
12.946 1853.00
13.2503 1795.00
13.5546 1657.00
13.8588 1628.00
14.1631 1595.00
14.4673 1512.00
14.7716 1461.00
15.0759 1492.00
15.3801 1421.00
15.6844 1413.00
15.9886 1336.00
16.2929 1323.00
16.5972 1268.00
16.9014 1270.00
17.2057 1255.00
17.5099 1173.00
17.8142 1148.00
18.1185 1143.00
18.4227 1167.00
18.727 1118.00
19.0312 1099.00
19.3355 1068.00
19.6398 1002.00
19.944 1019.00
20.2483 1026.00
20.5525 987.00
20.8568 1237.00
21.1611 959.00
21.4653 954.00
21.7696 931.00
22.0738 898.00
22.3781 912.00
22.6824 976.00
22.9866 876.00
23.2909 853.00
23.5951 912.00
23.8994 879.00
24.2037 806.00
24.5079 793.00
24.8122 751.00
25.1164 809.00
25.4207 792.00
25.725 990.00
26.0292 807.00
26.3335 730.00
26.6378 771.00
26.942 718.00
27.2463 715.00
27.5505 792.00
27.8548 727.00
28.1591 787.00
28.4633 725.00
28.7676 742.00
29.0718 703.00
29.3761 699.00
29.6804 766.00
29.9846 668.00
30.2889 671.00
30.5931 608.00
30.8974 579.00
31.2017 676.00
31.5059 649.00
31.8102 624.00
32.1144 629.00
32.4187 751.00
32.723 689.00
33.0272 549.00
33.3315 531.00
33.6357 544.00
33.94 569.00
34.2443 581.00
34.5485 514.00
34.8528 620.00
35.157 547.00
35.4613 519.00
35.7656 430.00
36.0698 459.00
36.3741 478.00
36.6783 485.00
36.9826 440.00
37.2869 448.00
37.5911 448.00
37.8954 427.00
38.1996 405.00
38.5039 449.00
38.8082 380.00
39.1124 427.00
39.4167 417.00
39.7209 427.00
40.0252 405.00
40.3295 384.00
40.6337 420.00
40.938 352.00
41.2422 360.00
41.5465 360.00
41.8508 417.00
42.155 380.00
42.4593 391.00
42.7635 380.00
43.0678 367.00
43.3721 368.00
43.6763 341.00
43.9806 354.00
44.2849 360.00
44.5891 348.00
44.8934 347.00
45.1976 363.00
45.5019 326.00
45.8062 351.00
46.1104 357.00
46.4147 370.00
46.7189 358.00
47.0232 360.00
47.3275 327.00
47.6317 328.00
47.936 355.00
48.2402 296.00
48.5445 340.00
48.8488 350.00
49.153 307.00
49.4573 327.00
49.7615 320.00
50.0658 310.00
50.3701 289.00
50.6743 330.00
50.9786 302.00
51.2828 296.00
51.5871 304.00
51.8914 316.00
52.1956 279.00
52.4999 307.00
52.8041 273.00
53.1084 265.00
53.4127 270.00
53.7169 289.00
54.0212 285.00
54.3254 270.00
54.6297 281.00
54.934 285.00
55.2382 248.00
55.5425 236.00
55.8467 249.00
56.151 266.00
56.4553 287.00
56.7595 264.00
57.0638 272.00
57.368 247.00
57.6723 275.00
57.9766 266.00
58.2808 269.00
58.5851 249.00
58.8893 249.00
59.1936 247.00
59.4979 268.00
59.8021 208.00
60.1064 287.00
60.4106 243.00
60.7149 228.00
61.0192 210.00
61.3234 247.00
61.6277 236.00
61.932 225.00
62.2362 217.00
62.5405 204.00
62.8447 231.00
63.149 233.00
63.4533 218.00
63.7575 232.00
64.0618 229.00
64.366 224.00
64.6703 225.00
64.9745 211.00
65.2788 223.00
65.5831 220.00
65.8873 219.00
66.1916 216.00
66.4959 187.00
66.8001 204.00
67.1044 218.00
67.4086 233.00
67.7129 226.00
68.0172 237.00
68.3214 240.00
68.6257 228.00
68.9299 205.00
69.2342 221.00
69.5385 220.00
69.8427 236.00
70.147 205.00
70.4512 227.00
70.7555 226.00
71.0598 258.00
71.364 203.00
71.6683 227.00
71.9725 208.00
72.2768 205.00
72.5811 223.00
72.8853 211.00
73.1896 189.00
73.4938 193.00
73.7981 239.00
74.1024 259.00
74.4066 203.00
74.7109 213.00
75.0151 226.00
75.3194 215.00
75.6237 222.00
75.9279 217.00
76.2322 233.00
76.5364 241.00
76.8407 242.00
77.145 186.00
77.4492 250.00
77.7535 220.00
78.0577 242.00
78.362 243.00
78.6663 222.00
78.9705 196.00
79.2748 224.00
79.579 219.00
79.8833 223.00
80.1876 211.00
80.4918 249.00
80.7961 230.00
81.1003 229.00
81.4046 276.00
81.7089 228.00
82.0131 224.00
82.3174 212.00
82.6217 219.00
82.9259 233.00
83.2302 224.00
83.5344 201.00
83.8387 228.00
84.143 270.00
84.4472 215.00
84.7515 239.00
85.0557 236.00
85.36 228.00
85.6643 216.00
85.9685 216.00
86.2728 181.00
86.577 221.00
86.8813 199.00
87.1856 197.00
87.4898 231.00
87.7941 191.00
88.0983 231.00
88.4026 192.00
88.7069 191.00
89.0111 215.00
89.3154 187.00
89.6196 210.00
89.9239 195.00
90.2282 184.00
90.5324 230.00
90.8367 213.00
91.1409 177.00
91.4452 222.00
91.7495 177.00
92.0537 203.00
92.358 181.00
92.6622 203.00
92.9665 191.00
93.2708 200.00
93.575 215.00
93.8793 173.00
94.1835 179.00
94.4878 168.00
94.7921 187.00
95.0963 171.00
95.4006 203.00
95.7048 179.00
96.0091 198.00
96.3134 210.00
96.6176 169.00
96.9219 191.00
97.2261 173.00
97.5304 192.00
97.8347 199.00
98.1389 204.00
98.4432 189.00
98.7474 213.00
99.0517 209.00
99.356 184.00
99.6602 173.00
99.9645 186.00
100.095 195.00

File: NSC_76.xy
9.903433 2723.00
10.2077 2592.00
10.512 2463.00
10.8162 2329.00
11.1205 2292.00
11.4247 2151.00
11.729 2105.00
12.0333 2042.00
12.3375 1941.00
12.6418 1901.00
12.946 1901.00
13.2503 1688.00
13.5546 1605.00
13.8588 1590.00
14.1631 1639.00
14.4673 1546.00
14.7716 1602.00
15.0759 1594.00
15.3801 1599.00
15.6844 1469.00
15.9886 1447.00
16.2929 1417.00
16.5972 1386.00
16.9014 1439.00
17.2057 1398.00
17.5099 1269.00
17.8142 1280.00
18.1185 1191.00
18.4227 1239.00
18.727 1224.00
19.0312 1192.00
19.3355 1377.00
19.6398 1241.00
19.944 1240.00
20.2483 1148.00
20.5525 1073.00
20.8568 1042.00
21.1611 1092.00
21.4653 1251.00
21.7696 1023.00
22.0738 1028.00
22.3781 1056.00
22.6824 1051.00
22.9866 997.00
23.2909 1016.00
23.5951 980.00
23.8994 911.00
24.2037 892.00
24.5079 977.00
24.8122 946.00
25.1164 999.00
25.4207 1312.00
25.725 2128.00
26.0292 961.00
26.3335 1123.00
26.6378 864.00
26.942 832.00
27.2463 886.00
27.5505 1202.00
27.8548 1875.00
28.1591 962.00
28.4633 954.00
28.7676 1142.00
29.0718 1103.00
29.3761 938.00
29.6804 804.00
29.9846 800.00
30.2889 810.00
30.5931 800.00
30.8974 741.00
31.2017 704.00
31.5059 731.00
31.8102 697.00
32.1144 686.00
32.4187 671.00
32.723 697.00
33.0272 627.00
33.3315 707.00
33.6357 870.00
33.94 660.00
34.2443 567.00
34.5485 599.00
34.8528 626.00
35.157 568.00
35.4613 622.00
35.7656 567.00
36.0698 481.00
36.3741 499.00
36.6783 510.00
36.9826 530.00
37.2869 538.00
37.5911 505.00
37.8954 512.00
38.1996 826.00
38.5039 443.00
38.8082 451.00
39.1124 436.00
39.4167 507.00
39.7209 698.00
40.0252 501.00
40.3295 413.00
40.6337 385.00
40.938 436.00
41.2422 445.00
41.5465 460.00
41.8508 408.00
42.155 437.00
42.4593 425.00
42.7635 441.00
43.0678 467.00
43.3721 435.00
43.6763 472.00
43.9806 652.00
44.2849 406.00
44.5891 586.00
44.8934 479.00
45.1976 400.00
45.5019 401.00
45.8062 398.00
46.1104 409.00
46.4147 398.00
46.7189 418.00
47.0232 442.00
47.3275 397.00
47.6317 381.00
47.936 983.00
48.2402 515.00
48.5445 1147.00
48.8488 390.00
49.153 386.00
49.4573 370.00
49.7615 388.00
50.0658 414.00
50.3701 406.00
50.6743 392.00
50.9786 355.00
51.2828 346.00
51.5871 518.00
51.8914 351.00
52.1956 376.00
52.4999 356.00
52.8041 484.00
53.1084 386.00
53.4127 317.00
53.7169 302.00
54.0212 367.00
54.3254 338.00
54.6297 359.00
54.934 431.00
55.2382 347.00
55.5425 311.00
55.8467 304.00
56.151 378.00
56.4553 480.00
56.7595 327.00
57.0638 368.00
57.368 405.00
57.6723 403.00
57.9766 300.00
58.2808 296.00
58.5851 290.00
58.8893 320.00
59.1936 297.00
59.4979 282.00
59.8021 320.00
60.1064 309.00
60.4106 339.00
60.7149 320.00
61.0192 317.00
61.3234 351.00
61.6277 382.00
61.932 300.00
62.2362 298.00
62.5405 315.00
62.8447 270.00
63.149 238.00
63.4533 241.00
63.7575 282.00
64.0618 371.00
64.366 322.00
64.6703 463.00
64.9745 321.00
65.2788 353.00
65.5831 270.00
65.8873 297.00
66.1916 271.00
66.4959 266.00
66.8001 268.00
67.1044 268.00
67.4086 269.00
67.7129 246.00
68.0172 246.00
68.3214 278.00
68.6257 249.00
68.9299 256.00
69.2342 246.00
69.5385 247.00
69.8427 263.00
70.147 354.00
70.4512 286.00
70.7555 262.00
71.0598 242.00
71.364 277.00
71.6683 234.00
71.9725 249.00
72.2768 246.00
72.5811 231.00
72.8853 238.00
73.1896 250.00
73.4938 244.00
73.7981 258.00
74.1024 241.00
74.4066 260.00
74.7109 234.00
75.0151 264.00
75.3194 326.00
75.6237 348.00
75.9279 272.00
76.2322 272.00
76.5364 298.00
76.8407 275.00
77.145 278.00
77.4492 295.00
77.7535 258.00
78.0577 326.00
78.362 309.00
78.6663 369.00
78.9705 283.00
79.2748 321.00
79.579 249.00
79.8833 324.00
80.1876 277.00
80.4918 311.00
80.7961 279.00
81.1003 302.00
81.4046 242.00
81.7089 298.00
82.0131 284.00
82.3174 308.00
82.6217 275.00
82.9259 296.00
83.2302 231.00
83.5344 264.00
83.8387 344.00
84.143 283.00
84.4472 272.00
84.7515 268.00
85.0557 239.00
85.36 263.00
85.6643 256.00
85.9685 300.00
86.2728 248.00
86.577 237.00
86.8813 226.00
87.1856 230.00
87.4898 241.00
87.7941 226.00
88.0983 224.00
88.4026 216.00
88.7069 198.00
89.0111 221.00
89.3154 213.00
89.6196 260.00
89.9239 214.00
90.2282 233.00
90.5324 277.00
90.8367 264.00
91.1409 226.00
91.4452 193.00
91.7495 218.00
92.0537 259.00
92.358 242.00
92.6622 237.00
92.9665 238.00
93.2708 201.00
93.575 221.00
93.8793 261.00
94.1835 203.00
94.4878 265.00
94.7921 232.00
95.0963 199.00
95.4006 228.00
95.7048 208.00
96.0091 228.00
96.3134 196.00
96.6176 201.00
96.9219 185.00
97.2261 239.00
97.5304 224.00
97.8347 206.00
98.1389 257.00
98.4432 256.00
98.7474 219.00
99.0517 228.00
99.356 213.00
99.6602 247.00
99.9645 222.00
100.095 224.00

File: NSC_77.xy
9.903433 2990.00
10.2077 2849.00
10.512 2753.00
10.8162 2764.00
11.1205 2686.00
11.4247 2638.00
11.729 2542.00
12.0333 2414.00
12.3375 2507.00
12.6418 2396.00
12.946 2307.00
13.2503 2322.00
13.5546 2275.00
13.8588 2263.00
14.1631 2168.00
14.4673 2290.00
14.7716 2068.00
15.0759 2056.00
15.3801 2062.00
15.6844 1995.00
15.9886 2129.00
16.2929 2015.00
16.5972 1961.00
16.9014 1986.00
17.2057 1946.00
17.5099 1916.00
17.8142 1887.00
18.1185 1862.00
18.4227 1840.00
18.727 1847.00
19.0312 1822.00
19.3355 2165.00
19.6398 3673.00
19.944 1854.00
20.2483 1847.00
20.5525 1881.00
20.8568 1796.00
21.1611 1724.00
21.4653 2117.00
21.7696 1908.00
22.0738 1745.00
22.3781 1752.00
22.6824 1684.00
22.9866 1799.00
23.2909 1779.00
23.5951 1743.00
23.8994 1732.00
24.2037 1730.00
24.5079 1663.00
24.8122 1782.00
25.1164 1940.00
25.4207 2567.00
25.725 14345.00
26.0292 2280.00
26.3335 1761.00
26.6378 1726.00
26.942 1740.00
27.2463 1730.00
27.5505 2123.00
27.8548 9723.00
28.1591 1997.00
28.4633 1677.00
28.7676 1755.00
29.0718 2072.00
29.3761 4687.00
29.6804 2330.00
29.9846 1763.00
30.2889 1664.00
30.5931 1587.00
30.8974 1482.00
31.2017 1600.00
31.5059 1526.00
31.8102 1405.00
32.1144 1503.00
32.4187 1430.00
32.723 1396.00
33.0272 1343.00
33.3315 1371.00
33.6357 1324.00
33.94 1335.00
34.2443 1335.00
34.5485 1247.00
34.8528 1247.00
35.157 1285.00
35.4613 1266.00
35.7656 1227.00
36.0698 1263.00
36.3741 1168.00
36.6783 1205.00
36.9826 1126.00
37.2869 1171.00
37.5911 1120.00
37.8954 1155.00
38.1996 1829.00
38.5039 1526.00
38.8082 1088.00
39.1124 1105.00
39.4167 1100.00
39.7209 1619.00
40.0252 1389.00
40.3295 1086.00
40.6337 1093.00
40.938 1035.00
41.2422 1075.00
41.5465 1073.00
41.8508 1049.00
42.155 1044.00
42.4593 1023.00
42.7635 1052.00
43.0678 1178.00
43.3721 1029.00
43.6763 1179.00
43.9806 2538.00
44.2849 1432.00
44.5891 1360.00
44.8934 2377.00
45.1976 1130.00
45.5019 1046.00
45.8062 972.00
46.1104 1019.00
46.4147 1155.00
46.7189 1051.00
47.0232 1065.00
47.3275 1024.00
47.6317 1091.00
47.936 2319.00
48.2402 2399.00
48.5445 3067.00
48.8488 2196.00
49.153 1105.00
49.4573 983.00
49.7615 1036.00
50.0658 1100.00
50.3701 1554.00
50.6743 1022.00
50.9786 955.00
51.2828 947.00
51.5871 945.00
51.8914 952.00
52.1956 920.00
52.4999 956.00
52.8041 1293.00
53.1084 1505.00
53.4127 974.00
53.7169 926.00
54.0212 904.00
54.3254 984.00
54.6297 904.00
54.934 1413.00
55.2382 1107.00
55.5425 930.00
55.8467 911.00
56.151 1067.00
56.4553 2196.00
56.7595 1228.00
57.0638 932.00
57.368 1052.00
57.6723 1965.00
57.9766 1011.00
58.2808 897.00
58.5851 914.00
58.8893 860.00
59.1936 874.00
59.4979 855.00
59.8021 886.00
60.1064 841.00
60.4106 893.00
60.7149 908.00
61.0192 922.00
61.3234 924.00
61.6277 1157.00
61.932 859.00
62.2362 887.00
62.5405 842.00
62.8447 843.00
63.149 839.00
63.4533 885.00
63.7575 871.00
64.0618 1406.00
64.366 1461.00
64.6703 3412.00
64.9745 1516.00
65.2788 1622.00
65.5831 924.00
65.8873 935.00
66.1916 871.00
66.4959 850.00
66.8001 768.00
67.1044 771.00
67.4086 830.00
67.7129 780.00
68.0172 755.00
68.3214 783.00
68.6257 835.00
68.9299 760.00
69.2342 813.00
69.5385 834.00
69.8427 854.00
70.147 1127.00
70.4512 1183.00
70.7555 773.00
71.0598 750.00
71.364 755.00
71.6683 746.00
71.9725 853.00
72.2768 801.00
72.5811 718.00
72.8853 772.00
73.1896 756.00
73.4938 699.00
73.7981 684.00
74.1024 767.00
74.4066 770.00
74.7109 721.00
75.0151 770.00
75.3194 1273.00
75.6237 1138.00
75.9279 851.00
76.2322 671.00
76.5364 753.00
76.8407 731.00
77.145 995.00
77.4492 829.00
77.7535 745.00
78.0577 899.00
78.362 1272.00
78.6663 1497.00
78.9705 1131.00
79.2748 741.00
79.579 745.00
79.8833 831.00
80.1876 781.00
80.4918 676.00
80.7961 668.00
81.1003 669.00
81.4046 692.00
81.7089 733.00
82.0131 941.00
82.3174 1270.00
82.6217 872.00
82.9259 670.00
83.2302 687.00
83.5344 659.00
83.8387 901.00
84.143 830.00
84.4472 724.00
84.7515 732.00
85.0557 720.00
85.36 663.00
85.6643 741.00
85.9685 816.00
86.2728 678.00
86.577 610.00
86.8813 624.00
87.1856 610.00
87.4898 651.00
87.7941 720.00
88.0983 652.00
88.4026 623.00
88.7069 656.00
89.0111 578.00
89.3154 697.00
89.6196 696.00
89.9239 660.00
90.2282 649.00
90.5324 870.00
90.8367 831.00
91.1409 715.00
91.4452 695.00
91.7495 682.00
92.0537 955.00
92.358 915.00
92.6622 891.00
92.9665 743.00
93.2708 712.00
93.575 673.00
93.8793 637.00
94.1835 610.00
94.4878 654.00
94.7921 679.00
95.0963 647.00
95.4006 651.00
95.7048 732.00
96.0091 697.00
96.3134 649.00
96.6176 604.00
96.9219 675.00
97.2261 975.00
97.5304 795.00
97.8347 734.00
98.1389 717.00
98.4432 761.00
98.7474 772.00
99.0517 739.00
99.356 854.00
99.6602 748.00
99.9645 731.00
100.095 663.00