Folder: alab-pipeline/data/xrd_creation/results (part 15)

File: Na_70.xy
9.903433 3000.00
10.2077 2770.00
10.512 2765.00
10.8162 2700.00
11.1205 2643.00
11.4247 2431.00
11.729 2423.00
12.0333 2340.00
12.3375 2290.00
12.6418 2202.00
12.946 2160.00
13.2503 2208.00
13.5546 2136.00
13.8588 2037.00
14.1631 2014.00
14.4673 1925.00
14.7716 1858.00
15.0759 1953.00
15.3801 1855.00
15.6844 1854.00
15.9886 1759.00
16.2929 1793.00
16.5972 1812.00
16.9014 1769.00
17.2057 1792.00
17.5099 1688.00
17.8142 1732.00
18.1185 1595.00
18.4227 1555.00
18.727 1607.00
19.0312 1695.00
19.3355 1825.00
19.6398 1945.00
19.944 2062.00
20.2483 3419.00
20.5525 2454.00
20.8568 1770.00
21.1611 1974.00
21.4653 2433.00
21.7696 2211.00
22.0738 1665.00
22.3781 1634.00
22.6824 1519.00
22.9866 1494.00
23.2909 2203.00
23.5951 1489.00
23.8994 1486.00
24.2037 1456.00
24.5079 1394.00
24.8122 1366.00
25.1164 1407.00
25.4207 1323.00
25.725 1427.00
26.0292 1468.00
26.3335 1459.00
26.6378 1808.00
26.942 1863.00
27.2463 1720.00
27.5505 1484.00
27.8548 1396.00
28.1591 1582.00
28.4633 1447.00
28.7676 1423.00
29.0718 1523.00
29.3761 1782.00
29.6804 9611.00
29.9846 1890.00
30.2889 1727.00
30.5931 1956.00
30.8974 1871.00
31.2017 1568.00
31.5059 1563.00
31.8102 1651.00
32.1144 1590.00
32.4187 1672.00
32.723 2133.00
33.0272 2535.00
33.3315 4955.00
33.6357 2002.00
33.94 1800.00
34.2443 1365.00
34.5485 1307.00
34.8528 1186.00
35.157 1219.00
35.4613 1182.00
35.7656 1506.00
36.0698 1258.00
36.3741 1294.00
36.6783 1034.00
36.9826 1129.00
37.2869 1044.00
37.5911 1059.00
37.8954 972.00
38.1996 970.00
38.5039 1100.00
38.8082 1181.00
39.1124 1081.00
39.4167 1054.00
39.7209 1938.00
40.0252 836.00
40.3295 836.00
40.6337 791.00
40.938 798.00
41.2422 1012.00
41.5465 839.00
41.8508 878.00
42.155 850.00
42.4593 877.00
42.7635 864.00
43.0678 983.00
43.3721 1853.00
43.6763 1114.00
43.9806 962.00
44.2849 917.00
44.5891 889.00
44.8934 936.00
45.1976 953.00
45.5019 940.00
45.8062 946.00
46.1104 978.00
46.4147 891.00
46.7189 851.00
47.0232 887.00
47.3275 1410.00
47.6317 1524.00
47.936 1239.00
48.2402 853.00
48.5445 923.00
48.8488 1499.00
49.153 735.00
49.4573 693.00
49.7615 659.00
50.0658 716.00
50.3701 685.00
50.6743 615.00
50.9786 623.00
51.2828 684.00
51.5871 666.00
51.8914 743.00
52.1956 806.00
52.4999 776.00
52.8041 722.00
53.1084 698.00
53.4127 743.00
53.7169 634.00
54.0212 657.00
54.3254 636.00
54.6297 607.00
54.934 743.00
55.2382 680.00
55.5425 615.00
55.8467 655.00
56.151 656.00
56.4553 647.00
56.7595 811.00
57.0638 707.00
57.368 620.00
57.6723 1182.00
57.9766 694.00
58.2808 731.00
58.5851 654.00
58.8893 638.00
59.1936 894.00
59.4979 844.00
59.8021 826.00
60.1064 667.00
60.4106 660.00
60.7149 652.00
61.0192 871.00
61.3234 697.00
61.6277 701.00
61.932 671.00
62.2362 594.00
62.5405 590.00
62.8447 584.00
63.149 661.00
63.4533 648.00
63.7575 558.00
64.0618 529.00
64.366 512.00
64.6703 531.00
64.9745 707.00
65.2788 588.00
65.5831 665.00
65.8873 704.00
66.1916 559.00
66.4959 558.00
66.8001 582.00
67.1044 524.00
67.4086 508.00
67.7129 527.00
68.0172 496.00
68.3214 478.00
68.6257 478.00
68.9299 453.00
69.2342 458.00
69.5385 568.00
69.8427 581.00
70.147 503.00
70.4512 592.00
70.7555 465.00
71.0598 498.00
71.364 430.00
71.6683 461.00
71.9725 425.00
72.2768 446.00
72.5811 427.00
72.8853 501.00
73.1896 521.00
73.4938 417.00
73.7981 394.00
74.1024 417.00
74.4066 383.00
74.7109 420.00
75.0151 413.00
75.3194 402.00
75.6237 369.00
75.9279 394.00
76.2322 424.00
76.5364 461.00
76.8407 442.00
77.145 410.00
77.4492 459.00
77.7535 388.00
78.0577 356.00
78.362 423.00
78.6663 369.00
78.9705 373.00
79.2748 444.00
79.579 386.00
79.8833 377.00
80.1876 390.00
80.4918 403.00
80.7961 381.00
81.1003 393.00
81.4046 420.00
81.7089 539.00
82.0131 458.00
82.3174 415.00
82.6217 376.00
82.9259 404.00
83.2302 439.00
83.5344 416.00
83.8387 520.00
84.143 504.00
84.4472 404.00
84.7515 420.00
85.0557 465.00
85.36 394.00
85.6643 359.00
85.9685 372.00
86.2728 397.00
86.577 418.00
86.8813 407.00
87.1856 407.00
87.4898 385.00
87.7941 355.00
88.0983 361.00
88.4026 356.00
88.7069 392.00
89.0111 362.00
89.3154 379.00
89.6196 347.00
89.9239 309.00
90.2282 327.00
90.5324 321.00
90.8367 338.00
91.1409 329.00
91.4452 363.00
91.7495 356.00
92.0537 390.00
92.358 348.00
92.6622 365.00
92.9665 341.00
93.2708 356.00
93.575 374.00
93.8793 309.00
94.1835 366.00
94.4878 355.00
94.7921 468.00
95.0963 537.00
95.4006 428.00
95.7048 405.00
96.0091 361.00
96.3134 392.00
96.6176 408.00
96.9219 323.00
97.2261 346.00
97.5304 360.00
97.8347 364.00
98.1389 401.00
98.4432 401.00
98.7474 347.00
99.0517 371.00
99.356 526.00
99.6602 399.00
99.9645 351.00
100.095 357.00

File: Na_71.xy
9.903433 2674.00
10.2077 2481.00
10.512 2259.00
10.8162 2276.00
11.1205 2256.00
11.4247 2070.00
11.729 1914.00
12.0333 1887.00
12.3375 1768.00
12.6418 1768.00
12.946 1657.00
13.2503 1605.00
13.5546 1587.00
13.8588 1565.00
14.1631 1479.00
14.4673 1378.00
14.7716 1435.00
15.0759 1289.00
15.3801 1338.00
15.6844 1308.00
15.9886 1293.00
16.2929 1275.00
16.5972 1223.00
16.9014 1180.00
17.2057 1240.00
17.5099 1124.00
17.8142 1096.00
18.1185 1085.00
18.4227 1122.00
18.727 1095.00
19.0312 1066.00
19.3355 1021.00
19.6398 981.00
19.944 1014.00
20.2483 958.00
20.5525 945.00
20.8568 917.00
21.1611 975.00
21.4653 851.00
21.7696 871.00
22.0738 851.00
22.3781 796.00
22.6824 853.00
22.9866 793.00
23.2909 803.00
23.5951 777.00
23.8994 736.00
24.2037 748.00
24.5079 767.00
24.8122 673.00
25.1164 850.00
25.4207 687.00
25.725 768.00
26.0292 717.00
26.3335 832.00
26.6378 722.00
26.942 663.00
27.2463 642.00
27.5505 684.00
27.8548 646.00
28.1591 707.00
28.4633 621.00
28.7676 690.00
29.0718 628.00
29.3761 634.00
29.6804 652.00
29.9846 679.00
30.2889 600.00
30.5931 590.00
30.8974 530.00
31.2017 597.00
31.5059 519.00
31.8102 569.00
32.1144 556.00
32.4187 508.00
32.723 579.00
33.0272 538.00
33.3315 562.00
33.6357 580.00
33.94 503.00
34.2443 453.00
34.5485 450.00
34.8528 474.00
35.157 521.00
35.4613 482.00
35.7656 472.00
36.0698 443.00
36.3741 452.00
36.6783 396.00
36.9826 402.00
37.2869 435.00
37.5911 461.00
37.8954 405.00
38.1996 418.00
38.5039 394.00
38.8082 397.00
39.1124 393.00
39.4167 381.00
39.7209 396.00
40.0252 371.00
40.3295 322.00
40.6337 383.00
40.938 331.00
41.2422 372.00
41.5465 356.00
41.8508 356.00
42.155 362.00
42.4593 374.00
42.7635 404.00
43.0678 348.00
43.3721 381.00
43.6763 364.00
43.9806 354.00
44.2849 323.00
44.5891 349.00
44.8934 330.00
45.1976 336.00
45.5019 326.00
45.8062 314.00
46.1104 328.00
46.4147 328.00
46.7189 283.00
47.0232 309.00
47.3275 304.00
47.6317 298.00
47.936 323.00
48.2402 327.00
48.5445 302.00
48.8488 315.00
49.153 311.00
49.4573 275.00
49.7615 272.00
50.0658 298.00
50.3701 327.00
50.6743 291.00
50.9786 278.00
51.2828 337.00
51.5871 327.00
51.8914 286.00
52.1956 281.00
52.4999 296.00
52.8041 286.00
53.1084 247.00
53.4127 302.00
53.7169 260.00
54.0212 270.00
54.3254 269.00
54.6297 268.00
54.934 245.00
55.2382 277.00
55.5425 245.00
55.8467 294.00
56.151 249.00
56.4553 242.00
56.7595 246.00
57.0638 269.00
57.368 234.00
57.6723 256.00
57.9766 226.00
58.2808 237.00
58.5851 241.00
58.8893 225.00
59.1936 212.00
59.4979 229.00
59.8021 221.00
60.1064 202.00
60.4106 212.00
60.7149 217.00
61.0192 208.00
61.3234 225.00
61.6277 248.00
61.932 226.00
62.2362 221.00
62.5405 206.00
62.8447 234.00
63.149 214.00
63.4533 222.00
63.7575 209.00
64.0618 220.00
64.366 221.00
64.6703 216.00
64.9745 196.00
65.2788 200.00
65.5831 205.00
65.8873 202.00
66.1916 196.00
66.4959 203.00
66.8001 203.00
67.1044 180.00
67.4086 224.00
67.7129 214.00
68.0172 206.00
68.3214 177.00
68.6257 200.00
68.9299 183.00
69.2342 197.00
69.5385 201.00
69.8427 195.00
70.147 217.00
70.4512 197.00
70.7555 204.00
71.0598 207.00
71.364 213.00
71.6683 212.00
71.9725 198.00
72.2768 189.00
72.5811 183.00
72.8853 185.00
73.1896 180.00
73.4938 197.00
73.7981 223.00
74.1024 207.00
74.4066 204.00
74.7109 226.00
75.0151 213.00
75.3194 208.00
75.6237 214.00
75.9279 192.00
76.2322 271.00
76.5364 209.00
76.8407 228.00
77.145 219.00
77.4492 248.00
77.7535 217.00
78.0577 219.00
78.362 245.00
78.6663 217.00
78.9705 246.00
79.2748 269.00
79.579 223.00
79.8833 245.00
80.1876 217.00
80.4918 256.00
80.7961 239.00
81.1003 246.00
81.4046 261.00
81.7089 269.00
82.0131 240.00
82.3174 264.00
82.6217 230.00
82.9259 229.00
83.2302 217.00
83.5344 192.00
83.8387 189.00
84.143 202.00
84.4472 218.00
84.7515 234.00
85.0557 180.00
85.36 199.00
85.6643 229.00
85.9685 188.00
86.2728 201.00
86.577 205.00
86.8813 201.00
87.1856 210.00
87.4898 169.00
87.7941 229.00
88.0983 202.00
88.4026 208.00
88.7069 178.00
89.0111 172.00
89.3154 196.00
89.6196 181.00
89.9239 194.00
90.2282 188.00
90.5324 188.00
90.8367 194.00
91.1409 210.00
91.4452 185.00
91.7495 195.00
92.0537 193.00
92.358 189.00
92.6622 198.00
92.9665 157.00
93.2708 199.00
93.575 177.00
93.8793 211.00
94.1835 195.00
94.4878 153.00
94.7921 179.00
95.0963 201.00
95.4006 176.00
95.7048 156.00
96.0091 194.00
96.3134 189.00
96.6176 186.00
96.9219 205.00
97.2261 172.00
97.5304 236.00
97.8347 188.00
98.1389 196.00
98.4432 178.00
98.7474 190.00
99.0517 175.00
99.356 180.00
99.6602 204.00
99.9645 183.00
100.095 172.00

File: Na_72.xy
9.903433 2793.00
10.2077 2776.00
10.512 2667.00
10.8162 2682.00
11.1205 2578.00
11.4247 2560.00
11.729 2410.00
12.0333 2325.00
12.3375 2313.00
12.6418 2193.00
12.946 2114.00
13.2503 2075.00
13.5546 2206.00
13.8588 2030.00
14.1631 2001.00
14.4673 1996.00
14.7716 1947.00
15.0759 1870.00
15.3801 1945.00
15.6844 1940.00
15.9886 1852.00
16.2929 1786.00
16.5972 1810.00
16.9014 1795.00
17.2057 1739.00
17.5099 1715.00
17.8142 1804.00
18.1185 1716.00
18.4227 1720.00
18.727 1701.00
19.0312 1752.00
19.3355 1831.00
19.6398 1824.00
19.944 1950.00
20.2483 3166.00
20.5525 2209.00
20.8568 1687.00
21.1611 2002.00
21.4653 2116.00
21.7696 2065.00
22.0738 1562.00
22.3781 1610.00
22.6824 1593.00
22.9866 1562.00
23.2909 2347.00
23.5951 1563.00
23.8994 1434.00
24.2037 1400.00
24.5079 1365.00
24.8122 1391.00
25.1164 1381.00
25.4207 1405.00
25.725 1427.00
26.0292 1451.00
26.3335 1509.00
26.6378 1862.00
26.942 1636.00
27.2463 1592.00
27.5505 1574.00
27.8548 1548.00
28.1591 1594.00
28.4633 1452.00
28.7676 1462.00
29.0718 1543.00
29.3761 1864.00
29.6804 11345.00
29.9846 1884.00
30.2889 1780.00
30.5931 1850.00
30.8974 1780.00
31.2017 1601.00
31.5059 1587.00
31.8102 1601.00
32.1144 1550.00
32.4187 1647.00
32.723 1899.00
33.0272 2381.00
33.3315 4020.00
33.6357 1750.00
33.94 1722.00
34.2443 1399.00
34.5485 1319.00
34.8528 1251.00
35.157 1203.00
35.4613 1253.00
35.7656 1319.00
36.0698 1232.00
36.3741 1387.00
36.6783 1033.00
36.9826 1070.00
37.2869 1038.00
37.5911 976.00
37.8954 928.00
38.1996 964.00
38.5039 1125.00
38.8082 1117.00
39.1124 984.00
39.4167 1007.00
39.7209 2184.00
40.0252 833.00
40.3295 881.00
40.6337 815.00
40.938 876.00
41.2422 961.00
41.5465 817.00
41.8508 851.00
42.155 825.00
42.4593 773.00
42.7635 822.00
43.0678 874.00
43.3721 2097.00
43.6763 1001.00
43.9806 933.00
44.2849 832.00
44.5891 837.00
44.8934 932.00
45.1976 872.00
45.5019 928.00
45.8062 836.00
46.1104 952.00
46.4147 817.00
46.7189 872.00
47.0232 851.00
47.3275 1542.00
47.6317 1539.00
47.936 1182.00
48.2402 815.00
48.5445 961.00
48.8488 1707.00
49.153 748.00
49.4573 720.00
49.7615 704.00
50.0658 702.00
50.3701 650.00
50.6743 658.00
50.9786 640.00
51.2828 673.00
51.5871 725.00
51.8914 687.00
52.1956 804.00
52.4999 711.00
52.8041 671.00
53.1084 675.00
53.4127 650.00
53.7169 685.00
54.0212 673.00
54.3254 612.00
54.6297 642.00
54.934 674.00
55.2382 642.00
55.5425 667.00
55.8467 647.00
56.151 674.00
56.4553 603.00
56.7595 805.00
57.0638 635.00
57.368 657.00
57.6723 1225.00
57.9766 663.00
58.2808 737.00
58.5851 628.00
58.8893 670.00
59.1936 817.00
59.4979 802.00
59.8021 715.00
60.1064 598.00
60.4106 608.00
60.7149 629.00
61.0192 835.00
61.3234 691.00
61.6277 792.00
61.932 634.00
62.2362 584.00
62.5405 570.00
62.8447 604.00
63.149 626.00
63.4533 735.00
63.7575 515.00
64.0618 535.00
64.366 544.00
64.6703 568.00
64.9745 774.00
65.2788 577.00
65.5831 618.00
65.8873 750.00
66.1916 593.00
66.4959 531.00
66.8001 506.00
67.1044 532.00
67.4086 517.00
67.7129 537.00
68.0172 536.00
68.3214 467.00
68.6257 451.00
68.9299 433.00
69.2342 456.00
69.5385 575.00
69.8427 543.00
70.147 525.00
70.4512 593.00
70.7555 472.00
71.0598 493.00
71.364 433.00
71.6683 456.00
71.9725 426.00
72.2768 390.00
72.5811 409.00
72.8853 462.00
73.1896 570.00
73.4938 408.00
73.7981 412.00
74.1024 438.00
74.4066 384.00
74.7109 412.00
75.0151 384.00
75.3194 412.00
75.6237 407.00
75.9279 417.00
76.2322 413.00
76.5364 456.00
76.8407 464.00
77.145 436.00
77.4492 455.00
77.7535 409.00
78.0577 341.00
78.362 412.00
78.6663 389.00
78.9705 432.00
79.2748 436.00
79.579 417.00
79.8833 429.00
80.1876 372.00
80.4918 328.00
80.7961 376.00
81.1003 431.00
81.4046 435.00
81.7089 574.00
82.0131 476.00
82.3174 402.00
82.6217 407.00
82.9259 379.00
83.2302 409.00
83.5344 363.00
83.8387 546.00
84.143 523.00
84.4472 398.00
84.7515 422.00
85.0557 492.00
85.36 383.00
85.6643 349.00
85.9685 375.00
86.2728 361.00
86.577 431.00
86.8813 338.00
87.1856 377.00
87.4898 364.00
87.7941 348.00
88.0983 354.00
88.4026 340.00
88.7069 328.00
89.0111 370.00
89.3154 369.00
89.6196 309.00
89.9239 362.00
90.2282 359.00
90.5324 334.00
90.8367 317.00
91.1409 358.00
91.4452 348.00
91.7495 367.00
92.0537 367.00
92.358 340.00
92.6622 378.00
92.9665 350.00
93.2708 384.00
93.575 394.00
93.8793 355.00
94.1835 366.00
94.4878 372.00
94.7921 427.00
95.0963 569.00
95.4006 475.00
95.7048 354.00
96.0091 334.00
96.3134 450.00
96.6176 384.00
96.9219 349.00
97.2261 331.00
97.5304 370.00
97.8347 375.00
98.1389 398.00
98.4432 361.00
98.7474 386.00
99.0517 328.00
99.356 498.00
99.6602 401.00
99.9645 329.00
100.095 315.00

File: Na_73.xy
9.903433 2794.00
10.2077 2776.00
10.512 2686.00
10.8162 2705.00
11.1205 2543.00
11.4247 2447.00
11.729 2870.00
12.0333 2168.00
12.3375 2091.00
12.6418 2080.00
12.946 2111.00
13.2503 2018.00
13.5546 1947.00
13.8588 1938.00
14.1631 1918.00
14.4673 1861.00
14.7716 1692.00
15.0759 1755.00
15.3801 1777.00
15.6844 1702.00
15.9886 1664.00
16.2929 1818.00
16.5972 1639.00
16.9014 1641.00
17.2057 1784.00
17.5099 1896.00
17.8142 3848.00
18.1185 1570.00
18.4227 1496.00
18.727 1742.00
19.0312 1604.00
19.3355 1819.00
19.6398 1382.00
19.944 1462.00
20.2483 2846.00
20.5525 1856.00
20.8568 1407.00
21.1611 1526.00
21.4653 1607.00
21.7696 1594.00
22.0738 1334.00
22.3781 1318.00
22.6824 4993.00
22.9866 1375.00
23.2909 3982.00
23.5951 2548.00
23.8994 1146.00
24.2037 1055.00
24.5079 1120.00
24.8122 1073.00
25.1164 1043.00
25.4207 3529.00
25.725 2441.00
26.0292 1712.00
26.3335 1163.00
26.6378 1368.00
26.942 2104.00
27.2463 1338.00
27.5505 1171.00
27.8548 950.00
28.1591 1499.00
28.4633 953.00
28.7676 946.00
29.0718 1433.00
29.3761 1270.00
29.6804 2997.00
29.9846 1100.00
30.2889 992.00
30.5931 808.00
30.8974 944.00
31.2017 1674.00
31.5059 1432.00
31.8102 4123.00
32.1144 2092.00
32.4187 3751.00
32.723 3471.00
33.0272 2712.00
33.3315 3627.00
33.6357 1739.00
33.94 1492.00
34.2443 1806.00
34.5485 1771.00
34.8528 1418.00
35.157 1158.00
35.4613 965.00
35.7656 1129.00
36.0698 884.00
36.3741 1407.00
36.6783 750.00
36.9826 812.00
37.2869 728.00
37.5911 1583.00
37.8954 721.00
38.1996 598.00
38.5039 701.00
38.8082 925.00
39.1124 704.00
39.4167 921.00
39.7209 892.00
40.0252 716.00
40.3295 1038.00
40.6337 561.00
40.938 1002.00
41.2422 1328.00
41.5465 757.00
41.8508 1376.00
42.155 762.00
42.4593 803.00
42.7635 799.00
43.0678 646.00
43.3721 954.00
43.6763 1275.00
43.9806 1685.00
44.2849 777.00
44.5891 619.00
44.8934 689.00
45.1976 687.00
45.5019 774.00
45.8062 904.00
46.1104 1429.00
46.4147 792.00
46.7189 655.00
47.0232 1115.00
47.3275 1880.00
47.6317 1776.00
47.936 1326.00
48.2402 734.00
48.5445 694.00
48.8488 684.00
49.153 567.00
49.4573 625.00
49.7615 636.00
50.0658 631.00
50.3701 528.00
50.6743 541.00
50.9786 700.00
51.2828 698.00
51.5871 630.00
51.8914 807.00
52.1956 671.00
52.4999 885.00
52.8041 1459.00
53.1084 762.00
53.4127 1022.00
53.7169 787.00
54.0212 719.00
54.3254 655.00
54.6297 849.00
54.934 870.00
55.2382 614.00
55.5425 483.00
55.8467 439.00
56.151 595.00
56.4553 748.00
56.7595 727.00
57.0638 916.00
57.368 1029.00
57.6723 814.00
57.9766 771.00
58.2808 513.00
58.5851 460.00
58.8893 654.00
59.1936 655.00
59.4979 676.00
59.8021 1054.00
60.1064 736.00
60.4106 528.00
60.7149 846.00
61.0192 761.00
61.3234 528.00
61.6277 492.00
61.932 391.00
62.2362 457.00
62.5405 511.00
62.8447 519.00
63.149 658.00
63.4533 677.00
63.7575 635.00
64.0618 542.00
64.366 666.00
64.6703 545.00
64.9745 614.00
65.2788 484.00
65.5831 637.00
65.8873 672.00
66.1916 690.00
66.4959 716.00
66.8001 559.00
67.1044 455.00
67.4086 466.00
67.7129 733.00
68.0172 623.00
68.3214 370.00
68.6257 390.00
68.9299 402.00
69.2342 609.00
69.5385 587.00
69.8427 479.00
70.147 372.00
70.4512 503.00
70.7555 577.00
71.0598 462.00
71.364 405.00
71.6683 450.00
71.9725 702.00
72.2768 544.00
72.5811 536.00
72.8853 597.00
73.1896 478.00
73.4938 433.00
73.7981 385.00
74.1024 376.00
74.4066 389.00
74.7109 390.00
75.0151 410.00
75.3194 489.00
75.6237 438.00
75.9279 386.00
76.2322 516.00
76.5364 437.00
76.8407 393.00
77.145 437.00
77.4492 379.00
77.7535 425.00
78.0577 485.00
78.362 427.00
78.6663 386.00
78.9705 360.00
79.2748 437.00
79.579 519.00
79.8833 429.00
80.1876 426.00
80.4918 501.00
80.7961 458.00
81.1003 511.00
81.4046 533.00
81.7089 426.00
82.0131 393.00
82.3174 347.00
82.6217 334.00
82.9259 321.00
83.2302 351.00
83.5344 433.00
83.8387 396.00
84.143 410.00
84.4472 392.00
84.7515 393.00
85.0557 410.00
85.36 402.00
85.6643 346.00
85.9685 384.00
86.2728 464.00
86.577 379.00
86.8813 444.00
87.1856 412.00
87.4898 360.00
87.7941 378.00
88.0983 397.00
88.4026 428.00
88.7069 456.00
89.0111 416.00
89.3154 370.00
89.6196 348.00
89.9239 368.00
90.2282 360.00
90.5324 421.00
90.8367 365.00
91.1409 324.00
91.4452 341.00
91.7495 400.00
92.0537 421.00
92.358 381.00
92.6622 413.00
92.9665 397.00
93.2708 348.00
93.575 407.00
93.8793 405.00
94.1835 392.00
94.4878 351.00
94.7921 408.00
95.0963 416.00
95.4006 501.00
95.7048 476.00
96.0091 449.00
96.3134 389.00
96.6176 356.00
96.9219 336.00
97.2261 342.00
97.5304 296.00
97.8347 349.00
98.1389 347.00
98.4432 362.00
98.7474 358.00
99.0517 359.00
99.356 359.00
99.6602 344.00
99.9645 364.00
100.095 378.00

File: Na_74.xy
9.903433 2884.00
10.2077 2795.00
10.512 2690.00
10.8162 2689.00
11.1205 2456.00
11.4247 2476.00
11.729 2917.00
12.0333 2181.00
12.3375 2147.00
12.6418 2189.00
12.946 2155.00
13.2503 2027.00
13.5546 1988.00
13.8588 1983.00
14.1631 1887.00
14.4673 1934.00
14.7716 1808.00
15.0759 1782.00
15.3801 1702.00
15.6844 1716.00
15.9886 1836.00
16.2929 1777.00
16.5972 1625.00
16.9014 1645.00
17.2057 1791.00
17.5099 1967.00
17.8142 3776.00
18.1185 1541.00
18.4227 1619.00
18.727 1884.00
19.0312 1599.00
19.3355 1785.00
19.6398 1407.00
19.944 1423.00
20.2483 2798.00
20.5525 1610.00
20.8568 1370.00
21.1611 1600.00
21.4653 1514.00
21.7696 1380.00
22.0738 1283.00
22.3781 1412.00
22.6824 4876.00
22.9866 1452.00
23.2909 3563.00
23.5951 2550.00
23.8994 1196.00
24.2037 1118.00
24.5079 1117.00
24.8122 1114.00
25.1164 1124.00
25.4207 3662.00
25.725 2549.00
26.0292 1511.00
26.3335 1283.00
26.6378 1335.00
26.942 2056.00
27.2463 1263.00
27.5505 1140.00
27.8548 927.00
28.1591 1454.00
28.4633 979.00
28.7676 943.00
29.0718 1579.00
29.3761 1493.00
29.6804 2688.00
29.9846 1044.00
30.2889 1044.00
30.5931 874.00
30.8974 1072.00
31.2017 2031.00
31.5059 1511.00
31.8102 4455.00
32.1144 1940.00
32.4187 3747.00
32.723 3404.00
33.0272 2581.00
33.3315 3771.00
33.6357 1734.00
33.94 1373.00
34.2443 2067.00
34.5485 1830.00
34.8528 1348.00
35.157 1064.00
35.4613 994.00
35.7656 1077.00
36.0698 901.00
36.3741 1412.00
36.6783 803.00
36.9826 715.00
37.2869 784.00
37.5911 1634.00
37.8954 623.00
38.1996 602.00
38.5039 690.00
38.8082 882.00
39.1124 687.00
39.4167 805.00
39.7209 789.00
40.0252 666.00
40.3295 1074.00
40.6337 597.00
40.938 1003.00
41.2422 1246.00
41.5465 758.00
41.8508 1432.00
42.155 715.00
42.4593 878.00
42.7635 754.00
43.0678 669.00
43.3721 884.00
43.6763 1418.00
43.9806 1651.00
44.2849 767.00
44.5891 627.00
44.8934 639.00
45.1976 644.00
45.5019 785.00
45.8062 941.00
46.1104 1245.00
46.4147 775.00
46.7189 666.00
47.0232 1291.00
47.3275 1818.00
47.6317 1776.00
47.936 1484.00
48.2402 689.00
48.5445 624.00
48.8488 612.00
49.153 551.00
49.4573 603.00
49.7615 594.00
50.0658 671.00
50.3701 518.00
50.6743 478.00
50.9786 772.00
51.2828 614.00
51.5871 581.00
51.8914 879.00
52.1956 726.00
52.4999 884.00
52.8041 1390.00
53.1084 792.00
53.4127 1021.00
53.7169 803.00
54.0212 759.00
54.3254 628.00
54.6297 856.00
54.934 902.00
55.2382 636.00
55.5425 456.00
55.8467 489.00
56.151 629.00
56.4553 745.00
56.7595 804.00
57.0638 888.00
57.368 1098.00
57.6723 803.00
57.9766 799.00
58.2808 497.00
58.5851 521.00
58.8893 749.00
59.1936 642.00
59.4979 630.00
59.8021 961.00
60.1064 706.00
60.4106 536.00
60.7149 799.00
61.0192 693.00
61.3234 558.00
61.6277 428.00
61.932 390.00
62.2362 457.00
62.5405 495.00
62.8447 517.00
63.149 630.00
63.4533 665.00
63.7575 671.00
64.0618 561.00
64.366 634.00
64.6703 621.00
64.9745 620.00
65.2788 443.00
65.5831 548.00
65.8873 662.00
66.1916 694.00
66.4959 669.00
66.8001 532.00
67.1044 483.00
67.4086 463.00
67.7129 713.00
68.0172 604.00
68.3214 426.00
68.6257 345.00
68.9299 364.00
69.2342 630.00
69.5385 580.00
69.8427 458.00
70.147 407.00
70.4512 491.00
70.7555 613.00
71.0598 458.00
71.364 393.00
71.6683 475.00
71.9725 748.00
72.2768 496.00
72.5811 442.00
72.8853 566.00
73.1896 523.00
73.4938 405.00
73.7981 381.00
74.1024 384.00
74.4066 428.00
74.7109 393.00
75.0151 407.00
75.3194 431.00
75.6237 428.00
75.9279 368.00
76.2322 515.00
76.5364 449.00
76.8407 355.00
77.145 432.00
77.4492 368.00
77.7535 427.00
78.0577 493.00
78.362 442.00
78.6663 357.00
78.9705 377.00
79.2748 407.00
79.579 470.00
79.8833 391.00
80.1876 421.00
80.4918 503.00
80.7961 485.00
81.1003 511.00
81.4046 532.00
81.7089 392.00
82.0131 357.00
82.3174 382.00
82.6217 356.00
82.9259 286.00
83.2302 340.00
83.5344 443.00
83.8387 374.00
84.143 389.00
84.4472 400.00
84.7515 353.00
85.0557 391.00
85.36 409.00
85.6643 342.00
85.9685 422.00
86.2728 465.00
86.577 355.00
86.8813 462.00
87.1856 362.00
87.4898 397.00
87.7941 355.00
88.0983 406.00
88.4026 459.00
88.7069 414.00
89.0111 401.00
89.3154 352.00
89.6196 342.00
89.9239 337.00
90.2282 348.00
90.5324 441.00
90.8367 380.00
91.1409 308.00
91.4452 376.00
91.7495 419.00
92.0537 435.00
92.358 359.00
92.6622 426.00
92.9665 381.00
93.2708 350.00
93.575 362.00
93.8793 377.00
94.1835 371.00
94.4878 327.00
94.7921 388.00
95.0963 379.00
95.4006 457.00
95.7048 487.00
96.0091 435.00
96.3134 369.00
96.6176 321.00
96.9219 348.00
97.2261 355.00
97.5304 319.00
97.8347 309.00
98.1389 326.00
98.4432 305.00
98.7474 372.00
99.0517 329.00
99.356 328.00
99.6602 332.00
99.9645 415.00
100.095 384.00