Folder: alab-pipeline/data/xrd_creation/results (part 2)

File: MINES_4.xy
9.903433 2733.00
10.2077 2641.00
10.512 2537.00
10.8162 2462.00
11.1205 2213.00
11.4247 2233.00
11.729 2083.00
12.0333 2064.00
12.3375 2014.00
12.6418 1866.00
12.946 1802.00
13.2503 1762.00
13.5546 1799.00
13.8588 1741.00
14.1631 1928.00
14.4673 1590.00
14.7716 1603.00
15.0759 1526.00
15.3801 1494.00
15.6844 1480.00
15.9886 1458.00
16.2929 1521.00
16.5972 1789.00
16.9014 1370.00
17.2057 1625.00
17.5099 1377.00
17.8142 1337.00
18.1185 1283.00
18.4227 1245.00
18.727 1179.00
19.0312 1201.00
19.3355 1169.00
19.6398 1189.00
19.944 1356.00
20.2483 1482.00
20.5525 1944.00
20.8568 1299.00
21.1611 2551.00
21.4653 1155.00
21.7696 1245.00
22.0738 1930.00
22.3781 2279.00
22.6824 1328.00
22.9866 1449.00
23.2909 1034.00
23.5951 1001.00
23.8994 1855.00
24.2037 2187.00
24.5079 2047.00
24.8122 1460.00
25.1164 6876.00
25.4207 1771.00
25.725 1061.00
26.0292 1012.00
26.3335 986.00
26.6378 1599.00
26.942 9426.00
27.2463 1167.00
27.5505 945.00
27.8548 878.00
28.1591 936.00
28.4633 907.00
28.7676 1054.00
29.0718 1126.00
29.3761 1111.00
29.6804 1069.00
29.9846 968.00
30.2889 1390.00
30.5931 1054.00
30.8974 1652.00
31.2017 1794.00
31.5059 2559.00
31.8102 6542.00
32.1144 1413.00
32.4187 755.00
32.723 669.00
33.0272 642.00
33.3315 591.00
33.6357 576.00
33.94 555.00
34.2443 630.00
34.5485 666.00
34.8528 719.00
35.157 819.00
35.4613 2121.00
35.7656 797.00
36.0698 763.00
36.3741 804.00
36.6783 1790.00
36.9826 905.00
37.2869 564.00
37.5911 618.00
37.8954 2434.00
38.1996 656.00
38.5039 1472.00
38.8082 624.00
39.1124 714.00
39.4167 943.00
39.7209 1573.00
40.0252 557.00
40.3295 533.00
40.6337 642.00
40.938 479.00
41.2422 537.00
41.5465 763.00
41.8508 542.00
42.155 538.00
42.4593 606.00
42.7635 861.00
43.0678 632.00
43.3721 1241.00
43.6763 597.00
43.9806 482.00
44.2849 938.00
44.5891 524.00
44.8934 485.00
45.1976 671.00
45.5019 659.00
45.8062 542.00
46.1104 669.00
46.4147 1320.00
46.7189 477.00
47.0232 548.00
47.3275 1020.00
47.6317 488.00
47.936 396.00
48.2402 393.00
48.5445 390.00
48.8488 572.00
49.153 446.00
49.4573 524.00
49.7615 457.00
50.0658 525.00
50.3701 1361.00
50.6743 774.00
50.9786 884.00
51.2828 582.00
51.5871 486.00
51.8914 693.00
52.1956 797.00
52.4999 955.00
52.8041 3203.00
53.1084 1257.00
53.4127 439.00
53.7169 409.00
54.0212 386.00
54.3254 563.00
54.6297 512.00
54.934 541.00
55.2382 669.00
55.5425 639.00
55.8467 585.00
56.151 481.00
56.4553 421.00
56.7595 482.00
57.0638 463.00
57.368 385.00
57.6723 494.00
57.9766 702.00
58.2808 450.00
58.5851 417.00
58.8893 327.00
59.1936 366.00
59.4979 386.00
59.8021 442.00
60.1064 838.00
60.4106 602.00
60.7149 725.00
61.0192 707.00
61.3234 799.00
61.6277 463.00
61.932 598.00
62.2362 550.00
62.5405 1007.00
62.8447 1517.00
63.149 669.00
63.4533 540.00
63.7575 532.00
64.0618 574.00
64.366 730.00
64.6703 431.00
64.9745 573.00
65.2788 406.00
65.5831 421.00
65.8873 741.00
66.1916 505.00
66.4959 371.00
66.8001 357.00
67.1044 347.00
67.4086 410.00
67.7129 458.00
68.0172 667.00
68.3214 996.00
68.6257 998.00
68.9299 703.00
69.2342 624.00
69.5385 442.00
69.8427 360.00
70.147 351.00
70.4512 493.00
70.7555 402.00
71.0598 300.00
71.364 327.00
71.6683 333.00
71.9725 376.00
72.2768 423.00
72.5811 384.00
72.8853 330.00
73.1896 323.00
73.4938 324.00
73.7981 428.00
74.1024 351.00
74.4066 263.00
74.7109 262.00
75.0151 220.00
75.3194 275.00
75.6237 311.00
75.9279 407.00
76.2322 551.00
76.5364 448.00
76.8407 346.00
77.145 278.00
77.4492 376.00
77.7535 458.00
78.0577 372.00
78.362 407.00
78.6663 369.00
78.9705 382.00
79.2748 436.00
79.579 355.00
79.8833 331.00
80.1876 392.00
80.4918 346.00
80.7961 315.00
81.1003 279.00
81.4046 408.00
81.7089 417.00
82.0131 421.00
82.3174 346.00
82.6217 221.00
82.9259 270.00
83.2302 249.00
83.5344 262.00
83.8387 313.00
84.143 304.00
84.4472 239.00
84.7515 303.00
85.0557 320.00
85.36 304.00
85.6643 297.00
85.9685 364.00
86.2728 492.00
86.577 388.00
86.8813 257.00
87.1856 226.00
87.4898 331.00
87.7941 322.00
88.0983 350.00
88.4026 302.00
88.7069 316.00
89.0111 363.00
89.3154 327.00
89.6196 300.00
89.9239 292.00
90.2282 258.00
90.5324 305.00
90.8367 301.00
91.1409 290.00
91.4452 274.00
91.7495 280.00
92.0537 265.00
92.358 243.00
92.6622 241.00
92.9665 303.00
93.2708 329.00
93.575 303.00
93.8793 331.00
94.1835 307.00
94.4878 244.00
94.7921 318.00
95.0963 311.00
95.4006 293.00
95.7048 213.00
96.0091 321.00
96.3134 295.00
96.6176 315.00
96.9219 288.00
97.2261 284.00
97.5304 260.00
97.8347 265.00
98.1389 230.00
98.4432 238.00
98.7474 389.00
99.0517 361.00
99.356 314.00
99.6602 298.00
99.9645 311.00
100.095 357.00

File: MINES_5.xy
9.903433 2808.00
10.2077 2650.00
10.512 2554.00
10.8162 2317.00
11.1205 2452.00
11.4247 2344.00
11.729 2205.00
12.0333 2188.00
12.3375 2164.00
12.6418 1972.00
12.946 1912.00
13.2503 1824.00
13.5546 1767.00
13.8588 1716.00
14.1631 1670.00
14.4673 1661.00
14.7716 1634.00
15.0759 1547.00
15.3801 1735.00
15.6844 1696.00
15.9886 1501.00
16.2929 1605.00
16.5972 2035.00
16.9014 1500.00
17.2057 1424.00
17.5099 1356.00
17.8142 1252.00
18.1185 1267.00
18.4227 1252.00
18.727 1283.00
19.0312 1308.00
19.3355 1648.00
19.6398 2492.00
19.944 1557.00
20.2483 1337.00
20.5525 1548.00
20.8568 2521.00
21.1611 1567.00
21.4653 1137.00
21.7696 1070.00
22.0738 1072.00
22.3781 1126.00
22.6824 1383.00
22.9866 2740.00
23.2909 2629.00
23.5951 1408.00
23.8994 3456.00
24.2037 1863.00
24.5079 3157.00
24.8122 3019.00
25.1164 7315.00
25.4207 6486.00
25.725 11082.00
26.0292 8036.00
26.3335 3719.00
26.6378 9567.00
26.942 4216.00
27.2463 1098.00
27.5505 1096.00
27.8548 1012.00
28.1591 1117.00
28.4633 1660.00
28.7676 1271.00
29.0718 933.00
29.3761 847.00
29.6804 821.00
29.9846 855.00
30.2889 850.00
30.5931 1075.00
30.8974 1341.00
31.2017 883.00
31.5059 1167.00
31.8102 1326.00
32.1144 1008.00
32.4187 931.00
32.723 747.00
33.0272 708.00
33.3315 692.00
33.6357 665.00
33.94 725.00
34.2443 869.00
34.5485 828.00
34.8528 672.00
35.157 677.00
35.4613 655.00
35.7656 641.00
36.0698 766.00
36.3741 1143.00
36.6783 1098.00
36.9826 760.00
37.2869 954.00
37.5911 1899.00
37.8954 2760.00
38.1996 1619.00
38.5039 1623.00
38.8082 824.00
39.1124 872.00
39.4167 1810.00
39.7209 1694.00
40.0252 1051.00
40.3295 1027.00
40.6337 627.00
40.938 535.00
41.2422 553.00
41.5465 587.00
41.8508 599.00
42.155 725.00
42.4593 821.00
42.7635 626.00
43.0678 908.00
43.3721 853.00
43.6763 668.00
43.9806 719.00
44.2849 896.00
44.5891 512.00
44.8934 603.00
45.1976 925.00
45.5019 1006.00
45.8062 1223.00
46.1104 1385.00
46.4147 1398.00
46.7189 610.00
47.0232 751.00
47.3275 812.00
47.6317 1043.00
47.936 1351.00
48.2402 1284.00
48.5445 1305.00
48.8488 1250.00
49.153 870.00
49.4573 895.00
49.7615 876.00
50.0658 1481.00
50.3701 981.00
50.6743 852.00
50.9786 628.00
51.2828 587.00
51.5871 482.00
51.8914 439.00
52.1956 519.00
52.4999 625.00
52.8041 798.00
53.1084 497.00
53.4127 476.00
53.7169 521.00
54.0212 474.00
54.3254 565.00
54.6297 683.00
54.934 659.00
55.2382 524.00
55.5425 605.00
55.8467 828.00
56.151 1068.00
56.4553 799.00
56.7595 607.00
57.0638 509.00
57.368 505.00
57.6723 464.00
57.9766 447.00
58.2808 421.00
58.5851 408.00
58.8893 400.00
59.1936 526.00
59.4979 691.00
59.8021 916.00
60.1064 764.00
60.4106 735.00
60.7149 1099.00
61.0192 873.00
61.3234 674.00
61.6277 586.00
61.932 459.00
62.2362 470.00
62.5405 621.00
62.8447 517.00
63.149 671.00
63.4533 698.00
63.7575 879.00
64.0618 874.00
64.366 634.00
64.6703 702.00
64.9745 862.00
65.2788 765.00
65.5831 870.00
65.8873 906.00
66.1916 662.00
66.4959 745.00
66.8001 1158.00
67.1044 1342.00
67.4086 1156.00
67.7129 1025.00
68.0172 1167.00
68.3214 1215.00
68.6257 833.00
68.9299 638.00
69.2342 651.00
69.5385 498.00
69.8427 457.00
70.147 448.00
70.4512 423.00
70.7555 441.00
71.0598 505.00
71.364 532.00
71.6683 552.00
71.9725 557.00
72.2768 514.00
72.5811 516.00
72.8853 414.00
73.1896 416.00
73.4938 444.00
73.7981 413.00
74.1024 348.00
74.4066 322.00
74.7109 421.00
75.0151 468.00
75.3194 582.00
75.6237 535.00
75.9279 484.00
76.2322 628.00
76.5364 586.00
76.8407 561.00
77.145 557.00
77.4492 663.00
77.7535 712.00
78.0577 725.00
78.362 624.00
78.6663 507.00
78.9705 539.00
79.2748 600.00
79.579 608.00
79.8833 544.00
80.1876 416.00
80.4918 441.00
80.7961 512.00
81.1003 610.00
81.4046 507.00
81.7089 411.00
82.0131 357.00
82.3174 311.00
82.6217 358.00
82.9259 365.00
83.2302 370.00
83.5344 361.00
83.8387 348.00
84.143 362.00
84.4472 332.00
84.7515 394.00
85.0557 442.00
85.36 453.00
85.6643 413.00
85.9685 394.00
86.2728 333.00
86.577 302.00
86.8813 256.00
87.1856 346.00
87.4898 363.00
87.7941 385.00
88.0983 426.00
88.4026 354.00
88.7069 326.00
89.0111 319.00
89.3154 279.00
89.6196 392.00
89.9239 314.00
90.2282 372.00
90.5324 369.00
90.8367 357.00
91.1409 305.00
91.4452 326.00
91.7495 317.00
92.0537 341.00
92.358 323.00
92.6622 317.00
92.9665 350.00
93.2708 364.00
93.575 385.00
93.8793 418.00
94.1835 360.00
94.4878 441.00
94.7921 438.00
95.0963 374.00
95.4006 318.00
95.7048 371.00
96.0091 373.00
96.3134 393.00
96.6176 391.00
96.9219 386.00
97.2261 378.00
97.5304 389.00
97.8347 410.00
98.1389 382.00
98.4432 369.00
98.7474 365.00
99.0517 299.00
99.356 278.00
99.6602 345.00
99.9645 356.00
100.095 322.00

File: MINES_6.xy
9.903433 2762.00
10.2077 2651.00
10.512 2433.00
10.8162 2401.00
11.1205 2292.00
11.4247 2239.00
11.729 2103.00
12.0333 1998.00
12.3375 2114.00
12.6418 1946.00
12.946 1854.00
13.2503 1680.00
13.5546 1672.00
13.8588 1702.00
14.1631 1575.00
14.4673 1546.00
14.7716 1504.00
15.0759 1496.00
15.3801 1443.00
15.6844 1563.00
15.9886 1359.00
16.2929 1424.00
16.5972 1737.00
16.9014 1342.00
17.2057 1394.00
17.5099 1270.00
17.8142 1229.00
18.1185 1190.00
18.4227 1208.00
18.727 1174.00
19.0312 1172.00
19.3355 1176.00
19.6398 1595.00
19.944 1323.00
20.2483 1192.00
20.5525 1386.00
20.8568 1675.00
21.1611 1296.00
21.4653 976.00
21.7696 1019.00
22.0738 1178.00
22.3781 1325.00
22.6824 1152.00
22.9866 1630.00
23.2909 1542.00
23.5951 1080.00
23.8994 2633.00
24.2037 1749.00
24.5079 2303.00
24.8122 1981.00
25.1164 4928.00
25.4207 2604.00
25.725 4747.00
26.0292 3860.00
26.3335 1897.00
26.6378 4609.00
26.942 2908.00
27.2463 865.00
27.5505 790.00
27.8548 773.00
28.1591 788.00
28.4633 1123.00
28.7676 1403.00
29.0718 998.00
29.3761 770.00
29.6804 708.00
29.9846 787.00
30.2889 871.00
30.5931 945.00
30.8974 1337.00
31.2017 1004.00
31.5059 2140.00
31.8102 2714.00
32.1144 925.00
32.4187 702.00
32.723 576.00
33.0272 576.00
33.3315 569.00
33.6357 533.00
33.94 575.00
34.2443 608.00
34.5485 674.00
34.8528 657.00
35.157 660.00
35.4613 852.00
35.7656 573.00
36.0698 542.00
36.3741 738.00
36.6783 1029.00
36.9826 616.00
37.2869 557.00
37.5911 950.00
37.8954 1576.00
38.1996 843.00
38.5039 1081.00
38.8082 576.00
39.1124 610.00
39.4167 1049.00
39.7209 1056.00
40.0252 587.00
40.3295 625.00
40.6337 459.00
40.938 446.00
41.2422 461.00
41.5465 573.00
41.8508 511.00
42.155 562.00
42.4593 556.00
42.7635 471.00
43.0678 638.00
43.3721 818.00
43.6763 528.00
43.9806 496.00
44.2849 663.00
44.5891 444.00
44.8934 398.00
45.1976 631.00
45.5019 536.00
45.8062 615.00
46.1104 690.00
46.4147 920.00
46.7189 434.00
47.0232 495.00
47.3275 753.00
47.6317 511.00
47.936 557.00
48.2402 653.00
48.5445 752.00
48.8488 753.00
49.153 536.00
49.4573 532.00
49.7615 501.00
50.0658 806.00
50.3701 719.00
50.6743 601.00
50.9786 589.00
51.2828 476.00
51.5871 369.00
51.8914 469.00
52.1956 444.00
52.4999 822.00
52.8041 1521.00
53.1084 589.00
53.4127 350.00
53.7169 401.00
54.0212 368.00
54.3254 472.00
54.6297 500.00
54.934 433.00
55.2382 386.00
55.5425 431.00
55.8467 463.00
56.151 641.00
56.4553 523.00
56.7595 472.00
57.0638 365.00
57.368 317.00
57.6723 434.00
57.9766 376.00
58.2808 357.00
58.5851 354.00
58.8893 326.00
59.1936 310.00
59.4979 468.00
59.8021 529.00
60.1064 415.00
60.4106 408.00
60.7149 642.00
61.0192 611.00
61.3234 529.00
61.6277 362.00
61.932 422.00
62.2362 467.00
62.5405 694.00
62.8447 757.00
63.149 476.00
63.4533 458.00
63.7575 572.00
64.0618 551.00
64.366 509.00
64.6703 416.00
64.9745 511.00
65.2788 382.00
65.5831 547.00
65.8873 598.00
66.1916 400.00
66.4959 393.00
66.8001 461.00
67.1044 552.00
67.4086 573.00
67.7129 618.00
68.0172 666.00
68.3214 750.00
68.6257 617.00
68.9299 485.00
69.2342 468.00
69.5385 355.00
69.8427 320.00
70.147 304.00
70.4512 360.00
70.7555 312.00
71.0598 313.00
71.364 303.00
71.6683 329.00
71.9725 355.00
72.2768 362.00
72.5811 387.00
72.8853 298.00
73.1896 294.00
73.4938 338.00
73.7981 318.00
74.1024 274.00
74.4066 242.00
74.7109 278.00
75.0151 320.00
75.3194 328.00
75.6237 348.00
75.9279 318.00
76.2322 430.00
76.5364 394.00
76.8407 356.00
77.145 342.00
77.4492 391.00
77.7535 502.00
78.0577 418.00
78.362 413.00
78.6663 366.00
78.9705 360.00
79.2748 443.00
79.579 369.00
79.8833 360.00
80.1876 283.00
80.4918 333.00
80.7961 326.00
81.1003 350.00
81.4046 356.00
81.7089 320.00
82.0131 304.00
82.3174 296.00
82.6217 283.00
82.9259 271.00
83.2302 279.00
83.5344 324.00
83.8387 277.00
84.143 283.00
84.4472 342.00
84.7515 328.00
85.0557 320.00
85.36 295.00
85.6643 306.00
85.9685 312.00
86.2728 373.00
86.577 274.00
86.8813 245.00
87.1856 236.00
87.4898 293.00
87.7941 267.00
88.0983 328.00
88.4026 309.00
88.7069 282.00
89.0111 258.00
89.3154 278.00
89.6196 285.00
89.9239 263.00
90.2282 264.00
90.5324 294.00
90.8367 298.00
91.1409 226.00
91.4452 204.00
91.7495 240.00
92.0537 246.00
92.358 271.00
92.6622 238.00
92.9665 257.00
93.2708 274.00
93.575 268.00
93.8793 326.00
94.1835 283.00
94.4878 284.00
94.7921 269.00
95.0963 262.00
95.4006 249.00
95.7048 259.00
96.0091 263.00
96.3134 277.00
96.6176 265.00
96.9219 280.00
97.2261 250.00
97.5304 282.00
97.8347 260.00
98.1389 235.00
98.4432 268.00
98.7474 301.00
99.0517 261.00
99.356 261.00
99.6602 265.00
99.9645 280.00
100.095 300.00

File: MINES_7.xy
9.903433 3028.00
10.2077 2879.00
10.512 2776.00
10.8162 2639.00
11.1205 2675.00
11.4247 2462.00
11.729 2373.00
12.0333 2290.00
12.3375 2280.00
12.6418 2116.00
12.946 2073.00
13.2503 2048.00
13.5546 1950.00
13.8588 1977.00
14.1631 1932.00
14.4673 1882.00
14.7716 1811.00
15.0759 1703.00
15.3801 1628.00
15.6844 1652.00
15.9886 1627.00
16.2929 1572.00
16.5972 1559.00
16.9014 1505.00
17.2057 1529.00
17.5099 1401.00
17.8142 1384.00
18.1185 1401.00
18.4227 1423.00
18.727 1860.00
19.0312 4432.00
19.3355 1382.00
19.6398 1333.00
19.944 1288.00
20.2483 1331.00
20.5525 1444.00
20.8568 3855.00
21.1611 3013.00
21.4653 2409.00
21.7696 2429.00
22.0738 9191.00
22.3781 15275.00
22.6824 1966.00
22.9866 1915.00
23.2909 1842.00
23.5951 2762.00
23.8994 1583.00
24.2037 1382.00
24.5079 1251.00
24.8122 1192.00
25.1164 1032.00
25.4207 1000.00
25.725 1107.00
26.0292 1228.00
26.3335 1202.00
26.6378 1413.00
26.942 3820.00
27.2463 1333.00
27.5505 1299.00
27.8548 1943.00
28.1591 1305.00
28.4633 1719.00
28.7676 2649.00
29.0718 1282.00
29.3761 2383.00
29.6804 1342.00
29.9846 1073.00
30.2889 1796.00
30.5931 1467.00
30.8974 914.00
31.2017 975.00
31.5059 1367.00
31.8102 3163.00
32.1144 1248.00
32.4187 1081.00
32.723 1451.00
33.0272 1159.00
33.3315 932.00
33.6357 818.00
33.94 742.00
34.2443 714.00
34.5485 695.00
34.8528 699.00
35.157 733.00
35.4613 699.00
35.7656 700.00
36.0698 927.00
36.3741 3186.00
36.6783 1681.00
36.9826 846.00
37.2869 738.00
37.5911 789.00
37.8954 911.00
38.1996 889.00
38.5039 705.00
38.8082 780.00
39.1124 868.00
39.4167 1018.00
39.7209 691.00
40.0252 608.00
40.3295 553.00
40.6337 610.00
40.938 573.00
41.2422 534.00
41.5465 542.00
41.8508 609.00
42.155 595.00
42.4593 589.00
42.7635 672.00
43.0678 997.00
43.3721 682.00
43.6763 673.00
43.9806 600.00
44.2849 549.00
44.5891 647.00
44.8934 663.00
45.1976 844.00
45.5019 504.00
45.8062 546.00
46.1104 670.00
46.4147 970.00
46.7189 683.00
47.0232 713.00
47.3275 1298.00
47.6317 668.00
47.936 736.00
48.2402 646.00
48.5445 571.00
48.8488 1067.00
49.153 781.00
49.4573 790.00
49.7615 539.00
50.0658 607.00
50.3701 567.00
50.6743 506.00
50.9786 522.00
51.2828 512.00
51.5871 818.00
51.8914 695.00
52.1956 616.00
52.4999 582.00
52.8041 527.00
53.1084 618.00
53.4127 489.00
53.7169 524.00
54.0212 607.00
54.3254 865.00
54.6297 922.00
54.934 648.00
55.2382 666.00
55.5425 577.00
55.8467 559.00
56.151 757.00
56.4553 549.00
56.7595 517.00
57.0638 629.00
57.368 1078.00
57.6723 693.00
57.9766 587.00
58.2808 475.00
58.5851 607.00
58.8893 629.00
59.1936 532.00
59.4979 421.00
59.8021 452.00
60.1064 646.00
60.4106 672.00
60.7149 831.00
61.0192 558.00
61.3234 481.00
61.6277 509.00
61.932 458.00
62.2362 690.00
62.5405 614.00
62.8447 487.00
63.149 433.00
63.4533 490.00
63.7575 602.00
64.0618 466.00
64.366 439.00
64.6703 465.00
64.9745 514.00
65.2788 773.00
65.5831 682.00
65.8873 740.00
66.1916 790.00
66.4959 766.00
66.8001 627.00
67.1044 752.00
67.4086 584.00
67.7129 538.00
68.0172 569.00
68.3214 577.00
68.6257 657.00
68.9299 750.00
69.2342 625.00
69.5385 588.00
69.8427 689.00
70.147 604.00
70.4512 605.00
70.7555 608.00
71.0598 584.00
71.364 466.00
71.6683 396.00
71.9725 378.00
72.2768 430.00
72.5811 477.00
72.8853 658.00
73.1896 601.00
73.4938 428.00
73.7981 508.00
74.1024 694.00
74.4066 561.00
74.7109 441.00
75.0151 471.00
75.3194 538.00
75.6237 592.00
75.9279 483.00
76.2322 470.00
76.5364 481.00
76.8407 384.00
77.145 455.00
77.4492 432.00
77.7535 537.00
78.0577 537.00
78.362 573.00
78.6663 444.00
78.9705 445.00
79.2748 473.00
79.579 596.00
79.8833 527.00
80.1876 429.00
80.4918 442.00
80.7961 514.00
81.1003 575.00
81.4046 586.00
81.7089 533.00
82.0131 504.00
82.3174 488.00
82.6217 434.00
82.9259 462.00
83.2302 429.00
83.5344 394.00
83.8387 377.00
84.143 408.00
84.4472 364.00
84.7515 383.00
85.0557 353.00
85.36 352.00
85.6643 353.00
85.9685 394.00
86.2728 397.00
86.577 395.00
86.8813 410.00
87.1856 396.00
87.4898 411.00
87.7941 359.00
88.0983 428.00
88.4026 385.00
88.7069 369.00
89.0111 415.00
89.3154 531.00
89.6196 565.00
89.9239 425.00
90.2282 374.00
90.5324 352.00
90.8367 328.00
91.1409 421.00
91.4452 376.00
91.7495 373.00
92.0537 350.00
92.358 331.00
92.6622 339.00
92.9665 361.00
93.2708 346.00
93.575 478.00
93.8793 394.00
94.1835 356.00
94.4878 367.00
94.7921 390.00
95.0963 356.00
95.4006 377.00
95.7048 380.00
96.0091 402.00
96.3134 405.00
96.6176 356.00
96.9219 332.00
97.2261 341.00
97.5304 315.00
97.8347 392.00
98.1389 396.00
98.4432 371.00
98.7474 336.00
99.0517 355.00
99.356 339.00
99.6602 305.00
99.9645 306.00
100.095 364.00

File: MINES_8.xy
9.903433 2729.00
10.2077 2518.00
10.512 2416.00
10.8162 2370.00
11.1205 2219.00
11.4247 2128.00
11.729 1996.00
12.0333 1953.00
12.3375 1811.00
12.6418 1781.00
12.946 1691.00
13.2503 1668.00
13.5546 1571.00
13.8588 1588.00
14.1631 1462.00
14.4673 1439.00
14.7716 1339.00
15.0759 1414.00
15.3801 1450.00
15.6844 1297.00
15.9886 1305.00
16.2929 1244.00
16.5972 1274.00
16.9014 1194.00
17.2057 1212.00
17.5099 1192.00
17.8142 1087.00
18.1185 1075.00
18.4227 1011.00
18.727 1100.00
19.0312 1080.00
19.3355 1430.00
19.6398 1265.00
19.944 955.00
20.2483 904.00
20.5525 863.00
20.8568 893.00
21.1611 848.00
21.4653 934.00
21.7696 887.00
22.0738 778.00
22.3781 838.00
22.6824 1667.00
22.9866 2533.00
23.2909 768.00
23.5951 806.00
23.8994 750.00
24.2037 731.00
24.5079 797.00
24.8122 759.00
25.1164 880.00
25.4207 2528.00
25.725 8238.00
26.0292 1332.00
26.3335 729.00
26.6378 719.00
26.942 673.00
27.2463 657.00
27.5505 655.00
27.8548 629.00
28.1591 908.00
28.4633 1059.00
28.7676 628.00
29.0718 558.00
29.3761 630.00
29.6804 597.00
29.9846 555.00
30.2889 533.00
30.5931 555.00
30.8974 511.00
31.2017 533.00
31.5059 518.00
31.8102 543.00
32.1144 480.00
32.4187 472.00
32.723 543.00
33.0272 533.00
33.3315 461.00
33.6357 463.00
33.94 527.00
34.2443 497.00
34.5485 473.00
34.8528 393.00
35.157 402.00
35.4613 385.00
35.7656 401.00
36.0698 381.00
36.3741 423.00
36.6783 415.00
36.9826 419.00
37.2869 424.00
37.5911 421.00
37.8954 403.00
38.1996 411.00
38.5039 371.00
38.8082 382.00
39.1124 472.00
39.4167 515.00
39.7209 466.00
40.0252 507.00
40.3295 352.00
40.6337 360.00
40.938 320.00
41.2422 372.00
41.5465 345.00
41.8508 352.00
42.155 317.00
42.4593 276.00
42.7635 406.00
43.0678 407.00
43.3721 375.00
43.6763 285.00
43.9806 318.00
44.2849 294.00
44.5891 285.00
44.8934 266.00
45.1976 304.00
45.5019 297.00
45.8062 300.00
46.1104 299.00
46.4147 307.00
46.7189 375.00
47.0232 540.00
47.3275 293.00
47.6317 304.00
47.936 401.00
48.2402 617.00
48.5445 761.00
48.8488 356.00
49.153 286.00
49.4573 288.00
49.7615 238.00
50.0658 232.00
50.3701 257.00
50.6743 225.00
50.9786 223.00
51.2828 260.00
51.5871 256.00
51.8914 247.00
52.1956 257.00
52.4999 267.00
52.8041 267.00
53.1084 231.00
53.4127 263.00
53.7169 229.00
54.0212 249.00
54.3254 262.00
54.6297 246.00
54.934 226.00
55.2382 243.00
55.5425 336.00
55.8467 394.00
56.151 333.00
56.4553 274.00
56.7595 190.00
57.0638 221.00
57.368 203.00
57.6723 209.00
57.9766 207.00
58.2808 188.00
58.5851 215.00
58.8893 215.00
59.1936 205.00
59.4979 204.00
59.8021 220.00
60.1064 305.00
60.4106 243.00
60.7149 216.00
61.0192 202.00
61.3234 180.00
61.6277 168.00
61.932 197.00
62.2362 215.00
62.5405 205.00
62.8447 241.00
63.149 212.00
63.4533 217.00
63.7575 220.00
64.0618 263.00
64.366 274.00
64.6703 196.00
64.9745 221.00
65.2788 322.00
65.5831 208.00
65.8873 219.00
66.1916 238.00
66.4959 263.00
66.8001 263.00
67.1044 193.00
67.4086 198.00
67.7129 250.00
68.0172 227.00
68.3214 231.00
68.6257 175.00
68.9299 177.00
69.2342 213.00
69.5385 218.00
69.8427 208.00
70.147 168.00
70.4512 192.00
70.7555 227.00
71.0598 208.00
71.364 274.00
71.6683 226.00
71.9725 195.00
72.2768 183.00
72.5811 189.00
72.8853 195.00
73.1896 200.00
73.4938 234.00
73.7981 205.00
74.1024 186.00
74.4066 208.00
74.7109 223.00
75.0151 202.00
75.3194 174.00
75.6237 202.00
75.9279 190.00
76.2322 199.00
76.5364 230.00
76.8407 281.00
77.145 273.00
77.4492 231.00
77.7535 220.00
78.0577 226.00
78.362 201.00
78.6663 235.00
78.9705 203.00
79.2748 257.00
79.579 221.00
79.8833 214.00
80.1876 215.00
80.4918 241.00
80.7961 225.00
81.1003 229.00
81.4046 234.00
81.7089 222.00
82.0131 235.00
82.3174 207.00
82.6217 215.00
82.9259 213.00
83.2302 225.00
83.5344 217.00
83.8387 215.00
84.143 198.00
84.4472 218.00
84.7515 243.00
85.0557 223.00
85.36 217.00
85.6643 219.00
85.9685 201.00
86.2728 204.00
86.577 203.00
86.8813 210.00
87.1856 182.00
87.4898 183.00
87.7941 186.00
88.0983 214.00
88.4026 177.00
88.7069 182.00
89.0111 173.00
89.3154 193.00
89.6196 173.00
89.9239 187.00
90.2282 183.00
90.5324 185.00
90.8367 170.00
91.1409 194.00
91.4452 192.00
91.7495 169.00
92.0537 167.00
92.358 162.00
92.6622 176.00
92.9665 211.00
93.2708 144.00
93.575 202.00
93.8793 177.00
94.1835 159.00
94.4878 191.00
94.7921 194.00
95.0963 182.00
95.4006 162.00
95.7048 176.00
96.0091 187.00
96.3134 177.00
96.6176 179.00
96.9219 180.00
97.2261 195.00
97.5304 182.00
97.8347 172.00
98.1389 217.00
98.4432 192.00
98.7474 193.00
99.0517 181.00
99.356 176.00
99.6602 157.00
99.9645 182.00
100.095 197.00