Folder: alab-pipeline/data/xrd_creation/results (part 46)

File: NSC_60.xy
9.903433 2602.00
10.2077 2543.00
10.512 2454.00
10.8162 2309.00
11.1205 2239.00
11.4247 2065.00
11.729 2045.00
12.0333 2004.00
12.3375 1899.00
12.6418 1816.00
12.946 1826.00
13.2503 1717.00
13.5546 1747.00
13.8588 2511.00
14.1631 1583.00
14.4673 1492.00
14.7716 1561.00
15.0759 1566.00
15.3801 1479.00
15.6844 1412.00
15.9886 1314.00
16.2929 1335.00
16.5972 1369.00
16.9014 1340.00
17.2057 1251.00
17.5099 1322.00
17.8142 1260.00
18.1185 1278.00
18.4227 1181.00
18.727 1247.00
19.0312 1316.00
19.3355 3664.00
19.6398 1237.00
19.944 2128.00
20.2483 2046.00
20.5525 1226.00
20.8568 1057.00
21.1611 1059.00
21.4653 1033.00
21.7696 967.00
22.0738 1017.00
22.3781 939.00
22.6824 883.00
22.9866 1170.00
23.2909 4128.00
23.5951 1051.00
23.8994 935.00
24.2037 939.00
24.5079 900.00
24.8122 900.00
25.1164 918.00
25.4207 839.00
25.725 851.00
26.0292 798.00
26.3335 772.00
26.6378 755.00
26.942 728.00
27.2463 732.00
27.5505 737.00
27.8548 984.00
28.1591 2167.00
28.4633 814.00
28.7676 734.00
29.0718 715.00
29.3761 725.00
29.6804 721.00
29.9846 763.00
30.2889 692.00
30.5931 717.00
30.8974 2048.00
31.2017 1892.00
31.5059 831.00
31.8102 630.00
32.1144 623.00
32.4187 600.00
32.723 614.00
33.0272 697.00
33.3315 625.00
33.6357 648.00
33.94 619.00
34.2443 572.00
34.5485 596.00
34.8528 1115.00
35.157 1156.00
35.4613 1044.00
35.7656 570.00
36.0698 495.00
36.3741 510.00
36.6783 483.00
36.9826 533.00
37.2869 498.00
37.5911 502.00
37.8954 532.00
38.1996 505.00
38.5039 431.00
38.8082 476.00
39.1124 473.00
39.4167 613.00
39.7209 417.00
40.0252 441.00
40.3295 434.00
40.6337 477.00
40.938 522.00
41.2422 578.00
41.5465 443.00
41.8508 461.00
42.155 449.00
42.4593 439.00
42.7635 678.00
43.0678 491.00
43.3721 481.00
43.6763 469.00
43.9806 410.00
44.2849 435.00
44.5891 678.00
44.8934 614.00
45.1976 443.00
45.5019 407.00
45.8062 680.00
46.1104 482.00
46.4147 549.00
46.7189 397.00
47.0232 402.00
47.3275 480.00
47.6317 738.00
47.936 750.00
48.2402 482.00
48.5445 420.00
48.8488 381.00
49.153 376.00
49.4573 385.00
49.7615 375.00
50.0658 359.00
50.3701 371.00
50.6743 390.00
50.9786 701.00
51.2828 581.00
51.5871 447.00
51.8914 380.00
52.1956 339.00
52.4999 358.00
52.8041 338.00
53.1084 332.00
53.4127 341.00
53.7169 341.00
54.0212 506.00
54.3254 412.00
54.6297 358.00
54.934 560.00
55.2382 755.00
55.5425 571.00
55.8467 328.00
56.151 338.00
56.4553 323.00
56.7595 367.00
57.0638 325.00
57.368 312.00
57.6723 402.00
57.9766 381.00
58.2808 379.00
58.5851 305.00
58.8893 322.00
59.1936 313.00
59.4979 432.00
59.8021 461.00
60.1064 342.00
60.4106 325.00
60.7149 439.00
61.0192 459.00
61.3234 346.00
61.6277 331.00
61.932 404.00
62.2362 316.00
62.5405 286.00
62.8447 299.00
63.149 335.00
63.4533 445.00
63.7575 380.00
64.0618 315.00
64.366 283.00
64.6703 330.00
64.9745 314.00
65.2788 287.00
65.5831 304.00
65.8873 387.00
66.1916 354.00
66.4959 264.00
66.8001 290.00
67.1044 312.00
67.4086 330.00
67.7129 316.00
68.0172 259.00
68.3214 249.00
68.6257 312.00
68.9299 281.00
69.2342 272.00
69.5385 289.00
69.8427 276.00
70.147 250.00
70.4512 270.00
70.7555 318.00
71.0598 337.00
71.364 287.00
71.6683 274.00
71.9725 236.00
72.2768 289.00
72.5811 243.00
72.8853 266.00
73.1896 260.00
73.4938 298.00
73.7981 332.00
74.1024 296.00
74.4066 312.00
74.7109 374.00
75.0151 361.00
75.3194 314.00
75.6237 277.00
75.9279 265.00
76.2322 284.00
76.5364 245.00
76.8407 269.00
77.145 283.00
77.4492 282.00
77.7535 270.00
78.0577 258.00
78.362 310.00
78.6663 345.00
78.9705 335.00
79.2748 268.00
79.579 294.00
79.8833 272.00
80.1876 285.00
80.4918 301.00
80.7961 299.00
81.1003 319.00
81.4046 265.00
81.7089 266.00
82.0131 284.00
82.3174 273.00
82.6217 277.00
82.9259 318.00
83.2302 338.00
83.5344 314.00
83.8387 285.00
84.143 277.00
84.4472 303.00
84.7515 293.00
85.0557 310.00
85.36 299.00
85.6643 279.00
85.9685 299.00
86.2728 269.00
86.577 271.00
86.8813 223.00
87.1856 283.00
87.4898 288.00
87.7941 271.00
88.0983 274.00
88.4026 250.00
88.7069 268.00
89.0111 319.00
89.3154 286.00
89.6196 258.00
89.9239 219.00
90.2282 221.00
90.5324 274.00
90.8367 269.00
91.1409 261.00
91.4452 272.00
91.7495 267.00
92.0537 258.00
92.358 242.00
92.6622 234.00
92.9665 221.00
93.2708 228.00
93.575 213.00
93.8793 264.00
94.1835 244.00
94.4878 226.00
94.7921 287.00
95.0963 268.00
95.4006 263.00
95.7048 284.00
96.0091 250.00
96.3134 257.00
96.6176 236.00
96.9219 237.00
97.2261 247.00
97.5304 229.00
97.8347 225.00
98.1389 249.00
98.4432 200.00
98.7474 259.00
99.0517 231.00
99.356 275.00
99.6602 256.00
99.9645 262.00
100.095 269.00

File: NSC_61.xy
9.903433 2812.00
10.2077 2606.00
10.512 2748.00
10.8162 2948.00
11.1205 2399.00
11.4247 2321.00
11.729 2273.00
12.0333 2253.00
12.3375 2082.00
12.6418 2109.00
12.946 2132.00
13.2503 3012.00
13.5546 1980.00
13.8588 1933.00
14.1631 2219.00
14.4673 1919.00
14.7716 1823.00
15.0759 1887.00
15.3801 1836.00
15.6844 2314.00
15.9886 2835.00
16.2929 1874.00
16.5972 1641.00
16.9014 1571.00
17.2057 1720.00
17.5099 1647.00
17.8142 1501.00
18.1185 1579.00
18.4227 1586.00
18.727 1495.00
19.0312 1511.00
19.3355 1615.00
19.6398 1781.00
19.944 2859.00
20.2483 2867.00
20.5525 1629.00
20.8568 1611.00
21.1611 1419.00
21.4653 1425.00
21.7696 1502.00
22.0738 1832.00
22.3781 1500.00
22.6824 2972.00
22.9866 2330.00
23.2909 2907.00
23.5951 2422.00
23.8994 1377.00
24.2037 1436.00
24.5079 1333.00
24.8122 1376.00
25.1164 1439.00
25.4207 1313.00
25.725 1176.00
26.0292 1158.00
26.3335 1129.00
26.6378 1166.00
26.942 1200.00
27.2463 1226.00
27.5505 1206.00
27.8548 1681.00
28.1591 1231.00
28.4633 2349.00
28.7676 1794.00
29.0718 1133.00
29.3761 1170.00
29.6804 1101.00
29.9846 1127.00
30.2889 1959.00
30.5931 1795.00
30.8974 4502.00
31.2017 1553.00
31.5059 2326.00
31.8102 1680.00
32.1144 3028.00
32.4187 1404.00
32.723 2736.00
33.0272 1311.00
33.3315 1198.00
33.6357 1062.00
33.94 1554.00
34.2443 926.00
34.5485 1245.00
34.8528 2047.00
35.157 3270.00
35.4613 1301.00
35.7656 2304.00
36.0698 1399.00
36.3741 1056.00
36.6783 880.00
36.9826 1093.00
37.2869 842.00
37.5911 796.00
37.8954 801.00
38.1996 898.00
38.5039 1006.00
38.8082 983.00
39.1124 780.00
39.4167 816.00
39.7209 1020.00
40.0252 899.00
40.3295 780.00
40.6337 844.00
40.938 1048.00
41.2422 728.00
41.5465 817.00
41.8508 836.00
42.155 1085.00
42.4593 1117.00
42.7635 1270.00
43.0678 1557.00
43.3721 917.00
43.6763 1009.00
43.9806 804.00
44.2849 921.00
44.5891 794.00
44.8934 852.00
45.1976 900.00
45.5019 935.00
45.8062 1029.00
46.1104 1233.00
46.4147 983.00
46.7189 920.00
47.0232 931.00
47.3275 1041.00
47.6317 1162.00
47.936 1522.00
48.2402 752.00
48.5445 657.00
48.8488 711.00
49.153 860.00
49.4573 1136.00
49.7615 697.00
50.0658 709.00
50.3701 797.00
50.6743 771.00
50.9786 748.00
51.2828 1629.00
51.5871 1136.00
51.8914 1124.00
52.1956 787.00
52.4999 762.00
52.8041 732.00
53.1084 748.00
53.4127 728.00
53.7169 725.00
54.0212 732.00
54.3254 962.00
54.6297 1270.00
54.934 828.00
55.2382 725.00
55.5425 664.00
55.8467 748.00
56.151 897.00
56.4553 778.00
56.7595 868.00
57.0638 1071.00
57.368 928.00
57.6723 722.00
57.9766 770.00
58.2808 796.00
58.5851 724.00
58.8893 727.00
59.1936 781.00
59.4979 835.00
59.8021 981.00
60.1064 945.00
60.4106 1085.00
60.7149 923.00
61.0192 1390.00
61.3234 793.00
61.6277 916.00
61.932 831.00
62.2362 839.00
62.5405 1266.00
62.8447 972.00
63.149 753.00
63.4533 786.00
63.7575 667.00
64.0618 801.00
64.366 639.00
64.6703 664.00
64.9745 659.00
65.2788 687.00
65.5831 688.00
65.8873 630.00
66.1916 724.00
66.4959 762.00
66.8001 716.00
67.1044 653.00
67.4086 590.00
67.7129 764.00
68.0172 710.00
68.3214 752.00
68.6257 577.00
68.9299 563.00
69.2342 561.00
69.5385 579.00
69.8427 667.00
70.147 631.00
70.4512 592.00
70.7555 507.00
71.0598 529.00
71.364 535.00
71.6683 527.00
71.9725 557.00
72.2768 505.00
72.5811 526.00
72.8853 589.00
73.1896 518.00
73.4938 611.00
73.7981 614.00
74.1024 605.00
74.4066 560.00
74.7109 519.00
75.0151 605.00
75.3194 639.00
75.6237 586.00
75.9279 552.00
76.2322 541.00
76.5364 536.00
76.8407 525.00
77.145 646.00
77.4492 602.00
77.7535 532.00
78.0577 574.00
78.362 613.00
78.6663 560.00
78.9705 566.00
79.2748 568.00
79.579 511.00
79.8833 473.00
80.1876 510.00
80.4918 453.00
80.7961 496.00
81.1003 548.00
81.4046 591.00
81.7089 573.00
82.0131 609.00
82.3174 627.00
82.6217 560.00
82.9259 531.00
83.2302 602.00
83.5344 604.00
83.8387 563.00
84.143 556.00
84.4472 510.00
84.7515 517.00
85.0557 441.00
85.36 461.00
85.6643 455.00
85.9685 505.00
86.2728 536.00
86.577 481.00
86.8813 468.00
87.1856 553.00
87.4898 527.00
87.7941 507.00
88.0983 494.00
88.4026 558.00
88.7069 584.00
89.0111 561.00
89.3154 494.00
89.6196 536.00
89.9239 528.00
90.2282 516.00
90.5324 486.00
90.8367 551.00
91.1409 524.00
91.4452 509.00
91.7495 527.00
92.0537 547.00
92.358 530.00
92.6622 577.00
92.9665 469.00
93.2708 522.00
93.575 460.00
93.8793 441.00
94.1835 529.00
94.4878 530.00
94.7921 509.00
95.0963 514.00
95.4006 544.00
95.7048 618.00
96.0091 507.00
96.3134 509.00
96.6176 572.00
96.9219 549.00
97.2261 569.00
97.5304 509.00
97.8347 557.00
98.1389 535.00
98.4432 558.00
98.7474 513.00
99.0517 518.00
99.356 529.00
99.6602 456.00
99.9645 432.00
100.095 460.00

File: NSC_62.xy
9.903433 2688.00
10.2077 2737.00
10.512 2599.00
10.8162 2537.00
11.1205 2376.00
11.4247 2315.00
11.729 2163.00
12.0333 2131.00
12.3375 2128.00
12.6418 2046.00
12.946 1984.00
13.2503 1911.00
13.5546 1973.00
13.8588 2209.00
14.1631 2531.00
14.4673 1836.00
14.7716 1790.00
15.0759 1801.00
15.3801 1781.00
15.6844 2155.00
15.9886 1976.00
16.2929 1643.00
16.5972 1623.00
16.9014 1621.00
17.2057 1612.00
17.5099 1549.00
17.8142 1575.00
18.1185 1424.00
18.4227 1523.00
18.727 1485.00
19.0312 1531.00
19.3355 1691.00
19.6398 2593.00
19.944 2994.00
20.2483 1869.00
20.5525 1564.00
20.8568 1460.00
21.1611 1362.00
21.4653 1486.00
21.7696 1584.00
22.0738 1424.00
22.3781 1544.00
22.6824 1831.00
22.9866 1782.00
23.2909 2010.00
23.5951 1387.00
23.8994 1282.00
24.2037 1321.00
24.5079 1485.00
24.8122 1347.00
25.1164 1182.00
25.4207 1218.00
25.725 1226.00
26.0292 1108.00
26.3335 1081.00
26.6378 1173.00
26.942 1224.00
27.2463 1117.00
27.5505 1147.00
27.8548 1296.00
28.1591 2003.00
28.4633 1465.00
28.7676 1249.00
29.0718 1101.00
29.3761 1042.00
29.6804 1093.00
29.9846 1294.00
30.2889 1469.00
30.5931 2421.00
30.8974 2916.00
31.2017 2236.00
31.5059 4055.00
31.8102 1550.00
32.1144 1662.00
32.4187 1441.00
32.723 1294.00
33.0272 1294.00
33.3315 1072.00
33.6357 1037.00
33.94 1054.00
34.2443 1030.00
34.5485 1546.00
34.8528 3052.00
35.157 1737.00
35.4613 1317.00
35.7656 1439.00
36.0698 908.00
36.3741 846.00
36.6783 963.00
36.9826 809.00
37.2869 836.00
37.5911 723.00
37.8954 847.00
38.1996 905.00
38.5039 760.00
38.8082 796.00
39.1124 733.00
39.4167 762.00
39.7209 756.00
40.0252 821.00
40.3295 782.00
40.6337 921.00
40.938 732.00
41.2422 684.00
41.5465 690.00
41.8508 860.00
42.155 1108.00
42.4593 1216.00
42.7635 1180.00
43.0678 968.00
43.3721 762.00
43.6763 689.00
43.9806 662.00
44.2849 657.00
44.5891 720.00
44.8934 887.00
45.1976 985.00
45.5019 1230.00
45.8062 1001.00
46.1104 806.00
46.4147 691.00
46.7189 775.00
47.0232 931.00
47.3275 1177.00
47.6317 1962.00
47.936 914.00
48.2402 624.00
48.5445 611.00
48.8488 727.00
49.153 879.00
49.4573 761.00
49.7615 633.00
50.0658 807.00
50.3701 658.00
50.6743 613.00
50.9786 1127.00
51.2828 1690.00
51.5871 1341.00
51.8914 823.00
52.1956 617.00
52.4999 638.00
52.8041 613.00
53.1084 623.00
53.4127 650.00
53.7169 646.00
54.0212 858.00
54.3254 1392.00
54.6297 1251.00
54.934 596.00
55.2382 590.00
55.5425 596.00
55.8467 686.00
56.151 771.00
56.4553 642.00
56.7595 750.00
57.0638 822.00
57.368 680.00
57.6723 591.00
57.9766 606.00
58.2808 544.00
58.5851 554.00
58.8893 661.00
59.1936 785.00
59.4979 809.00
59.8021 907.00
60.1064 1114.00
60.4106 1270.00
60.7149 1127.00
61.0192 1015.00
61.3234 745.00
61.6277 811.00
61.932 669.00
62.2362 877.00
62.5405 1013.00
62.8447 727.00
63.149 738.00
63.4533 615.00
63.7575 794.00
64.0618 699.00
64.366 508.00
64.6703 586.00
64.9745 550.00
65.2788 595.00
65.5831 508.00
65.8873 518.00
66.1916 738.00
66.4959 600.00
66.8001 601.00
67.1044 593.00
67.4086 676.00
67.7129 702.00
68.0172 601.00
68.3214 619.00
68.6257 460.00
68.9299 514.00
69.2342 457.00
69.5385 568.00
69.8427 691.00
70.147 557.00
70.4512 482.00
70.7555 492.00
71.0598 474.00
71.364 475.00
71.6683 481.00
71.9725 446.00
72.2768 430.00
72.5811 422.00
72.8853 467.00
73.1896 425.00
73.4938 621.00
73.7981 569.00
74.1024 539.00
74.4066 514.00
74.7109 477.00
75.0151 525.00
75.3194 596.00
75.6237 526.00
75.9279 485.00
76.2322 480.00
76.5364 526.00
76.8407 528.00
77.145 627.00
77.4492 462.00
77.7535 486.00
78.0577 503.00
78.362 487.00
78.6663 495.00
78.9705 406.00
79.2748 503.00
79.579 435.00
79.8833 418.00
80.1876 418.00
80.4918 444.00
80.7961 500.00
81.1003 504.00
81.4046 511.00
81.7089 504.00
82.0131 687.00
82.3174 604.00
82.6217 492.00
82.9259 442.00
83.2302 535.00
83.5344 522.00
83.8387 463.00
84.143 459.00
84.4472 368.00
84.7515 428.00
85.0557 391.00
85.36 420.00
85.6643 425.00
85.9685 477.00
86.2728 455.00
86.577 399.00
86.8813 451.00
87.1856 493.00
87.4898 478.00
87.7941 428.00
88.0983 476.00
88.4026 524.00
88.7069 505.00
89.0111 478.00
89.3154 469.00
89.6196 451.00
89.9239 457.00
90.2282 426.00
90.5324 439.00
90.8367 441.00
91.1409 483.00
91.4452 423.00
91.7495 479.00
92.0537 447.00
92.358 471.00
92.6622 470.00
92.9665 443.00
93.2708 432.00
93.575 466.00
93.8793 453.00
94.1835 474.00
94.4878 432.00
94.7921 447.00
95.0963 489.00
95.4006 569.00
95.7048 513.00
96.0091 464.00
96.3134 405.00
96.6176 460.00
96.9219 436.00
97.2261 488.00
97.5304 503.00
97.8347 523.00
98.1389 488.00
98.4432 483.00
98.7474 396.00
99.0517 434.00
99.356 401.00
99.6602 461.00
99.9645 397.00
100.095 406.00

File: NSC_63.xy
9.903433 2796.00
10.2077 2693.00
10.512 2582.00
10.8162 2542.00
11.1205 2331.00
11.4247 2268.00
11.729 2168.00
12.0333 2239.00
12.3375 2080.00
12.6418 2105.00
12.946 2041.00
13.2503 1925.00
13.5546 1884.00
13.8588 2400.00
14.1631 2172.00
14.4673 1863.00
14.7716 1846.00
15.0759 1782.00
15.3801 1976.00
15.6844 2470.00
15.9886 1774.00
16.2929 1685.00
16.5972 1655.00
16.9014 1696.00
17.2057 1570.00
17.5099 1527.00
17.8142 1473.00
18.1185 1465.00
18.4227 1504.00
18.727 1402.00
19.0312 1479.00
19.3355 1715.00
19.6398 2803.00
19.944 2436.00
20.2483 1652.00
20.5525 1564.00
20.8568 1385.00
21.1611 1317.00
21.4653 1526.00
21.7696 1547.00
22.0738 1275.00
22.3781 1302.00
22.6824 1338.00
22.9866 1381.00
23.2909 1631.00
23.5951 1135.00
23.8994 1183.00
24.2037 1208.00
24.5079 1350.00
24.8122 1205.00
25.1164 1157.00
25.4207 1196.00
25.725 1108.00
26.0292 1008.00
26.3335 1033.00
26.6378 1138.00
26.942 1158.00
27.2463 1031.00
27.5505 977.00
27.8548 1316.00
28.1591 1827.00
28.4633 1324.00
28.7676 1088.00
29.0718 1004.00
29.3761 1014.00
29.6804 1007.00
29.9846 1033.00
30.2889 1397.00
30.5931 2697.00
30.8974 1638.00
31.2017 2638.00
31.5059 2522.00
31.8102 1957.00
32.1144 1578.00
32.4187 1650.00
32.723 1139.00
33.0272 950.00
33.3315 948.00
33.6357 1078.00
33.94 896.00
34.2443 1023.00
34.5485 1849.00
34.8528 2853.00
35.157 1157.00
35.4613 1208.00
35.7656 895.00
36.0698 743.00
36.3741 772.00
36.6783 865.00
36.9826 730.00
37.2869 716.00
37.5911 710.00
37.8954 786.00
38.1996 780.00
38.5039 750.00
38.8082 692.00
39.1124 590.00
39.4167 659.00
39.7209 715.00
40.0252 683.00
40.3295 753.00
40.6337 861.00
40.938 662.00
41.2422 580.00
41.5465 640.00
41.8508 721.00
42.155 1026.00
42.4593 1205.00
42.7635 1034.00
43.0678 827.00
43.3721 730.00
43.6763 634.00
43.9806 662.00
44.2849 623.00
44.5891 745.00
44.8934 852.00
45.1976 1057.00
45.5019 955.00
45.8062 844.00
46.1104 665.00
46.4147 695.00
46.7189 673.00
47.0232 787.00
47.3275 1092.00
47.6317 1308.00
47.936 587.00
48.2402 522.00
48.5445 606.00
48.8488 695.00
49.153 845.00
49.4573 606.00
49.7615 617.00
50.0658 649.00
50.3701 570.00
50.6743 680.00
50.9786 1247.00
51.2828 1185.00
51.5871 1130.00
51.8914 627.00
52.1956 574.00
52.4999 602.00
52.8041 569.00
53.1084 613.00
53.4127 545.00
53.7169 634.00
54.0212 840.00
54.3254 1312.00
54.6297 684.00
54.934 513.00
55.2382 495.00
55.5425 549.00
55.8467 720.00
56.151 643.00
56.4553 596.00
56.7595 787.00
57.0638 637.00
57.368 485.00
57.6723 501.00
57.9766 502.00
58.2808 478.00
58.5851 470.00
58.8893 560.00
59.1936 695.00
59.4979 812.00
59.8021 913.00
60.1064 1122.00
60.4106 992.00
60.7149 1047.00
61.0192 751.00
61.3234 793.00
61.6277 674.00
61.932 650.00
62.2362 899.00
62.5405 683.00
62.8447 593.00
63.149 630.00
63.4533 552.00
63.7575 663.00
64.0618 525.00
64.366 507.00
64.6703 536.00
64.9745 476.00
65.2788 537.00
65.5831 460.00
65.8873 553.00
66.1916 649.00
66.4959 536.00
66.8001 526.00
67.1044 540.00
67.4086 646.00
67.7129 562.00
68.0172 540.00
68.3214 478.00
68.6257 453.00
68.9299 418.00
69.2342 442.00
69.5385 521.00
69.8427 555.00
70.147 446.00
70.4512 465.00
70.7555 428.00
71.0598 463.00
71.364 455.00
71.6683 457.00
71.9725 418.00
72.2768 431.00
72.5811 388.00
72.8853 418.00
73.1896 450.00
73.4938 524.00
73.7981 481.00
74.1024 438.00
74.4066 458.00
74.7109 401.00
75.0151 451.00
75.3194 432.00
75.6237 427.00
75.9279 440.00
76.2322 415.00
76.5364 440.00
76.8407 561.00
77.145 504.00
77.4492 425.00
77.7535 406.00
78.0577 461.00
78.362 451.00
78.6663 451.00
78.9705 379.00
79.2748 391.00
79.579 374.00
79.8833 384.00
80.1876 418.00
80.4918 407.00
80.7961 454.00
81.1003 469.00
81.4046 432.00
81.7089 542.00
82.0131 575.00
82.3174 503.00
82.6217 463.00
82.9259 419.00
83.2302 484.00
83.5344 473.00
83.8387 460.00
84.143 395.00
84.4472 375.00
84.7515 318.00
85.0557 329.00
85.36 358.00
85.6643 389.00
85.9685 420.00
86.2728 426.00
86.577 408.00
86.8813 418.00
87.1856 454.00
87.4898 396.00
87.7941 383.00
88.0983 380.00
88.4026 475.00
88.7069 475.00
89.0111 437.00
89.3154 405.00
89.6196 439.00
89.9239 397.00
90.2282 395.00
90.5324 393.00
90.8367 418.00
91.1409 395.00
91.4452 440.00
91.7495 429.00
92.0537 438.00
92.358 481.00
92.6622 452.00
92.9665 380.00
93.2708 407.00
93.575 392.00
93.8793 414.00
94.1835 403.00
94.4878 388.00
94.7921 418.00
95.0963 506.00
95.4006 501.00
95.7048 442.00
96.0091 439.00
96.3134 437.00
96.6176 449.00
96.9219 381.00
97.2261 404.00
97.5304 446.00
97.8347 441.00
98.1389 429.00
98.4432 400.00
98.7474 449.00
99.0517 436.00
99.356 378.00
99.6602 387.00
99.9645 369.00
100.095 405.00

File: NSC_64.xy
9.903433 2875.00
10.2077 2707.00
10.512 2586.00
10.8162 2386.00
11.1205 2358.00
11.4247 2256.00
11.729 2150.00
12.0333 2094.00
12.3375 2016.00
12.6418 2034.00
12.946 1912.00
13.2503 1846.00
13.5546 1854.00
13.8588 2486.00
14.1631 1804.00
14.4673 1713.00
14.7716 1710.00
15.0759 1783.00
15.3801 1994.00
15.6844 2242.00
15.9886 1522.00
16.2929 1501.00
16.5972 1518.00
16.9014 1722.00
17.2057 1493.00
17.5099 1434.00
17.8142 1400.00
18.1185 1371.00
18.4227 1325.00
18.727 1455.00
19.0312 1489.00
19.3355 1858.00
19.6398 3359.00
19.944 2101.00
20.2483 1640.00
20.5525 1315.00
20.8568 1181.00
21.1611 1210.00
21.4653 1475.00
21.7696 1405.00
22.0738 1197.00
22.3781 1219.00
22.6824 1146.00
22.9866 1466.00
23.2909 1467.00
23.5951 1076.00
23.8994 1066.00
24.2037 1151.00
24.5079 1258.00
24.8122 1106.00
25.1164 1114.00
25.4207 1199.00
25.725 1008.00
26.0292 971.00
26.3335 972.00
26.6378 1300.00
26.942 1141.00
27.2463 930.00
27.5505 1030.00
27.8548 1606.00
28.1591 1512.00
28.4633 1278.00
28.7676 927.00
29.0718 897.00
29.3761 866.00
29.6804 985.00
29.9846 1024.00
30.2889 1483.00
30.5931 2832.00
30.8974 1413.00
31.2017 3799.00
31.5059 2020.00
31.8102 1787.00
32.1144 1470.00
32.4187 1379.00
32.723 1104.00
33.0272 980.00
33.3315 881.00
33.6357 1061.00
33.94 885.00
34.2443 1008.00
34.5485 2796.00
34.8528 2335.00
35.157 926.00
35.4613 1281.00
35.7656 738.00
36.0698 706.00
36.3741 727.00
36.6783 665.00
36.9826 643.00
37.2869 609.00
37.5911 665.00
37.8954 744.00
38.1996 722.00
38.5039 666.00
38.8082 542.00
39.1124 629.00
39.4167 632.00
39.7209 716.00
40.0252 604.00
40.3295 743.00
40.6337 750.00
40.938 535.00
41.2422 544.00
41.5465 611.00
41.8508 785.00
42.155 1151.00
42.4593 1038.00
42.7635 954.00
43.0678 640.00
43.3721 618.00
43.6763 605.00
43.9806 558.00
44.2849 541.00
44.5891 654.00
44.8934 794.00
45.1976 1113.00
45.5019 875.00
45.8062 712.00
46.1104 548.00
46.4147 637.00
46.7189 630.00
47.0232 839.00
47.3275 1455.00
47.6317 1045.00
47.936 566.00
48.2402 491.00
48.5445 549.00
48.8488 678.00
49.153 856.00
49.4573 523.00
49.7615 605.00
50.0658 601.00
50.3701 524.00
50.6743 693.00
50.9786 1367.00
51.2828 1093.00
51.5871 1126.00
51.8914 574.00
52.1956 554.00
52.4999 552.00
52.8041 562.00
53.1084 544.00
53.4127 548.00
53.7169 573.00
54.0212 964.00
54.3254 1238.00
54.6297 558.00
54.934 455.00
55.2382 468.00
55.5425 536.00
55.8467 628.00
56.151 465.00
56.4553 592.00
56.7595 709.00
57.0638 485.00
57.368 420.00
57.6723 436.00
57.9766 400.00
58.2808 438.00
58.5851 441.00
58.8893 518.00
59.1936 659.00
59.4979 682.00
59.8021 963.00
60.1064 1243.00
60.4106 887.00
60.7149 981.00
61.0192 580.00
61.3234 696.00
61.6277 647.00
61.932 665.00
62.2362 884.00
62.5405 616.00
62.8447 501.00
63.149 526.00
63.4533 541.00
63.7575 634.00
64.0618 454.00
64.366 486.00
64.6703 448.00
64.9745 442.00
65.2788 433.00
65.5831 428.00
65.8873 580.00
66.1916 622.00
66.4959 440.00
66.8001 501.00
67.1044 568.00
67.4086 704.00
67.7129 534.00
68.0172 490.00
68.3214 427.00
68.6257 437.00
68.9299 384.00
69.2342 404.00
69.5385 564.00
69.8427 452.00
70.147 359.00
70.4512 346.00
70.7555 375.00
71.0598 387.00
71.364 407.00
71.6683 432.00
71.9725 384.00
72.2768 417.00
72.5811 386.00
72.8853 380.00
73.1896 484.00
73.4938 516.00
73.7981 424.00
74.1024 411.00
74.4066 403.00
74.7109 399.00
75.0151 411.00
75.3194 394.00
75.6237 420.00
75.9279 373.00
76.2322 357.00
76.5364 430.00
76.8407 509.00
77.145 464.00
77.4492 364.00
77.7535 404.00
78.0577 451.00
78.362 379.00
78.6663 350.00
78.9705 376.00
79.2748 372.00
79.579 356.00
79.8833 321.00
80.1876 351.00
80.4918 361.00
80.7961 381.00
81.1003 388.00
81.4046 435.00
81.7089 555.00
82.0131 512.00
82.3174 424.00
82.6217 375.00
82.9259 418.00
83.2302 449.00
83.5344 412.00
83.8387 384.00
84.143 318.00
84.4472 333.00
84.7515 324.00
85.0557 330.00
85.36 298.00
85.6643 369.00
85.9685 392.00
86.2728 335.00
86.577 331.00
86.8813 385.00
87.1856 382.00
87.4898 383.00
87.7941 326.00
88.0983 427.00
88.4026 478.00
88.7069 422.00
89.0111 382.00
89.3154 366.00
89.6196 358.00
89.9239 307.00
90.2282 376.00
90.5324 367.00
90.8367 363.00
91.1409 386.00
91.4452 413.00
91.7495 370.00
92.0537 414.00
92.358 402.00
92.6622 363.00
92.9665 320.00
93.2708 351.00
93.575 301.00
93.8793 374.00
94.1835 362.00
94.4878 353.00
94.7921 415.00
95.0963 458.00
95.4006 492.00
95.7048 421.00
96.0091 355.00
96.3134 376.00
96.6176 393.00
96.9219 336.00
97.2261 361.00
97.5304 385.00
97.8347 383.00
98.1389 349.00
98.4432 357.00
98.7474 364.00
99.0517 355.00
99.356 305.00
99.6602 362.00
99.9645 337.00
100.095 328.00