Folder: alab-pipeline/data/xrd_creation/results (part 9)

File: Na_36.xy
9.903433 2656.00
10.2077 2525.00
10.512 2388.00
10.8162 2265.00
11.1205 2210.00
11.4247 2076.00
11.729 2062.00
12.0333 2027.00
12.3375 1883.00
12.6418 1855.00
12.946 1735.00
13.2503 1642.00
13.5546 1676.00
13.8588 1622.00
14.1631 1614.00
14.4673 1528.00
14.7716 1505.00
15.0759 1393.00
15.3801 1351.00
15.6844 1402.00
15.9886 1334.00
16.2929 1351.00
16.5972 1255.00
16.9014 1302.00
17.2057 1264.00
17.5099 1192.00
17.8142 1204.00
18.1185 1192.00
18.4227 1109.00
18.727 1133.00
19.0312 1153.00
19.3355 1061.00
19.6398 1080.00
19.944 973.00
20.2483 1091.00
20.5525 984.00
20.8568 867.00
21.1611 936.00
21.4653 908.00
21.7696 921.00
22.0738 874.00
22.3781 883.00
22.6824 840.00
22.9866 846.00
23.2909 798.00
23.5951 735.00
23.8994 787.00
24.2037 832.00
24.5079 798.00
24.8122 781.00
25.1164 738.00
25.4207 703.00
25.725 795.00
26.0292 772.00
26.3335 647.00
26.6378 679.00
26.942 679.00
27.2463 742.00
27.5505 676.00
27.8548 683.00
28.1591 618.00
28.4633 688.00
28.7676 838.00
29.0718 2126.00
29.3761 690.00
29.6804 664.00
29.9846 680.00
30.2889 612.00
30.5931 570.00
30.8974 536.00
31.2017 618.00
31.5059 1202.00
31.8102 613.00
32.1144 555.00
32.4187 535.00
32.723 578.00
33.0272 511.00
33.3315 566.00
33.6357 1082.00
33.94 550.00
34.2443 490.00
34.5485 450.00
34.8528 473.00
35.157 503.00
35.4613 511.00
35.7656 562.00
36.0698 463.00
36.3741 459.00
36.6783 447.00
36.9826 417.00
37.2869 453.00
37.5911 477.00
37.8954 429.00
38.1996 430.00
38.5039 438.00
38.8082 358.00
39.1124 410.00
39.4167 412.00
39.7209 490.00
40.0252 408.00
40.3295 400.00
40.6337 378.00
40.938 354.00
41.2422 398.00
41.5465 358.00
41.8508 372.00
42.155 376.00
42.4593 347.00
42.7635 352.00
43.0678 358.00
43.3721 481.00
43.6763 384.00
43.9806 352.00
44.2849 303.00
44.5891 316.00
44.8934 332.00
45.1976 386.00
45.5019 413.00
45.8062 370.00
46.1104 355.00
46.4147 330.00
46.7189 377.00
47.0232 376.00
47.3275 341.00
47.6317 316.00
47.936 321.00
48.2402 409.00
48.5445 570.00
48.8488 332.00
49.153 330.00
49.4573 317.00
49.7615 343.00
50.0658 349.00
50.3701 321.00
50.6743 324.00
50.9786 297.00
51.2828 295.00
51.5871 296.00
51.8914 328.00
52.1956 278.00
52.4999 314.00
52.8041 284.00
53.1084 347.00
53.4127 286.00
53.7169 281.00
54.0212 288.00
54.3254 257.00
54.6297 299.00
54.934 269.00
55.2382 281.00
55.5425 302.00
55.8467 248.00
56.151 298.00
56.4553 328.00
56.7595 269.00
57.0638 241.00
57.368 379.00
57.6723 403.00
57.9766 262.00
58.2808 237.00
58.5851 258.00
58.8893 303.00
59.1936 243.00
59.4979 234.00
59.8021 225.00
60.1064 234.00
60.4106 295.00
60.7149 227.00
61.0192 233.00
61.3234 231.00
61.6277 243.00
61.932 236.00
62.2362 250.00
62.5405 256.00
62.8447 205.00
63.149 212.00
63.4533 210.00
63.7575 241.00
64.0618 235.00
64.366 270.00
64.6703 227.00
64.9745 213.00
65.2788 231.00
65.5831 207.00
65.8873 200.00
66.1916 242.00
66.4959 230.00
66.8001 206.00
67.1044 263.00
67.4086 227.00
67.7129 235.00
68.0172 273.00
68.3214 229.00
68.6257 221.00
68.9299 233.00
69.2342 198.00
69.5385 225.00
69.8427 214.00
70.147 199.00
70.4512 197.00
70.7555 217.00
71.0598 264.00
71.364 196.00
71.6683 222.00
71.9725 218.00
72.2768 248.00
72.5811 223.00
72.8853 215.00
73.1896 250.00
73.4938 260.00
73.7981 225.00
74.1024 227.00
74.4066 223.00
74.7109 250.00
75.0151 275.00
75.3194 285.00
75.6237 262.00
75.9279 234.00
76.2322 219.00
76.5364 229.00
76.8407 234.00
77.145 268.00
77.4492 285.00
77.7535 204.00
78.0577 261.00
78.362 287.00
78.6663 293.00
78.9705 268.00
79.2748 247.00
79.579 240.00
79.8833 266.00
80.1876 216.00
80.4918 279.00
80.7961 287.00
81.1003 259.00
81.4046 260.00
81.7089 265.00
82.0131 249.00
82.3174 268.00
82.6217 267.00
82.9259 281.00
83.2302 226.00
83.5344 266.00
83.8387 284.00
84.143 256.00
84.4472 266.00
84.7515 260.00
85.0557 235.00
85.36 251.00
85.6643 241.00
85.9685 228.00
86.2728 228.00
86.577 232.00
86.8813 228.00
87.1856 238.00
87.4898 244.00
87.7941 208.00
88.0983 238.00
88.4026 217.00
88.7069 227.00
89.0111 229.00
89.3154 223.00
89.6196 228.00
89.9239 207.00
90.2282 223.00
90.5324 229.00
90.8367 226.00
91.1409 240.00
91.4452 185.00
91.7495 234.00
92.0537 237.00
92.358 219.00
92.6622 219.00
92.9665 251.00
93.2708 215.00
93.575 214.00
93.8793 227.00
94.1835 207.00
94.4878 214.00
94.7921 227.00
95.0963 213.00
95.4006 223.00
95.7048 239.00
96.0091 220.00
96.3134 214.00
96.6176 236.00
96.9219 190.00
97.2261 231.00
97.5304 215.00
97.8347 231.00
98.1389 243.00
98.4432 223.00
98.7474 194.00
99.0517 215.00
99.356 232.00
99.6602 203.00
99.9645 198.00
100.095 206.00

File: Na_37.xy
9.903433 2661.00
10.2077 2617.00
10.512 2551.00
10.8162 2483.00
11.1205 2391.00
11.4247 2354.00
11.729 2173.00
12.0333 2121.00
12.3375 2054.00
12.6418 2049.00
12.946 2007.00
13.2503 1833.00
13.5546 1833.00
13.8588 1857.00
14.1631 1701.00
14.4673 1797.00
14.7716 1712.00
15.0759 1784.00
15.3801 1736.00
15.6844 1614.00
15.9886 1565.00
16.2929 1590.00
16.5972 1572.00
16.9014 1570.00
17.2057 1465.00
17.5099 1541.00
17.8142 1382.00
18.1185 1395.00
18.4227 1316.00
18.727 1484.00
19.0312 1457.00
19.3355 1344.00
19.6398 1342.00
19.944 1651.00
20.2483 2810.00
20.5525 1244.00
20.8568 1220.00
21.1611 1179.00
21.4653 1119.00
21.7696 1126.00
22.0738 1093.00
22.3781 1145.00
22.6824 1117.00
22.9866 1058.00
23.2909 1139.00
23.5951 1023.00
23.8994 1046.00
24.2037 976.00
24.5079 951.00
24.8122 957.00
25.1164 959.00
25.4207 943.00
25.725 1036.00
26.0292 1142.00
26.3335 2102.00
26.6378 8791.00
26.942 4040.00
27.2463 1224.00
27.5505 986.00
27.8548 975.00
28.1591 884.00
28.4633 828.00
28.7676 814.00
29.0718 783.00
29.3761 796.00
29.6804 821.00
29.9846 698.00
30.2889 747.00
30.5931 773.00
30.8974 727.00
31.2017 741.00
31.5059 733.00
31.8102 728.00
32.1144 727.00
32.4187 772.00
32.723 1396.00
33.0272 1640.00
33.3315 2467.00
33.6357 1674.00
33.94 7492.00
34.2443 3415.00
34.5485 947.00
34.8528 763.00
35.157 717.00
35.4613 658.00
35.7656 629.00
36.0698 657.00
36.3741 624.00
36.6783 626.00
36.9826 710.00
37.2869 742.00
37.5911 746.00
37.8954 1437.00
38.1996 2590.00
38.5039 1005.00
38.8082 839.00
39.1124 1070.00
39.4167 658.00
39.7209 510.00
40.0252 493.00
40.3295 484.00
40.6337 453.00
40.938 459.00
41.2422 442.00
41.5465 439.00
41.8508 444.00
42.155 447.00
42.4593 442.00
42.7635 663.00
43.0678 498.00
43.3721 448.00
43.6763 584.00
43.9806 551.00
44.2849 415.00
44.5891 425.00
44.8934 531.00
45.1976 467.00
45.5019 448.00
45.8062 393.00
46.1104 417.00
46.4147 391.00
46.7189 413.00
47.0232 427.00
47.3275 730.00
47.6317 623.00
47.936 428.00
48.2402 389.00
48.5445 364.00
48.8488 405.00
49.153 415.00
49.4573 392.00
49.7615 401.00
50.0658 383.00
50.3701 429.00
50.6743 415.00
50.9786 426.00
51.2828 551.00
51.5871 1339.00
51.8914 7359.00
52.1956 2297.00
52.4999 714.00
52.8041 405.00
53.1084 418.00
53.4127 379.00
53.7169 403.00
54.0212 439.00
54.3254 492.00
54.6297 782.00
54.934 2068.00
55.2382 671.00
55.5425 440.00
55.8467 396.00
56.151 445.00
56.4553 367.00
56.7595 404.00
57.0638 371.00
57.368 408.00
57.6723 494.00
57.9766 1114.00
58.2808 544.00
58.5851 346.00
58.8893 431.00
59.1936 616.00
59.4979 540.00
59.8021 452.00
60.1064 336.00
60.4106 366.00
60.7149 320.00
61.0192 357.00
61.3234 386.00
61.6277 479.00
61.932 1550.00
62.2362 1129.00
62.5405 455.00
62.8447 479.00
63.149 467.00
63.4533 349.00
63.7575 333.00
64.0618 372.00
64.366 402.00
64.6703 936.00
64.9745 1686.00
65.2788 737.00
65.5831 637.00
65.8873 1033.00
66.1916 2064.00
66.4959 575.00
66.8001 333.00
67.1044 309.00
67.4086 301.00
67.7129 284.00
68.0172 262.00
68.3214 270.00
68.6257 279.00
68.9299 286.00
69.2342 271.00
69.5385 309.00
69.8427 352.00
70.147 357.00
70.4512 291.00
70.7555 265.00
71.0598 386.00
71.364 1017.00
71.6683 589.00
71.9725 309.00
72.2768 260.00
72.5811 277.00
72.8853 290.00
73.1896 329.00
73.4938 275.00
73.7981 277.00
74.1024 261.00
74.4066 240.00
74.7109 286.00
75.0151 230.00
75.3194 290.00
75.6237 283.00
75.9279 271.00
76.2322 267.00
76.5364 287.00
76.8407 237.00
77.145 272.00
77.4492 207.00
77.7535 239.00
78.0577 292.00
78.362 337.00
78.6663 878.00
78.9705 1206.00
79.2748 547.00
79.579 347.00
79.8833 290.00
80.1876 268.00
80.4918 259.00
80.7961 294.00
81.1003 408.00
81.4046 508.00
81.7089 314.00
82.0131 265.00
82.3174 286.00
82.6217 291.00
82.9259 281.00
83.2302 295.00
83.5344 425.00
83.8387 1099.00
84.143 671.00
84.4472 334.00
84.7515 327.00
85.0557 351.00
85.36 261.00
85.6643 256.00
85.9685 245.00
86.2728 236.00
86.577 303.00
86.8813 303.00
87.1856 459.00
87.4898 509.00
87.7941 284.00
88.0983 259.00
88.4026 233.00
88.7069 312.00
89.0111 281.00
89.3154 304.00
89.6196 456.00
89.9239 1208.00
90.2282 749.00
90.5324 404.00
90.8367 760.00
91.1409 973.00
91.4452 509.00
91.7495 313.00
92.0537 288.00
92.358 289.00
92.6622 299.00
92.9665 297.00
93.2708 603.00
93.575 540.00
93.8793 322.00
94.1835 261.00
94.4878 245.00
94.7921 217.00
95.0963 257.00
95.4006 244.00
95.7048 281.00
96.0091 562.00
96.3134 481.00
96.6176 277.00
96.9219 240.00
97.2261 232.00
97.5304 209.00
97.8347 246.00
98.1389 262.00
98.4432 275.00
98.7474 284.00
99.0517 268.00
99.356 220.00
99.6602 213.00
99.9645 230.00
100.095 250.00

File: Na_38.xy
9.903433 2766.00
10.2077 2619.00
10.512 2497.00
10.8162 2420.00
11.1205 2327.00
11.4247 2201.00
11.729 2120.00
12.0333 1976.00
12.3375 2015.00
12.6418 1980.00
12.946 1992.00
13.2503 1927.00
13.5546 1816.00
13.8588 1696.00
14.1631 1718.00
14.4673 1694.00
14.7716 1658.00
15.0759 1533.00
15.3801 1516.00
15.6844 1536.00
15.9886 1488.00
16.2929 1499.00
16.5972 1494.00
16.9014 1413.00
17.2057 1379.00
17.5099 1388.00
17.8142 1407.00
18.1185 1290.00
18.4227 1344.00
18.727 1244.00
19.0312 1328.00
19.3355 1494.00
19.6398 1871.00
19.944 2579.00
20.2483 2845.00
20.5525 1783.00
20.8568 1657.00
21.1611 2591.00
21.4653 2577.00
21.7696 1838.00
22.0738 1279.00
22.3781 1356.00
22.6824 1456.00
22.9866 1594.00
23.2909 2043.00
23.5951 1543.00
23.8994 1392.00
24.2037 1165.00
24.5079 1153.00
24.8122 1003.00
25.1164 998.00
25.4207 1131.00
25.725 1142.00
26.0292 1218.00
26.3335 1316.00
26.6378 1478.00
26.942 1446.00
27.2463 1303.00
27.5505 1060.00
27.8548 1210.00
28.1591 1085.00
28.4633 978.00
28.7676 957.00
29.0718 1201.00
29.3761 3206.00
29.6804 4150.00
29.9846 1610.00
30.2889 1403.00
30.5931 1823.00
30.8974 1503.00
31.2017 1742.00
31.5059 1397.00
31.8102 1374.00
32.1144 1465.00
32.4187 1536.00
32.723 1829.00
33.0272 2667.00
33.3315 3600.00
33.6357 1592.00
33.94 1476.00
34.2443 1108.00
34.5485 1170.00
34.8528 1198.00
35.157 1138.00
35.4613 1140.00
35.7656 1069.00
36.0698 1289.00
36.3741 1024.00
36.6783 902.00
36.9826 861.00
37.2869 849.00
37.5911 851.00
37.8954 838.00
38.1996 994.00
38.5039 917.00
38.8082 890.00
39.1124 868.00
39.4167 1183.00
39.7209 1189.00
40.0252 704.00
40.3295 665.00
40.6337 675.00
40.938 806.00
41.2422 951.00
41.5465 791.00
41.8508 744.00
42.155 730.00
42.4593 734.00
42.7635 839.00
43.0678 1049.00
43.3721 1445.00
43.6763 1002.00
43.9806 813.00
44.2849 826.00
44.5891 790.00
44.8934 843.00
45.1976 747.00
45.5019 742.00
45.8062 791.00
46.1104 801.00
46.4147 792.00
46.7189 762.00
47.0232 871.00
47.3275 1269.00
47.6317 1527.00
47.936 878.00
48.2402 725.00
48.5445 1158.00
48.8488 966.00
49.153 533.00
49.4573 570.00
49.7615 499.00
50.0658 523.00
50.3701 466.00
50.6743 520.00
50.9786 521.00
51.2828 538.00
51.5871 598.00
51.8914 744.00
52.1956 712.00
52.4999 776.00
52.8041 713.00
53.1084 716.00
53.4127 686.00
53.7169 647.00
54.0212 598.00
54.3254 529.00
54.6297 567.00
54.934 651.00
55.2382 630.00
55.5425 618.00
55.8467 585.00
56.151 607.00
56.4553 619.00
56.7595 712.00
57.0638 606.00
57.368 699.00
57.6723 845.00
57.9766 588.00
58.2808 597.00
58.5851 585.00
58.8893 680.00
59.1936 761.00
59.4979 778.00
59.8021 783.00
60.1064 629.00
60.4106 572.00
60.7149 725.00
61.0192 699.00
61.3234 600.00
61.6277 569.00
61.932 500.00
62.2362 509.00
62.5405 507.00
62.8447 591.00
63.149 644.00
63.4533 604.00
63.7575 534.00
64.0618 443.00
64.366 495.00
64.6703 546.00
64.9745 581.00
65.2788 538.00
65.5831 591.00
65.8873 574.00
66.1916 447.00
66.4959 448.00
66.8001 507.00
67.1044 409.00
67.4086 404.00
67.7129 458.00
68.0172 418.00
68.3214 405.00
68.6257 361.00
68.9299 381.00
69.2342 458.00
69.5385 531.00
69.8427 471.00
70.147 492.00
70.4512 479.00
70.7555 436.00
71.0598 388.00
71.364 371.00
71.6683 402.00
71.9725 428.00
72.2768 382.00
72.5811 345.00
72.8853 465.00
73.1896 424.00
73.4938 421.00
73.7981 324.00
74.1024 377.00
74.4066 354.00
74.7109 330.00
75.0151 339.00
75.3194 340.00
75.6237 352.00
75.9279 411.00
76.2322 382.00
76.5364 430.00
76.8407 427.00
77.145 486.00
77.4492 408.00
77.7535 337.00
78.0577 364.00
78.362 368.00
78.6663 378.00
78.9705 417.00
79.2748 424.00
79.579 326.00
79.8833 327.00
80.1876 327.00
80.4918 295.00
80.7961 320.00
81.1003 339.00
81.4046 351.00
81.7089 423.00
82.0131 359.00
82.3174 389.00
82.6217 317.00
82.9259 341.00
83.2302 395.00
83.5344 437.00
83.8387 539.00
84.143 418.00
84.4472 394.00
84.7515 419.00
85.0557 434.00
85.36 346.00
85.6643 368.00
85.9685 344.00
86.2728 363.00
86.577 411.00
86.8813 383.00
87.1856 371.00
87.4898 342.00
87.7941 307.00
88.0983 354.00
88.4026 295.00
88.7069 321.00
89.0111 313.00
89.3154 302.00
89.6196 293.00
89.9239 300.00
90.2282 307.00
90.5324 293.00
90.8367 361.00
91.1409 315.00
91.4452 344.00
91.7495 351.00
92.0537 326.00
92.358 333.00
92.6622 335.00
92.9665 294.00
93.2708 342.00
93.575 326.00
93.8793 350.00
94.1835 315.00
94.4878 273.00
94.7921 458.00
95.0963 488.00
95.4006 371.00
95.7048 331.00
96.0091 353.00
96.3134 361.00
96.6176 335.00
96.9219 321.00
97.2261 305.00
97.5304 358.00
97.8347 327.00
98.1389 327.00
98.4432 326.00
98.7474 360.00
99.0517 382.00
99.356 317.00
99.6602 344.00
99.9645 320.00
100.095 316.00

File: Na_39.xy
9.903433 2590.00
10.2077 2471.00
10.512 2409.00
10.8162 2247.00
11.1205 2092.00
11.4247 2038.00
11.729 1926.00
12.0333 1911.00
12.3375 1875.00
12.6418 1762.00
12.946 1716.00
13.2503 1552.00
13.5546 1587.00
13.8588 1469.00
14.1631 1462.00
14.4673 1434.00
14.7716 1402.00
15.0759 1296.00
15.3801 1293.00
15.6844 1236.00
15.9886 1295.00
16.2929 1226.00
16.5972 1221.00
16.9014 1173.00
17.2057 1119.00
17.5099 1123.00
17.8142 1034.00
18.1185 1034.00
18.4227 1073.00
18.727 1043.00
19.0312 1027.00
19.3355 962.00
19.6398 869.00
19.944 914.00
20.2483 919.00
20.5525 843.00
20.8568 880.00
21.1611 883.00
21.4653 900.00
21.7696 840.00
22.0738 786.00
22.3781 776.00
22.6824 850.00
22.9866 812.00
23.2909 820.00
23.5951 759.00
23.8994 742.00
24.2037 709.00
24.5079 712.00
24.8122 677.00
25.1164 713.00
25.4207 664.00
25.725 632.00
26.0292 728.00
26.3335 656.00
26.6378 665.00
26.942 658.00
27.2463 694.00
27.5505 647.00
27.8548 628.00
28.1591 679.00
28.4633 631.00
28.7676 597.00
29.0718 698.00
29.3761 570.00
29.6804 550.00
29.9846 680.00
30.2889 539.00
30.5931 518.00
30.8974 513.00
31.2017 500.00
31.5059 536.00
31.8102 478.00
32.1144 537.00
32.4187 481.00
32.723 511.00
33.0272 510.00
33.3315 494.00
33.6357 521.00
33.94 460.00
34.2443 437.00
34.5485 404.00
34.8528 452.00
35.157 424.00
35.4613 408.00
35.7656 389.00
36.0698 398.00
36.3741 408.00
36.6783 413.00
36.9826 399.00
37.2869 386.00
37.5911 401.00
37.8954 346.00
38.1996 366.00
38.5039 382.00
38.8082 331.00
39.1124 327.00
39.4167 339.00
39.7209 351.00
40.0252 342.00
40.3295 357.00
40.6337 318.00
40.938 291.00
41.2422 324.00
41.5465 327.00
41.8508 380.00
42.155 311.00
42.4593 321.00
42.7635 287.00
43.0678 345.00
43.3721 291.00
43.6763 326.00
43.9806 329.00
44.2849 304.00
44.5891 289.00
44.8934 270.00
45.1976 285.00
45.5019 320.00
45.8062 259.00
46.1104 323.00
46.4147 304.00
46.7189 278.00
47.0232 278.00
47.3275 314.00
47.6317 272.00
47.936 279.00
48.2402 295.00
48.5445 309.00
48.8488 309.00
49.153 289.00
49.4573 269.00
49.7615 297.00
50.0658 271.00
50.3701 277.00
50.6743 266.00
50.9786 272.00
51.2828 240.00
51.5871 293.00
51.8914 273.00
52.1956 245.00
52.4999 289.00
52.8041 244.00
53.1084 227.00
53.4127 229.00
53.7169 259.00
54.0212 243.00
54.3254 227.00
54.6297 263.00
54.934 247.00
55.2382 247.00
55.5425 228.00
55.8467 209.00
56.151 239.00
56.4553 205.00
56.7595 230.00
57.0638 246.00
57.368 241.00
57.6723 221.00
57.9766 270.00
58.2808 218.00
58.5851 221.00
58.8893 221.00
59.1936 224.00
59.4979 243.00
59.8021 222.00
60.1064 220.00
60.4106 181.00
60.7149 224.00
61.0192 217.00
61.3234 202.00
61.6277 192.00
61.932 184.00
62.2362 198.00
62.5405 213.00
62.8447 192.00
63.149 201.00
63.4533 208.00
63.7575 201.00
64.0618 203.00
64.366 205.00
64.6703 173.00
64.9745 176.00
65.2788 194.00
65.5831 200.00
65.8873 192.00
66.1916 182.00
66.4959 182.00
66.8001 204.00
67.1044 199.00
67.4086 197.00
67.7129 200.00
68.0172 161.00
68.3214 205.00
68.6257 193.00
68.9299 192.00
69.2342 194.00
69.5385 209.00
69.8427 184.00
70.147 185.00
70.4512 194.00
70.7555 188.00
71.0598 201.00
71.364 186.00
71.6683 199.00
71.9725 190.00
72.2768 199.00
72.5811 178.00
72.8853 187.00
73.1896 184.00
73.4938 194.00
73.7981 195.00
74.1024 214.00
74.4066 195.00
74.7109 211.00
75.0151 203.00
75.3194 200.00
75.6237 206.00
75.9279 209.00
76.2322 223.00
76.5364 223.00
76.8407 213.00
77.145 210.00
77.4492 198.00
77.7535 223.00
78.0577 225.00
78.362 227.00
78.6663 219.00
78.9705 230.00
79.2748 208.00
79.579 211.00
79.8833 249.00
80.1876 238.00
80.4918 224.00
80.7961 264.00
81.1003 217.00
81.4046 212.00
81.7089 235.00
82.0131 249.00
82.3174 203.00
82.6217 218.00
82.9259 222.00
83.2302 241.00
83.5344 236.00
83.8387 244.00
84.143 242.00
84.4472 262.00
84.7515 210.00
85.0557 187.00
85.36 208.00
85.6643 173.00
85.9685 216.00
86.2728 186.00
86.577 209.00
86.8813 206.00
87.1856 211.00
87.4898 193.00
87.7941 186.00
88.0983 187.00
88.4026 193.00
88.7069 208.00
89.0111 219.00
89.3154 199.00
89.6196 183.00
89.9239 204.00
90.2282 210.00
90.5324 200.00
90.8367 204.00
91.1409 194.00
91.4452 202.00
91.7495 177.00
92.0537 179.00
92.358 204.00
92.6622 175.00
92.9665 183.00
93.2708 177.00
93.575 205.00
93.8793 178.00
94.1835 181.00
94.4878 179.00
94.7921 186.00
95.0963 195.00
95.4006 176.00
95.7048 190.00
96.0091 185.00
96.3134 185.00
96.6176 200.00
96.9219 169.00
97.2261 189.00
97.5304 181.00
97.8347 222.00
98.1389 172.00
98.4432 196.00
98.7474 176.00
99.0517 198.00
99.356 195.00
99.6602 168.00
99.9645 186.00
100.095 184.00

File: Na_40.xy
9.903433 2614.00
10.2077 2502.00
10.512 2409.00
10.8162 2286.00
11.1205 2195.00
11.4247 2093.00
11.729 2005.00
12.0333 1942.00
12.3375 1746.00
12.6418 1745.00
12.946 1674.00
13.2503 1628.00
13.5546 1552.00
13.8588 1467.00
14.1631 1440.00
14.4673 1363.00
14.7716 1344.00
15.0759 1323.00
15.3801 1232.00
15.6844 1305.00
15.9886 1198.00
16.2929 1204.00
16.5972 1214.00
16.9014 1169.00
17.2057 1152.00
17.5099 1122.00
17.8142 1101.00
18.1185 1083.00
18.4227 1049.00
18.727 1030.00
19.0312 957.00
19.3355 947.00
19.6398 964.00
19.944 1046.00
20.2483 963.00
20.5525 841.00
20.8568 861.00
21.1611 875.00
21.4653 828.00
21.7696 844.00
22.0738 813.00
22.3781 834.00
22.6824 773.00
22.9866 838.00
23.2909 823.00
23.5951 792.00
23.8994 718.00
24.2037 706.00
24.5079 704.00
24.8122 743.00
25.1164 699.00
25.4207 699.00
25.725 722.00
26.0292 624.00
26.3335 660.00
26.6378 648.00
26.942 620.00
27.2463 578.00
27.5505 659.00
27.8548 623.00
28.1591 611.00
28.4633 648.00
28.7676 619.00
29.0718 602.00
29.3761 543.00
29.6804 606.00
29.9846 644.00
30.2889 525.00
30.5931 504.00
30.8974 553.00
31.2017 512.00
31.5059 531.00
31.8102 560.00
32.1144 535.00
32.4187 495.00
32.723 478.00
33.0272 470.00
33.3315 482.00
33.6357 452.00
33.94 459.00
34.2443 455.00
34.5485 428.00
34.8528 431.00
35.157 386.00
35.4613 412.00
35.7656 395.00
36.0698 392.00
36.3741 429.00
36.6783 438.00
36.9826 424.00
37.2869 382.00
37.5911 378.00
37.8954 505.00
38.1996 391.00
38.5039 349.00
38.8082 373.00
39.1124 347.00
39.4167 357.00
39.7209 356.00
40.0252 374.00
40.3295 339.00
40.6337 368.00
40.938 370.00
41.2422 364.00
41.5465 356.00
41.8508 314.00
42.155 333.00
42.4593 330.00
42.7635 318.00
43.0678 330.00
43.3721 306.00
43.6763 325.00
43.9806 387.00
44.2849 314.00
44.5891 310.00
44.8934 308.00
45.1976 272.00
45.5019 291.00
45.8062 309.00
46.1104 292.00
46.4147 300.00
46.7189 277.00
47.0232 260.00
47.3275 277.00
47.6317 285.00
47.936 246.00
48.2402 274.00
48.5445 296.00
48.8488 262.00
49.153 284.00
49.4573 280.00
49.7615 237.00
50.0658 271.00
50.3701 242.00
50.6743 251.00
50.9786 274.00
51.2828 248.00
51.5871 240.00
51.8914 273.00
52.1956 217.00
52.4999 226.00
52.8041 237.00
53.1084 228.00
53.4127 241.00
53.7169 260.00
54.0212 219.00
54.3254 257.00
54.6297 211.00
54.934 225.00
55.2382 234.00
55.5425 210.00
55.8467 214.00
56.151 212.00
56.4553 256.00
56.7595 200.00
57.0638 225.00
57.368 232.00
57.6723 215.00
57.9766 211.00
58.2808 210.00
58.5851 205.00
58.8893 227.00
59.1936 194.00
59.4979 230.00
59.8021 202.00
60.1064 188.00
60.4106 214.00
60.7149 183.00
61.0192 224.00
61.3234 189.00
61.6277 209.00
61.932 218.00
62.2362 179.00
62.5405 207.00
62.8447 187.00
63.149 213.00
63.4533 192.00
63.7575 203.00
64.0618 227.00
64.366 205.00
64.6703 190.00
64.9745 173.00
65.2788 217.00
65.5831 188.00
65.8873 178.00
66.1916 206.00
66.4959 188.00
66.8001 173.00
67.1044 192.00
67.4086 197.00
67.7129 182.00
68.0172 189.00
68.3214 171.00
68.6257 178.00
68.9299 166.00
69.2342 200.00
69.5385 209.00
69.8427 160.00
70.147 221.00
70.4512 197.00
70.7555 192.00
71.0598 179.00
71.364 185.00
71.6683 189.00
71.9725 188.00
72.2768 192.00
72.5811 198.00
72.8853 196.00
73.1896 194.00
73.4938 186.00
73.7981 185.00
74.1024 170.00
74.4066 195.00
74.7109 199.00
75.0151 206.00
75.3194 206.00
75.6237 187.00
75.9279 191.00
76.2322 191.00
76.5364 176.00
76.8407 218.00
77.145 233.00
77.4492 207.00
77.7535 213.00
78.0577 202.00
78.362 188.00
78.6663 221.00
78.9705 208.00
79.2748 205.00
79.579 214.00
79.8833 225.00
80.1876 180.00
80.4918 225.00
80.7961 258.00
81.1003 226.00
81.4046 244.00
81.7089 224.00
82.0131 222.00
82.3174 196.00
82.6217 232.00
82.9259 218.00
83.2302 208.00
83.5344 218.00
83.8387 230.00
84.143 210.00
84.4472 215.00
84.7515 207.00
85.0557 197.00
85.36 192.00
85.6643 213.00
85.9685 223.00
86.2728 192.00
86.577 205.00
86.8813 235.00
87.1856 193.00
87.4898 184.00
87.7941 190.00
88.0983 205.00
88.4026 196.00
88.7069 196.00
89.0111 195.00
89.3154 175.00
89.6196 171.00
89.9239 192.00
90.2282 174.00
90.5324 187.00
90.8367 173.00
91.1409 194.00
91.4452 207.00
91.7495 202.00
92.0537 186.00
92.358 179.00
92.6622 183.00
92.9665 201.00
93.2708 191.00
93.575 194.00
93.8793 159.00
94.1835 203.00
94.4878 187.00
94.7921 204.00
95.0963 188.00
95.4006 203.00
95.7048 174.00
96.0091 198.00
96.3134 158.00
96.6176 188.00
96.9219 188.00
97.2261 179.00
97.5304 173.00
97.8347 193.00
98.1389 160.00
98.4432 190.00
98.7474 180.00
99.0517 174.00
99.356 193.00
99.6602 174.00
99.9645 185.00
100.095 174.00