Folder: alab-pipeline/data/xrd_creation/results (part 37)

File: NSC_11.xy
9.903433 2818.00
10.2077 2770.00
10.512 2674.00
10.8162 2700.00
11.1205 2461.00
11.4247 2487.00
11.729 2296.00
12.0333 2331.00
12.3375 2067.00
12.6418 2140.00
12.946 2087.00
13.2503 2017.00
13.5546 2036.00
13.8588 2048.00
14.1631 2522.00
14.4673 2602.00
14.7716 1972.00
15.0759 2425.00
15.3801 2054.00
15.6844 1901.00
15.9886 1798.00
16.2929 1865.00
16.5972 1845.00
16.9014 1836.00
17.2057 1735.00
17.5099 1817.00
17.8142 1816.00
18.1185 1706.00
18.4227 1715.00
18.727 1941.00
19.0312 1856.00
19.3355 1972.00
19.6398 3805.00
19.944 4057.00
20.2483 2651.00
20.5525 7643.00
20.8568 4544.00
21.1611 2030.00
21.4653 2085.00
21.7696 5089.00
22.0738 4184.00
22.3781 1784.00
22.6824 1676.00
22.9866 1617.00
23.2909 1972.00
23.5951 4319.00
23.8994 5504.00
24.2037 2158.00
24.5079 2020.00
24.8122 1896.00
25.1164 2860.00
25.4207 3825.00
25.725 1694.00
26.0292 1754.00
26.3335 1852.00
26.6378 2153.00
26.942 1425.00
27.2463 1427.00
27.5505 1442.00
27.8548 1424.00
28.1591 1879.00
28.4633 4661.00
28.7676 3342.00
29.0718 1535.00
29.3761 1492.00
29.6804 1429.00
29.9846 1571.00
30.2889 2367.00
30.5931 2438.00
30.8974 2300.00
31.2017 2342.00
31.5059 6830.00
31.8102 3654.00
32.1144 1600.00
32.4187 1499.00
32.723 1446.00
33.0272 1660.00
33.3315 3936.00
33.6357 1907.00
33.94 1779.00
34.2443 1688.00
34.5485 1416.00
34.8528 1519.00
35.157 1780.00
35.4613 2951.00
35.7656 3267.00
36.0698 2464.00
36.3741 2255.00
36.6783 1242.00
36.9826 1141.00
37.2869 1257.00
37.5911 1377.00
37.8954 1647.00
38.1996 1579.00
38.5039 2024.00
38.8082 1360.00
39.1124 1239.00
39.4167 1218.00
39.7209 1448.00
40.0252 1508.00
40.3295 1290.00
40.6337 1327.00
40.938 1280.00
41.2422 1341.00
41.5465 1619.00
41.8508 1634.00
42.155 1379.00
42.4593 1447.00
42.7635 1132.00
43.0678 1314.00
43.3721 1762.00
43.6763 1436.00
43.9806 1518.00
44.2849 1316.00
44.5891 1197.00
44.8934 1487.00
45.1976 2087.00
45.5019 1818.00
45.8062 1322.00
46.1104 1570.00
46.4147 1858.00
46.7189 1718.00
47.0232 1644.00
47.3275 1210.00
47.6317 1296.00
47.936 1852.00
48.2402 2925.00
48.5445 2375.00
48.8488 1502.00
49.153 1436.00
49.4573 1915.00
49.7615 1857.00
50.0658 1199.00
50.3701 1379.00
50.6743 1302.00
50.9786 1402.00
51.2828 1627.00
51.5871 2643.00
51.8914 2175.00
52.1956 1430.00
52.4999 1206.00
52.8041 1258.00
53.1084 1118.00
53.4127 1042.00
53.7169 1123.00
54.0212 1195.00
54.3254 1401.00
54.6297 2137.00
54.934 1792.00
55.2382 1496.00
55.5425 2167.00
55.8467 2465.00
56.151 2063.00
56.4553 1353.00
56.7595 1178.00
57.0638 1278.00
57.368 1378.00
57.6723 1164.00
57.9766 1254.00
58.2808 2134.00
58.5851 1666.00
58.8893 1359.00
59.1936 1232.00
59.4979 1347.00
59.8021 1639.00
60.1064 2077.00
60.4106 1852.00
60.7149 1368.00
61.0192 1369.00
61.3234 1675.00
61.6277 1865.00
61.932 1593.00
62.2362 1277.00
62.5405 1455.00
62.8447 1478.00
63.149 1388.00
63.4533 1256.00
63.7575 1464.00
64.0618 1776.00
64.366 1878.00
64.6703 1439.00
64.9745 1228.00
65.2788 1340.00
65.5831 1376.00
65.8873 1534.00
66.1916 1840.00
66.4959 1593.00
66.8001 1304.00
67.1044 1170.00
67.4086 1323.00
67.7129 1257.00
68.0172 1252.00
68.3214 1475.00
68.6257 1247.00
68.9299 1288.00
69.2342 1391.00
69.5385 1360.00
69.8427 1101.00
70.147 1107.00
70.4512 1209.00
70.7555 1240.00
71.0598 1126.00
71.364 1299.00
71.6683 1226.00
71.9725 1155.00
72.2768 1155.00
72.5811 1050.00
72.8853 1182.00
73.1896 1136.00
73.4938 1108.00
73.7981 1124.00
74.1024 1180.00
74.4066 1179.00
74.7109 1169.00
75.0151 1168.00
75.3194 1332.00
75.6237 1386.00
75.9279 1286.00
76.2322 1111.00
76.5364 1103.00
76.8407 1110.00
77.145 1171.00
77.4492 1175.00
77.7535 1153.00
78.0577 1058.00
78.362 1037.00
78.6663 1157.00
78.9705 1222.00
79.2748 1305.00
79.579 1223.00
79.8833 1153.00
80.1876 1014.00
80.4918 1080.00
80.7961 1077.00
81.1003 1120.00
81.4046 1165.00
81.7089 1139.00
82.0131 1132.00
82.3174 1076.00
82.6217 1077.00
82.9259 982.00
83.2302 1047.00
83.5344 1079.00
83.8387 1157.00
84.143 1213.00
84.4472 1154.00
84.7515 1130.00
85.0557 1163.00
85.36 1166.00
85.6643 1220.00
85.9685 1260.00
86.2728 1220.00
86.577 1201.00
86.8813 1142.00
87.1856 1123.00
87.4898 1192.00
87.7941 1117.00
88.0983 1068.00
88.4026 1081.00
88.7069 1077.00
89.0111 1059.00
89.3154 1077.00
89.6196 1149.00
89.9239 1227.00
90.2282 1194.00
90.5324 1132.00
90.8367 1133.00
91.1409 1087.00
91.4452 1105.00
91.7495 1200.00
92.0537 1234.00
92.358 1230.00
92.6622 1188.00
92.9665 1096.00
93.2708 1109.00
93.575 1072.00
93.8793 1088.00
94.1835 1168.00
94.4878 1118.00
94.7921 1047.00
95.0963 1114.00
95.4006 1172.00
95.7048 1119.00
96.0091 1100.00
96.3134 1139.00
96.6176 1102.00
96.9219 1168.00
97.2261 1213.00
97.5304 1208.00
97.8347 1104.00
98.1389 1019.00
98.4432 1062.00
98.7474 1082.00
99.0517 1031.00
99.356 1090.00
99.6602 1206.00
99.9645 1185.00
100.095 1123.00

File: NSC_12.xy
9.903433 3003.00
10.2077 2755.00
10.512 2702.00
10.8162 2646.00
11.1205 2577.00
11.4247 2628.00
11.729 2410.00
12.0333 2422.00
12.3375 2263.00
12.6418 2279.00
12.946 2320.00
13.2503 2204.00
13.5546 2183.00
13.8588 2382.00
14.1631 2963.00
14.4673 2678.00
14.7716 2160.00
15.0759 2201.00
15.3801 2141.00
15.6844 2063.00
15.9886 2014.00
16.2929 1982.00
16.5972 2027.00
16.9014 1964.00
17.2057 1950.00
17.5099 1843.00
17.8142 1929.00
18.1185 1959.00
18.4227 1852.00
18.727 1933.00
19.0312 2061.00
19.3355 2236.00
19.6398 4589.00
19.944 4712.00
20.2483 3301.00
20.5525 10151.00
20.8568 2758.00
21.1611 1947.00
21.4653 2017.00
21.7696 3633.00
22.0738 2297.00
22.3781 1733.00
22.6824 1727.00
22.9866 1877.00
23.2909 2317.00
23.5951 5982.00
23.8994 5177.00
24.2037 2168.00
24.5079 2026.00
24.8122 1825.00
25.1164 1962.00
25.4207 1970.00
25.725 1665.00
26.0292 1606.00
26.3335 1668.00
26.6378 2019.00
26.942 1570.00
27.2463 1576.00
27.5505 1585.00
27.8548 1615.00
28.1591 2157.00
28.4633 6090.00
28.7676 3146.00
29.0718 1616.00
29.3761 1500.00
29.6804 1542.00
29.9846 1565.00
30.2889 1711.00
30.5931 1732.00
30.8974 2312.00
31.2017 2688.00
31.5059 9511.00
31.8102 3901.00
32.1144 1742.00
32.4187 1486.00
32.723 1501.00
33.0272 1510.00
33.3315 1958.00
33.6357 1495.00
33.94 1770.00
34.2443 1710.00
34.5485 1605.00
34.8528 1625.00
35.157 2406.00
35.4613 3141.00
35.7656 4578.00
36.0698 2195.00
36.3741 2243.00
36.6783 1385.00
36.9826 1299.00
37.2869 1298.00
37.5911 1401.00
37.8954 1404.00
38.1996 1399.00
38.5039 1383.00
38.8082 1456.00
39.1124 1327.00
39.4167 1303.00
39.7209 1599.00
40.0252 1738.00
40.3295 1292.00
40.6337 1359.00
40.938 1451.00
41.2422 1588.00
41.5465 1985.00
41.8508 1629.00
42.155 1441.00
42.4593 1440.00
42.7635 1330.00
43.0678 1652.00
43.3721 2102.00
43.6763 1476.00
43.9806 1559.00
44.2849 1341.00
44.5891 1352.00
44.8934 1600.00
45.1976 2959.00
45.5019 1805.00
45.8062 1474.00
46.1104 1928.00
46.4147 1999.00
46.7189 1703.00
47.0232 1784.00
47.3275 1340.00
47.6317 1361.00
47.936 1985.00
48.2402 3627.00
48.5445 2301.00
48.8488 1631.00
49.153 1440.00
49.4573 1712.00
49.7615 1720.00
50.0658 1307.00
50.3701 1572.00
50.6743 1407.00
50.9786 1523.00
51.2828 1947.00
51.5871 2966.00
51.8914 2074.00
52.1956 1561.00
52.4999 1294.00
52.8041 1276.00
53.1084 1198.00
53.4127 1266.00
53.7169 1215.00
54.0212 1390.00
54.3254 1737.00
54.6297 1995.00
54.934 1689.00
55.2382 1974.00
55.5425 3042.00
55.8467 2993.00
56.151 1885.00
56.4553 1428.00
56.7595 1347.00
57.0638 1375.00
57.368 1461.00
57.6723 1315.00
57.9766 1360.00
58.2808 1961.00
58.5851 1867.00
58.8893 1558.00
59.1936 1294.00
59.4979 1319.00
59.8021 1522.00
60.1064 2165.00
60.4106 1983.00
60.7149 1433.00
61.0192 1559.00
61.3234 2149.00
61.6277 1890.00
61.932 1489.00
62.2362 1667.00
62.5405 1759.00
62.8447 1665.00
63.149 1516.00
63.4533 1437.00
63.7575 1722.00
64.0618 1945.00
64.366 1618.00
64.6703 1334.00
64.9745 1240.00
65.2788 1417.00
65.5831 1458.00
65.8873 1419.00
66.1916 1665.00
66.4959 1647.00
66.8001 1379.00
67.1044 1312.00
67.4086 1490.00
67.7129 1561.00
68.0172 1497.00
68.3214 1502.00
68.6257 1392.00
68.9299 1378.00
69.2342 1362.00
69.5385 1325.00
69.8427 1209.00
70.147 1186.00
70.4512 1246.00
70.7555 1195.00
71.0598 1450.00
71.364 1579.00
71.6683 1426.00
71.9725 1218.00
72.2768 1231.00
72.5811 1262.00
72.8853 1194.00
73.1896 1174.00
73.4938 1179.00
73.7981 1301.00
74.1024 1406.00
74.4066 1303.00
74.7109 1296.00
75.0151 1453.00
75.3194 1536.00
75.6237 1554.00
75.9279 1387.00
76.2322 1189.00
76.5364 1133.00
76.8407 1248.00
77.145 1242.00
77.4492 1201.00
77.7535 1248.00
78.0577 1156.00
78.362 1230.00
78.6663 1343.00
78.9705 1488.00
79.2748 1444.00
79.579 1323.00
79.8833 1250.00
80.1876 1247.00
80.4918 1226.00
80.7961 1240.00
81.1003 1410.00
81.4046 1326.00
81.7089 1276.00
82.0131 1132.00
82.3174 1202.00
82.6217 1139.00
82.9259 1193.00
83.2302 1309.00
83.5344 1326.00
83.8387 1435.00
84.143 1283.00
84.4472 1307.00
84.7515 1346.00
85.0557 1406.00
85.36 1295.00
85.6643 1307.00
85.9685 1409.00
86.2728 1317.00
86.577 1362.00
86.8813 1300.00
87.1856 1276.00
87.4898 1161.00
87.7941 1216.00
88.0983 1181.00
88.4026 1236.00
88.7069 1240.00
89.0111 1246.00
89.3154 1314.00
89.6196 1369.00
89.9239 1446.00
90.2282 1455.00
90.5324 1305.00
90.8367 1243.00
91.1409 1253.00
91.4452 1258.00
91.7495 1305.00
92.0537 1347.00
92.358 1262.00
92.6622 1266.00
92.9665 1152.00
93.2708 1101.00
93.575 1182.00
93.8793 1269.00
94.1835 1289.00
94.4878 1240.00
94.7921 1257.00
95.0963 1316.00
95.4006 1375.00
95.7048 1333.00
96.0091 1271.00
96.3134 1293.00
96.6176 1372.00
96.9219 1336.00
97.2261 1277.00
97.5304 1244.00
97.8347 1197.00
98.1389 1127.00
98.4432 1104.00
98.7474 1209.00
99.0517 1314.00
99.356 1294.00
99.6602 1293.00
99.9645 1230.00
100.095 1343.00

File: NSC_14.xy
9.903433 3118.00
10.2077 2866.00
10.512 2864.00
10.8162 2805.00
11.1205 2728.00
11.4247 2729.00
11.729 2576.00
12.0333 2584.00
12.3375 2681.00
12.6418 2349.00
12.946 2383.00
13.2503 2318.00
13.5546 2247.00
13.8588 2422.00
14.1631 3387.00
14.4673 2363.00
14.7716 2246.00
15.0759 2169.00
15.3801 2124.00
15.6844 2132.00
15.9886 2164.00
16.2929 2156.00
16.5972 2121.00
16.9014 2136.00
17.2057 2058.00
17.5099 2146.00
17.8142 2117.00
18.1185 2116.00
18.4227 2130.00
18.727 1980.00
19.0312 2082.00
19.3355 2644.00
19.6398 6332.00
19.944 2718.00
20.2483 4541.00
20.5525 4666.00
20.8568 2229.00
21.1611 2016.00
21.4653 2030.00
21.7696 1974.00
22.0738 2021.00
22.3781 2028.00
22.6824 2085.00
22.9866 2477.00
23.2909 2906.00
23.5951 9342.00
23.8994 2283.00
24.2037 2254.00
24.5079 2078.00
24.8122 2136.00
25.1164 1823.00
25.4207 1765.00
25.725 1802.00
26.0292 1802.00
26.3335 1723.00
26.6378 1724.00
26.942 1739.00
27.2463 1798.00
27.5505 1737.00
27.8548 1893.00
28.1591 2986.00
28.4633 8656.00
28.7676 2098.00
29.0718 1764.00
29.3761 1762.00
29.6804 1712.00
29.9846 1769.00
30.2889 1794.00
30.5931 1885.00
30.8974 2275.00
31.2017 6038.00
31.5059 5477.00
31.8102 3563.00
32.1144 1714.00
32.4187 1738.00
32.723 1517.00
33.0272 1797.00
33.3315 1636.00
33.6357 1768.00
33.94 1884.00
34.2443 2881.00
34.5485 2079.00
34.8528 2115.00
35.157 3177.00
35.4613 4423.00
35.7656 2352.00
36.0698 1655.00
36.3741 1428.00
36.6783 1469.00
36.9826 1436.00
37.2869 1556.00
37.5911 1374.00
37.8954 1463.00
38.1996 1451.00
38.5039 1429.00
38.8082 1640.00
39.1124 1472.00
39.4167 1424.00
39.7209 1790.00
40.0252 1421.00
40.3295 1391.00
40.6337 1487.00
40.938 1889.00
41.2422 2147.00
41.5465 2053.00
41.8508 1604.00
42.155 1613.00
42.4593 1422.00
42.7635 1564.00
43.0678 2295.00
43.3721 1502.00
43.6763 1500.00
43.9806 1411.00
44.2849 1373.00
44.5891 1571.00
44.8934 2719.00
45.1976 1859.00
45.5019 1515.00
45.8062 1992.00
46.1104 2125.00
46.4147 1686.00
46.7189 1993.00
47.0232 1645.00
47.3275 1418.00
47.6317 1728.00
47.936 3551.00
48.2402 1972.00
48.5445 1672.00
48.8488 1537.00
49.153 1545.00
49.4573 1967.00
49.7615 1534.00
50.0658 1608.00
50.3701 2310.00
50.6743 1892.00
50.9786 1975.00
51.2828 3123.00
51.5871 1960.00
51.8914 1589.00
52.1956 1372.00
52.4999 1406.00
52.8041 1390.00
53.1084 1366.00
53.4127 1387.00
53.7169 1376.00
54.0212 1800.00
54.3254 2184.00
54.6297 1548.00
54.934 1904.00
55.2382 2819.00
55.5425 3216.00
55.8467 1870.00
56.151 1610.00
56.4553 1452.00
56.7595 1479.00
57.0638 1409.00
57.368 1556.00
57.6723 1518.00
57.9766 1576.00
58.2808 1794.00
58.5851 1667.00
58.8893 1445.00
59.1936 1445.00
59.4979 1542.00
59.8021 2207.00
60.1064 2026.00
60.4106 1581.00
60.7149 1782.00
61.0192 2458.00
61.3234 1591.00
61.6277 1545.00
61.932 1640.00
62.2362 1972.00
62.5405 1584.00
62.8447 1597.00
63.149 1736.00
63.4533 1865.00
63.7575 1771.00
64.0618 1539.00
64.366 1377.00
64.6703 1379.00
64.9745 1462.00
65.2788 1428.00
65.5831 1450.00
65.8873 1834.00
66.1916 1746.00
66.4959 1393.00
66.8001 1405.00
67.1044 1550.00
67.4086 1446.00
67.7129 1625.00
68.0172 1386.00
68.3214 1297.00
68.6257 1409.00
68.9299 1461.00
69.2342 1377.00
69.5385 1224.00
69.8427 1227.00
70.147 1259.00
70.4512 1230.00
70.7555 1579.00
71.0598 1634.00
71.364 1532.00
71.6683 1371.00
71.9725 1362.00
72.2768 1281.00
72.5811 1282.00
72.8853 1282.00
73.1896 1273.00
73.4938 1488.00
73.7981 1413.00
74.1024 1323.00
74.4066 1301.00
74.7109 1611.00
75.0151 1658.00
75.3194 1550.00
75.6237 1419.00
75.9279 1363.00
76.2322 1204.00
76.5364 1326.00
76.8407 1306.00
77.145 1303.00
77.4492 1289.00
77.7535 1251.00
78.0577 1321.00
78.362 1443.00
78.6663 1585.00
78.9705 1398.00
79.2748 1446.00
79.579 1175.00
79.8833 1253.00
80.1876 1294.00
80.4918 1396.00
80.7961 1458.00
81.1003 1365.00
81.4046 1273.00
81.7089 1191.00
82.0131 1250.00
82.3174 1273.00
82.6217 1319.00
82.9259 1351.00
83.2302 1479.00
83.5344 1428.00
83.8387 1279.00
84.143 1243.00
84.4472 1331.00
84.7515 1435.00
85.0557 1380.00
85.36 1338.00
85.6643 1356.00
85.9685 1292.00
86.2728 1347.00
86.577 1294.00
86.8813 1272.00
87.1856 1255.00
87.4898 1322.00
87.7941 1459.00
88.0983 1424.00
88.4026 1304.00
88.7069 1333.00
89.0111 1410.00
89.3154 1570.00
89.6196 1466.00
89.9239 1346.00
90.2282 1252.00
90.5324 1233.00
90.8367 1278.00
91.1409 1308.00
91.4452 1380.00
91.7495 1280.00
92.0537 1249.00
92.358 1289.00
92.6622 1237.00
92.9665 1184.00
93.2708 1275.00
93.575 1297.00
93.8793 1340.00
94.1835 1269.00
94.4878 1344.00
94.7921 1378.00
95.0963 1400.00
95.4006 1312.00
95.7048 1408.00
96.0091 1417.00
96.3134 1414.00
96.6176 1392.00
96.9219 1365.00
97.2261 1202.00
97.5304 1209.00
97.8347 1121.00
98.1389 1242.00
98.4432 1246.00
98.7474 1347.00
99.0517 1326.00
99.356 1333.00
99.6602 1377.00
99.9645 1454.00
100.095 1302.00

File: NSC_15.xy
9.903433 2830.00
10.2077 2866.00
10.512 2799.00
10.8162 2573.00
11.1205 2531.00
11.4247 2382.00
11.729 2334.00
12.0333 2216.00
12.3375 2252.00
12.6418 2133.00
12.946 2010.00
13.2503 2050.00
13.5546 2053.00
13.8588 2039.00
14.1631 1961.00
14.4673 1978.00
14.7716 2065.00
15.0759 1855.00
15.3801 1811.00
15.6844 1862.00
15.9886 1746.00
16.2929 1847.00
16.5972 2526.00
16.9014 1878.00
17.2057 1717.00
17.5099 1825.00
17.8142 1709.00
18.1185 1688.00
18.4227 1545.00
18.727 1493.00
19.0312 1566.00
19.3355 2182.00
19.6398 1695.00
19.944 1598.00
20.2483 1563.00
20.5525 2065.00
20.8568 3729.00
21.1611 2508.00
21.4653 1670.00
21.7696 1493.00
22.0738 1762.00
22.3781 2297.00
22.6824 1531.00
22.9866 1516.00
23.2909 1538.00
23.5951 1643.00
23.8994 1931.00
24.2037 1684.00
24.5079 2001.00
24.8122 1338.00
25.1164 1220.00
25.4207 1266.00
25.725 1318.00
26.0292 1137.00
26.3335 1183.00
26.6378 1215.00
26.942 1650.00
27.2463 1288.00
27.5505 1410.00
27.8548 1847.00
28.1591 6567.00
28.4633 1849.00
28.7676 1292.00
29.0718 1220.00
29.3761 1234.00
29.6804 2370.00
29.9846 1212.00
30.2889 1217.00
30.5931 1982.00
30.8974 1813.00
31.2017 2101.00
31.5059 4065.00
31.8102 1344.00
32.1144 1433.00
32.4187 1081.00
32.723 1886.00
33.0272 2326.00
33.3315 1450.00
33.6357 1585.00
33.94 2255.00
34.2443 2335.00
34.5485 1445.00
34.8528 1130.00
35.157 1596.00
35.4613 1313.00
35.7656 1196.00
36.0698 1020.00
36.3741 942.00
36.6783 1088.00
36.9826 1139.00
37.2869 837.00
37.5911 975.00
37.8954 920.00
38.1996 954.00
38.5039 1030.00
38.8082 864.00
39.1124 737.00
39.4167 943.00
39.7209 973.00
40.0252 902.00
40.3295 899.00
40.6337 1370.00
40.938 1399.00
41.2422 1150.00
41.5465 1085.00
41.8508 802.00
42.155 796.00
42.4593 840.00
42.7635 878.00
43.0678 899.00
43.3721 921.00
43.6763 867.00
43.9806 922.00
44.2849 980.00
44.5891 1037.00
44.8934 1117.00
45.1976 934.00
45.5019 1234.00
45.8062 915.00
46.1104 765.00
46.4147 908.00
46.7189 857.00
47.0232 873.00
47.3275 804.00
47.6317 815.00
47.936 1078.00
48.2402 948.00
48.5445 923.00
48.8488 894.00
49.153 1462.00
49.4573 1097.00
49.7615 803.00
50.0658 1739.00
50.3701 1196.00
50.6743 1312.00
50.9786 815.00
51.2828 985.00
51.5871 745.00
51.8914 819.00
52.1956 754.00
52.4999 653.00
52.8041 798.00
53.1084 749.00
53.4127 772.00
53.7169 969.00
54.0212 1316.00
54.3254 845.00
54.6297 737.00
54.934 705.00
55.2382 1196.00
55.5425 1247.00
55.8467 1021.00
56.151 848.00
56.4553 788.00
56.7595 831.00
57.0638 1024.00
57.368 1048.00
57.6723 778.00
57.9766 901.00
58.2808 945.00
58.5851 879.00
58.8893 836.00
59.1936 737.00
59.4979 729.00
59.8021 1057.00
60.1064 1103.00
60.4106 833.00
60.7149 661.00
61.0192 686.00
61.3234 952.00
61.6277 778.00
61.932 928.00
62.2362 868.00
62.5405 801.00
62.8447 1036.00
63.149 710.00
63.4533 623.00
63.7575 600.00
64.0618 679.00
64.366 734.00
64.6703 583.00
64.9745 635.00
65.2788 670.00
65.5831 866.00
65.8873 837.00
66.1916 695.00
66.4959 607.00
66.8001 591.00
67.1044 584.00
67.4086 523.00
67.7129 544.00
68.0172 524.00
68.3214 534.00
68.6257 564.00
68.9299 641.00
69.2342 564.00
69.5385 564.00
69.8427 583.00
70.147 618.00
70.4512 580.00
70.7555 590.00
71.0598 693.00
71.364 724.00
71.6683 625.00
71.9725 668.00
72.2768 620.00
72.5811 590.00
72.8853 542.00
73.1896 486.00
73.4938 555.00
73.7981 515.00
74.1024 511.00
74.4066 554.00
74.7109 544.00
75.0151 577.00
75.3194 650.00
75.6237 497.00
75.9279 578.00
76.2322 580.00
76.5364 587.00
76.8407 534.00
77.145 556.00
77.4492 549.00
77.7535 537.00
78.0577 577.00
78.362 511.00
78.6663 520.00
78.9705 573.00
79.2748 540.00
79.579 551.00
79.8833 541.00
80.1876 527.00
80.4918 496.00
80.7961 473.00
81.1003 478.00
81.4046 564.00
81.7089 577.00
82.0131 574.00
82.3174 586.00
82.6217 610.00
82.9259 583.00
83.2302 550.00
83.5344 575.00
83.8387 635.00
84.143 593.00
84.4472 499.00
84.7515 515.00
85.0557 476.00
85.36 490.00
85.6643 498.00
85.9685 507.00
86.2728 485.00
86.577 530.00
86.8813 440.00
87.1856 505.00
87.4898 517.00
87.7941 590.00
88.0983 614.00
88.4026 580.00
88.7069 522.00
89.0111 502.00
89.3154 497.00
89.6196 492.00
89.9239 505.00
90.2282 516.00
90.5324 484.00
90.8367 513.00
91.1409 497.00
91.4452 502.00
91.7495 480.00
92.0537 440.00
92.358 500.00
92.6622 435.00
92.9665 477.00
93.2708 463.00
93.575 499.00
93.8793 536.00
94.1835 486.00
94.4878 457.00
94.7921 458.00
95.0963 564.00
95.4006 504.00
95.7048 515.00
96.0091 467.00
96.3134 533.00
96.6176 559.00
96.9219 620.00
97.2261 518.00
97.5304 450.00
97.8347 457.00
98.1389 494.00
98.4432 483.00
98.7474 513.00
99.0517 560.00
99.356 509.00
99.6602 519.00
99.9645 480.00
100.095 475.00

File: NSC_16.xy
9.903433 2823.00
10.2077 2679.00
10.512 2652.00
10.8162 2475.00
11.1205 2235.00
11.4247 2251.00
11.729 2212.00
12.0333 2014.00
12.3375 2031.00
12.6418 1912.00
12.946 1953.00
13.2503 1871.00
13.5546 1810.00
13.8588 1755.00
14.1631 1780.00
14.4673 1719.00
14.7716 1760.00
15.0759 1679.00
15.3801 1583.00
15.6844 1517.00
15.9886 1540.00
16.2929 1530.00
16.5972 1560.00
16.9014 1355.00
17.2057 1508.00
17.5099 1481.00
17.8142 1414.00
18.1185 1406.00
18.4227 1308.00
18.727 1299.00
19.0312 1214.00
19.3355 1716.00
19.6398 1251.00
19.944 1203.00
20.2483 1152.00
20.5525 1317.00
20.8568 1414.00
21.1611 1344.00
21.4653 1260.00
21.7696 1180.00
22.0738 1266.00
22.3781 1295.00
22.6824 1156.00
22.9866 1074.00
23.2909 1110.00
23.5951 1096.00
23.8994 1392.00
24.2037 1187.00
24.5079 1180.00
24.8122 978.00
25.1164 955.00
25.4207 1103.00
25.725 1059.00
26.0292 991.00
26.3335 948.00
26.6378 975.00
26.942 984.00
27.2463 938.00
27.5505 1095.00
27.8548 1268.00
28.1591 3314.00
28.4633 1127.00
28.7676 914.00
29.0718 909.00
29.3761 1043.00
29.6804 997.00
29.9846 1063.00
30.2889 999.00
30.5931 1156.00
30.8974 1177.00
31.2017 1254.00
31.5059 1795.00
31.8102 874.00
32.1144 847.00
32.4187 845.00
32.723 930.00
33.0272 939.00
33.3315 854.00
33.6357 970.00
33.94 1376.00
34.2443 1213.00
34.5485 881.00
34.8528 839.00
35.157 1185.00
35.4613 777.00
35.7656 759.00
36.0698 652.00
36.3741 673.00
36.6783 686.00
36.9826 634.00
37.2869 627.00
37.5911 614.00
37.8954 740.00
38.1996 604.00
38.5039 738.00
38.8082 653.00
39.1124 596.00
39.4167 603.00
39.7209 617.00
40.0252 626.00
40.3295 561.00
40.6337 897.00
40.938 717.00
41.2422 688.00
41.5465 696.00
41.8508 579.00
42.155 526.00
42.4593 583.00
42.7635 605.00
43.0678 598.00
43.3721 569.00
43.6763 544.00
43.9806 588.00
44.2849 577.00
44.5891 616.00
44.8934 672.00
45.1976 611.00
45.5019 751.00
45.8062 551.00
46.1104 567.00
46.4147 632.00
46.7189 586.00
47.0232 595.00
47.3275 516.00
47.6317 535.00
47.936 569.00
48.2402 631.00
48.5445 554.00
48.8488 566.00
49.153 826.00
49.4573 673.00
49.7615 527.00
50.0658 1028.00
50.3701 710.00
50.6743 691.00
50.9786 599.00
51.2828 564.00
51.5871 478.00
51.8914 465.00
52.1956 494.00
52.4999 514.00
52.8041 559.00
53.1084 519.00
53.4127 512.00
53.7169 563.00
54.0212 742.00
54.3254 551.00
54.6297 485.00
54.934 470.00
55.2382 679.00
55.5425 647.00
55.8467 589.00
56.151 502.00
56.4553 449.00
56.7595 518.00
57.0638 561.00
57.368 673.00
57.6723 499.00
57.9766 521.00
58.2808 565.00
58.5851 479.00
58.8893 496.00
59.1936 471.00
59.4979 498.00
59.8021 638.00
60.1064 586.00
60.4106 482.00
60.7149 479.00
61.0192 478.00
61.3234 501.00
61.6277 434.00
61.932 519.00
62.2362 471.00
62.5405 509.00
62.8447 574.00
63.149 393.00
63.4533 422.00
63.7575 412.00
64.0618 465.00
64.366 428.00
64.6703 400.00
64.9745 412.00
65.2788 456.00
65.5831 569.00
65.8873 515.00
66.1916 377.00
66.4959 391.00
66.8001 391.00
67.1044 352.00
67.4086 383.00
67.7129 371.00
68.0172 409.00
68.3214 362.00
68.6257 380.00
68.9299 400.00
69.2342 429.00
69.5385 354.00
69.8427 374.00
70.147 414.00
70.4512 388.00
70.7555 366.00
71.0598 517.00
71.364 447.00
71.6683 368.00
71.9725 395.00
72.2768 407.00
72.5811 412.00
72.8853 358.00
73.1896 368.00
73.4938 382.00
73.7981 366.00
74.1024 374.00
74.4066 393.00
74.7109 401.00
75.0151 408.00
75.3194 443.00
75.6237 357.00
75.9279 356.00
76.2322 381.00
76.5364 420.00
76.8407 454.00
77.145 411.00
77.4492 422.00
77.7535 340.00
78.0577 370.00
78.362 351.00
78.6663 383.00
78.9705 402.00
79.2748 379.00
79.579 360.00
79.8833 389.00
80.1876 395.00
80.4918 366.00
80.7961 351.00
81.1003 342.00
81.4046 430.00
81.7089 397.00
82.0131 388.00
82.3174 399.00
82.6217 393.00
82.9259 401.00
83.2302 438.00
83.5344 388.00
83.8387 416.00
84.143 396.00
84.4472 359.00
84.7515 400.00
85.0557 387.00
85.36 346.00
85.6643 364.00
85.9685 370.00
86.2728 360.00
86.577 412.00
86.8813 344.00
87.1856 356.00
87.4898 417.00
87.7941 385.00
88.0983 418.00
88.4026 421.00
88.7069 389.00
89.0111 365.00
89.3154 341.00
89.6196 409.00
89.9239 361.00
90.2282 377.00
90.5324 335.00
90.8367 337.00
91.1409 368.00
91.4452 353.00
91.7495 330.00
92.0537 317.00
92.358 320.00
92.6622 340.00
92.9665 372.00
93.2708 357.00
93.575 327.00
93.8793 335.00
94.1835 338.00
94.4878 330.00
94.7921 344.00
95.0963 386.00
95.4006 369.00
95.7048 341.00
96.0091 359.00
96.3134 400.00
96.6176 403.00
96.9219 378.00
97.2261 347.00
97.5304 321.00
97.8347 341.00
98.1389 348.00
98.4432 378.00
98.7474 391.00
99.0517 341.00
99.356 371.00
99.6602 395.00
99.9645 337.00
100.095 326.00