Folder: alab-pipeline/data/xrd_creation/results (part 111)

File: PG_2735-1.xy
9.903433 3115.00
10.2077 3125.00
10.512 2999.00
10.8162 2876.00
11.1205 2774.00
11.4247 2805.00
11.729 2791.00
12.0333 2734.00
12.3375 2636.00
12.6418 2604.00
12.946 2475.00
13.2503 2581.00
13.5546 2506.00
13.8588 2445.00
14.1631 2397.00
14.4673 2442.00
14.7716 2423.00
15.0759 2455.00
15.3801 2691.00
15.6844 3186.00
15.9886 4376.00
16.2929 2864.00
16.5972 2512.00
16.9014 2454.00
17.2057 2380.00
17.5099 2367.00
17.8142 2412.00
18.1185 2259.00
18.4227 2199.00
18.727 2183.00
19.0312 2179.00
19.3355 2241.00
19.6398 2259.00
19.944 2164.00
20.2483 2202.00
20.5525 2226.00
20.8568 2248.00
21.1611 2192.00
21.4653 2208.00
21.7696 2293.00
22.0738 2209.00
22.3781 2092.00
22.6824 2153.00
22.9866 2184.00
23.2909 2205.00
23.5951 2092.00
23.8994 2097.00
24.2037 2046.00
24.5079 2157.00
24.8122 2108.00
25.1164 2137.00
25.4207 2085.00
25.725 2099.00
26.0292 2112.00
26.3335 2033.00
26.6378 2084.00
26.942 2097.00
27.2463 2112.00
27.5505 2082.00
27.8548 2006.00
28.1591 2020.00
28.4633 1993.00
28.7676 2004.00
29.0718 2008.00
29.3761 1947.00
29.6804 1954.00
29.9846 1956.00
30.2889 1996.00
30.5931 1993.00
30.8974 1971.00
31.2017 2149.00
31.5059 2081.00
31.8102 2163.00
32.1144 2305.00
32.4187 2313.00
32.723 2052.00
33.0272 1983.00
33.3315 2062.00
33.6357 2029.00
33.94 1860.00
34.2443 2078.00
34.5485 1869.00
34.8528 1927.00
35.157 2041.00
35.4613 1880.00
35.7656 1988.00
36.0698 1859.00
36.3741 2004.00
36.6783 2177.00
36.9826 2186.00
37.2869 2201.00
37.5911 2215.00
37.8954 2300.00
38.1996 2144.00
38.5039 1974.00
38.8082 2021.00
39.1124 2034.00
39.4167 1973.00
39.7209 1955.00
40.0252 1982.00
40.3295 1962.00
40.6337 1911.00
40.938 1897.00
41.2422 1924.00
41.5465 1953.00
41.8508 1938.00
42.155 1863.00
42.4593 1895.00
42.7635 1997.00
43.0678 1993.00
43.3721 1955.00
43.6763 1967.00
43.9806 2029.00
44.2849 1999.00
44.5891 2064.00
44.8934 2009.00
45.1976 2060.00
45.5019 2013.00
45.8062 2044.00
46.1104 1950.00
46.4147 1955.00
46.7189 1970.00
47.0232 1962.00
47.3275 1947.00
47.6317 1857.00
47.936 1887.00
48.2402 1886.00
48.5445 1952.00
48.8488 1872.00
49.153 1853.00
49.4573 1902.00
49.7615 1876.00
50.0658 1892.00
50.3701 1791.00
50.6743 1845.00
50.9786 1855.00
51.2828 1854.00
51.5871 1838.00
51.8914 1868.00
52.1956 1851.00
52.4999 1827.00
52.8041 1824.00
53.1084 1763.00
53.4127 1818.00
53.7169 1810.00
54.0212 1849.00
54.3254 1889.00
54.6297 1873.00
54.934 1885.00
55.2382 1905.00
55.5425 1874.00
55.8467 1915.00
56.151 1919.00
56.4553 1876.00
56.7595 1984.00
57.0638 1925.00
57.368 1916.00
57.6723 1890.00
57.9766 1838.00
58.2808 1774.00
58.5851 1869.00
58.8893 1926.00
59.1936 1795.00
59.4979 1782.00
59.8021 1810.00
60.1064 1804.00
60.4106 1830.00
60.7149 1756.00
61.0192 1749.00
61.3234 1875.00
61.6277 1777.00
61.932 1840.00
62.2362 1818.00
62.5405 1864.00
62.8447 1849.00
63.149 1861.00
63.4533 1855.00
63.7575 1845.00
64.0618 1867.00
64.366 1770.00
64.6703 1744.00
64.9745 1829.00
65.2788 1886.00
65.5831 2134.00
65.8873 2001.00
66.1916 1894.00
66.4959 1812.00
66.8001 1838.00
67.1044 1802.00
67.4086 1865.00
67.7129 1966.00
68.0172 1749.00
68.3214 1868.00
68.6257 1828.00
68.9299 1799.00
69.2342 1892.00
69.5385 1929.00
69.8427 1795.00
70.147 1861.00
70.4512 1831.00
70.7555 1789.00
71.0598 1809.00
71.364 1733.00
71.6683 1862.00
71.9725 1748.00
72.2768 1856.00
72.5811 1786.00
72.8853 1778.00
73.1896 1758.00
73.4938 1744.00
73.7981 1837.00
74.1024 1754.00
74.4066 1726.00
74.7109 1763.00
75.0151 1785.00
75.3194 1794.00
75.6237 1679.00
75.9279 1786.00
76.2322 1846.00
76.5364 1783.00
76.8407 1765.00
77.145 1861.00
77.4492 1846.00
77.7535 1784.00
78.0577 1785.00
78.362 1801.00
78.6663 1786.00
78.9705 1793.00
79.2748 1704.00
79.579 1819.00
79.8833 1789.00
80.1876 1855.00
80.4918 1787.00
80.7961 1829.00
81.1003 1805.00
81.4046 1674.00
81.7089 1706.00
82.0131 1798.00
82.3174 1765.00
82.6217 1835.00
82.9259 1790.00
83.2302 1841.00
83.5344 1677.00
83.8387 1784.00
84.143 1729.00
84.4472 1809.00
84.7515 1743.00
85.0557 1755.00
85.36 1851.00
85.6643 1813.00
85.9685 1746.00
86.2728 1731.00
86.577 1875.00
86.8813 1830.00
87.1856 1665.00
87.4898 1846.00
87.7941 1787.00
88.0983 1758.00
88.4026 1664.00
88.7069 1689.00
89.0111 1702.00
89.3154 1744.00
89.6196 1753.00
89.9239 1765.00
90.2282 1818.00
90.5324 1749.00
90.8367 1756.00
91.1409 1760.00
91.4452 1670.00
91.7495 1759.00
92.0537 1812.00
92.358 1748.00
92.6622 1804.00
92.9665 1756.00
93.2708 1786.00
93.575 1802.00
93.8793 1744.00
94.1835 1748.00
94.4878 1782.00
94.7921 1729.00
95.0963 1702.00
95.4006 1762.00
95.7048 1796.00
96.0091 1780.00
96.3134 1813.00
96.6176 1861.00
96.9219 1768.00
97.2261 1750.00
97.5304 1789.00
97.8347 1831.00
98.1389 1768.00
98.4432 1816.00
98.7474 1805.00
99.0517 1767.00
99.356 1757.00
99.6602 1809.00
99.9645 1740.00
100.095 1680.00

File: PG_2738-1.xy
10.0094 2634.00
10.3137 2439.00
10.618 2390.00
10.9222 2370.00
11.2265 2330.00
11.5307 2301.00
11.835 2169.00
12.1393 2098.00
12.4435 2306.00
12.7478 2037.00
13.052 2056.00
13.3563 2045.00
13.6606 1997.00
13.9648 1958.00
14.2691 1903.00
14.5733 1878.00
14.8776 1908.00
15.1819 1915.00
15.4861 1924.00
15.7904 1979.00
16.0946 1875.00
16.3989 1872.00
16.7032 1811.00
17.0074 1859.00
17.3117 1853.00
17.6159 1803.00
17.9202 1770.00
18.2245 1724.00
18.5287 1619.00
18.833 1700.00
19.1372 1722.00
19.4415 1708.00
19.7458 1646.00
20.05 1603.00
20.3543 1656.00
20.6585 1626.00
20.9628 1602.00
21.2671 1578.00
21.5713 1613.00
21.8756 1629.00
22.1798 1600.00
22.4841 1568.00
22.7884 1654.00
23.0926 1563.00
23.3969 1714.00
23.7011 1594.00
24.0054 1702.00
24.3097 4144.00
24.6139 1653.00
24.9182 1865.00
25.2224 1516.00
25.5267 1461.00
25.831 1413.00
26.1352 1542.00
26.4395 1474.00
26.7438 1476.00
27.048 1445.00
27.3523 1534.00
27.6565 1407.00
27.9608 1433.00
28.2651 1416.00
28.5693 1513.00
28.8736 1418.00
29.1778 1518.00
29.4821 1457.00
29.7864 1726.00
30.0906 10975.00
30.3949 1819.00
30.6991 1443.00
31.0034 1548.00
31.3077 2278.00
31.6119 1397.00
31.9162 1396.00
32.2204 1250.00
32.5247 1538.00
32.829 1406.00
33.1332 2545.00
33.4375 1533.00
33.7417 1343.00
34.046 1323.00
34.3503 1290.00
34.6545 1334.00
34.9588 1362.00
35.263 1376.00
35.5673 2651.00
35.8716 1668.00
36.1758 1789.00
36.4801 1375.00
36.7843 1352.00
37.0886 1346.00
37.3929 1399.00
37.6971 1684.00
38.0014 1324.00
38.3056 1402.00
38.6099 1296.00
38.9142 1357.00
39.2184 1275.00
39.5227 1332.00
39.8269 1224.00
40.1312 1309.00
40.4355 1518.00
40.7397 1900.00
41.044 1301.00
41.3482 1277.00
41.6525 1250.00
41.9568 1288.00
42.261 1206.00
42.5653 1198.00
42.8695 1270.00
43.1738 1353.00
43.4781 1805.00
43.7823 1316.00
44.0866 1276.00
44.3909 1261.00
44.6951 1315.00
44.9994 1219.00
45.3036 1380.00
45.6079 1256.00
45.9122 1244.00
46.2164 1319.00
46.5207 1243.00
46.8249 1217.00
47.1292 1276.00
47.4335 1286.00
47.7377 1450.00
48.042 1703.00
48.3462 1231.00
48.6505 1170.00
48.9548 1235.00
49.259 1324.00
49.5633 2242.00
49.8675 1233.00
50.1718 1256.00
50.4761 1412.00
50.7803 1273.00
51.0846 1316.00
51.3888 2728.00
51.6931 1272.00
51.9974 1271.00
52.3016 1374.00
52.6059 2849.00
52.9101 3801.00
53.2144 1352.00
53.5187 1286.00
53.8229 1299.00
54.1272 1321.00
54.4314 1292.00
54.7357 1506.00
55.04 1296.00
55.3442 1691.00
55.6485 1361.00
55.9527 1162.00
56.257 1298.00
56.5613 1216.00
56.8655 1308.00
57.1698 1388.00
57.474 1214.00
57.7783 1216.00
58.0826 1338.00
58.3868 1306.00
58.6911 1308.00
58.9953 1292.00
59.2996 1252.00
59.6039 1311.00
59.9081 1401.00
60.2124 3000.00
60.5166 1401.00
60.8209 1373.00
61.1252 1253.00
61.4294 1281.00
61.7337 1236.00
62.0379 1291.00
62.3422 1713.00
62.6465 1295.00
62.9507 2210.00
63.255 1756.00
63.5592 1455.00
63.8635 3724.00
64.1678 1565.00
64.472 1343.00
64.7763 1425.00
65.0806 1349.00
65.3848 1313.00
65.6891 1278.00
65.9933 1522.00
66.2976 1351.00
66.6019 1391.00
66.9061 1278.00
67.2104 1296.00
67.5146 1485.00
67.8189 1593.00
68.1232 1270.00
68.4274 1295.00
68.7317 1311.00
69.0359 1301.00
69.3402 1322.00
69.6445 1387.00
69.9487 1347.00
70.253 1299.00
70.5572 1267.00
70.8615 1254.00
71.1658 1357.00
71.47 1319.00
71.7743 1397.00
72.0785 1270.00
72.3828 1329.00
72.6871 1233.00
72.9913 1243.00
73.2956 1297.00
73.5998 1273.00
73.9041 1345.00
74.2084 1377.00
74.5126 1343.00
74.8169 1395.00
75.1211 1256.00
75.4254 1292.00
75.7297 1302.00
76.0339 1334.00
76.3382 1529.00
76.6424 1363.00
76.9467 1240.00
77.251 1369.00
77.5552 1605.00
77.8595 1523.00
78.1637 1266.00
78.468 1322.00
78.7723 1315.00
79.0765 1275.00
79.3808 1320.00
79.685 1339.00
79.9893 2074.00
80.2936 1541.00
80.5978 1376.00
80.9021 1257.00
81.2063 1351.00
81.5106 1293.00
81.8149 1309.00
82.1191 1318.00
82.4234 1281.00
82.7277 1276.00
83.0319 1354.00
83.3362 1417.00
83.6404 1334.00
83.9447 1297.00
84.249 1301.00
84.5532 1397.00
84.8575 1341.00
85.1617 1462.00
85.466 1255.00
85.7703 1257.00
86.0745 1389.00
86.3788 1324.00
86.683 1746.00
86.9873 1770.00
87.2916 1437.00
87.5958 1398.00
87.9001 1412.00
88.2043 1799.00
88.5086 1644.00
88.8129 1343.00
89.1171 1431.00
89.4214 1525.00
89.7256 1387.00
90.0299 1344.00
90.3342 1481.00
90.6384 1644.00
90.9427 1527.00
91.2469 1442.00
91.5512 1375.00
91.8555 1328.00
92.1597 1281.00
92.464 1362.00
92.7682 1369.00
93.0725 1343.00
93.3768 1366.00
93.681 1305.00
93.9853 1375.00
94.2895 1296.00
94.5938 1323.00
94.8981 1633.00
95.2023 1422.00
95.5066 1331.00
95.8108 1409.00
96.1151 1351.00
96.4194 1489.00
96.7236 1440.00
97.0279 1348.00
97.3321 1460.00
97.6364 1423.00
97.9407 1434.00
98.2449 1364.00
98.5492 1546.00
98.8534 1443.00
99.1577 1408.00
99.462 1305.00
99.7662 1340.00
99.9944 1274.00

File: PG_2740-1.xy
9.903433 2459.00
10.2077 2401.00
10.512 2296.00
10.8162 2201.00
11.1205 2171.00
11.4247 2145.00
11.729 2094.00
12.0333 1975.00
12.3375 1902.00
12.6418 1907.00
12.946 1817.00
13.2503 1719.00
13.5546 1743.00
13.8588 1677.00
14.1631 1749.00
14.4673 2358.00
14.7716 1663.00
15.0759 1647.00
15.3801 1581.00
15.6844 1622.00
15.9886 1492.00
16.2929 1506.00
16.5972 1468.00
16.9014 1509.00
17.2057 1414.00
17.5099 1492.00
17.8142 1403.00
18.1185 1492.00
18.4227 1522.00
18.727 1377.00
19.0312 1343.00
19.3355 1350.00
19.6398 1318.00
19.944 1333.00
20.2483 1278.00
20.5525 1312.00
20.8568 1350.00
21.1611 1260.00
21.4653 1248.00
21.7696 1305.00
22.0738 1245.00
22.3781 1214.00
22.6824 1313.00
22.9866 1140.00
23.2909 1222.00
23.5951 1227.00
23.8994 1178.00
24.2037 1222.00
24.5079 1311.00
24.8122 1185.00
25.1164 1202.00
25.4207 1194.00
25.725 1210.00
26.0292 1359.00
26.3335 2124.00
26.6378 10813.00
26.942 2416.00
27.2463 1445.00
27.5505 1690.00
27.8548 1327.00
28.1591 1337.00
28.4633 1454.00
28.7676 1695.00
29.0718 2014.00
29.3761 1676.00
29.6804 1314.00
29.9846 1222.00
30.2889 1327.00
30.5931 1416.00
30.8974 1923.00
31.2017 2870.00
31.5059 1394.00
31.8102 1461.00
32.1144 2436.00
32.4187 5195.00
32.723 2404.00
33.0272 1468.00
33.3315 1204.00
33.6357 1174.00
33.94 1234.00
34.2443 2984.00
34.5485 1708.00
34.8528 1140.00
35.157 1154.00
35.4613 1062.00
35.7656 1030.00
36.0698 1128.00
36.3741 2153.00
36.6783 1255.00
36.9826 1224.00
37.2869 1054.00
37.5911 999.00
37.8954 1051.00
38.1996 1142.00
38.5039 1047.00
38.8082 971.00
39.1124 1003.00
39.4167 1056.00
39.7209 1353.00
40.0252 1104.00
40.3295 1122.00
40.6337 959.00
40.938 1001.00
41.2422 994.00
41.5465 988.00
41.8508 945.00
42.155 1027.00
42.4593 1060.00
42.7635 1027.00
43.0678 987.00
43.3721 951.00
43.6763 1031.00
43.9806 1057.00
44.2849 1097.00
44.5891 1382.00
44.8934 1739.00
45.1976 1190.00
45.5019 1103.00
45.8062 1032.00
46.1104 1327.00
46.4147 1752.00
46.7189 1248.00
47.0232 1035.00
47.3275 1130.00
47.6317 1589.00
47.936 2214.00
48.2402 1105.00
48.5445 1083.00
48.8488 1090.00
49.153 1027.00
49.4573 1197.00
49.7615 1444.00
50.0658 2452.00
50.3701 1709.00
50.6743 1242.00
50.9786 1405.00
51.2828 1127.00
51.5871 1080.00
51.8914 1134.00
52.1956 1687.00
52.4999 3336.00
52.8041 1142.00
53.1084 1115.00
53.4127 1148.00
53.7169 1072.00
54.0212 1169.00
54.3254 1148.00
54.6297 1134.00
54.934 1086.00
55.2382 1060.00
55.5425 1068.00
55.8467 1047.00
56.151 1386.00
56.4553 1471.00
56.7595 1136.00
57.0638 949.00
57.368 1036.00
57.6723 1135.00
57.9766 1255.00
58.2808 1765.00
58.5851 1464.00
58.8893 1415.00
59.1936 1094.00
59.4979 1675.00
59.8021 1264.00
60.1064 1622.00
60.4106 1407.00
60.7149 1630.00
61.0192 1324.00
61.3234 1216.00
61.6277 1165.00
61.932 1020.00
62.2362 961.00
62.5405 980.00
62.8447 1033.00
63.149 1080.00
63.4533 1244.00
63.7575 1158.00
64.0618 1052.00
64.366 1299.00
64.6703 1014.00
64.9745 1153.00
65.2788 983.00
65.5831 1016.00
65.8873 1105.00
66.1916 1747.00
66.4959 1609.00
66.8001 1070.00
67.1044 949.00
67.4086 959.00
67.7129 966.00
68.0172 1002.00
68.3214 992.00
68.6257 1029.00
68.9299 976.00
69.2342 929.00
69.5385 938.00
69.8427 1102.00
70.147 1220.00
70.4512 988.00
70.7555 903.00
71.0598 920.00
71.364 964.00
71.6683 930.00
71.9725 1052.00
72.2768 1299.00
72.5811 1124.00
72.8853 997.00
73.1896 953.00
73.4938 985.00
73.7981 1038.00
74.1024 1132.00
74.4066 1086.00
74.7109 1000.00
75.0151 962.00
75.3194 1111.00
75.6237 1232.00
75.9279 1069.00
76.2322 997.00
76.5364 1210.00
76.8407 1282.00
77.145 961.00
77.4492 980.00
77.7535 957.00
78.0577 897.00
78.362 968.00
78.6663 925.00
78.9705 927.00
79.2748 960.00
79.579 902.00
79.8833 1007.00
80.1876 1008.00
80.4918 1014.00
80.7961 1084.00
81.1003 1016.00
81.4046 1034.00
81.7089 1000.00
82.0131 1009.00
82.3174 983.00
82.6217 1092.00
82.9259 1241.00
83.2302 1341.00
83.5344 1246.00
83.8387 1266.00
84.143 1065.00
84.4472 1197.00
84.7515 1397.00
85.0557 1257.00
85.36 1048.00
85.6643 1061.00
85.9685 1053.00
86.2728 1191.00
86.577 1032.00
86.8813 1086.00
87.1856 1066.00
87.4898 1001.00
87.7941 1067.00
88.0983 1127.00
88.4026 1037.00
88.7069 947.00
89.0111 1014.00
89.3154 1045.00
89.6196 1151.00
89.9239 1143.00
90.2282 1087.00
90.5324 1075.00
90.8367 1072.00
91.1409 1042.00
91.4452 1205.00
91.7495 1117.00
92.0537 1058.00
92.358 984.00
92.6622 999.00
92.9665 1060.00
93.2708 1107.00
93.575 1000.00
93.8793 982.00
94.1835 985.00
94.4878 918.00
94.7921 906.00
95.0963 937.00
95.4006 932.00
95.7048 920.00
96.0091 990.00
96.3134 980.00
96.6176 1037.00
96.9219 1000.00
97.2261 1067.00
97.5304 1066.00
97.8347 1097.00
98.1389 1049.00
98.4432 1041.00
98.7474 1107.00
99.0517 961.00
99.356 935.00
99.6602 945.00
99.9645 977.00
100.095 940.00

File: PG_2741-1.xy
9.903433 2771.00
10.2077 2692.00
10.512 2615.00
10.8162 2522.00
11.1205 2494.00
11.4247 2377.00
11.729 2322.00
12.0333 2224.00
12.3375 2130.00
12.6418 2084.00
12.946 2023.00
13.2503 2002.00
13.5546 2109.00
13.8588 2454.00
14.1631 2523.00
14.4673 1912.00
14.7716 1777.00
15.0759 1824.00
15.3801 1899.00
15.6844 1793.00
15.9886 1754.00
16.2929 1758.00
16.5972 1825.00
16.9014 1780.00
17.2057 1628.00
17.5099 1726.00
17.8142 1641.00
18.1185 1744.00
18.4227 1855.00
18.727 1587.00
19.0312 1579.00
19.3355 1612.00
19.6398 1613.00
19.944 1615.00
20.2483 1539.00
20.5525 1511.00
20.8568 1493.00
21.1611 1481.00
21.4653 1555.00
21.7696 1527.00
22.0738 1486.00
22.3781 1456.00
22.6824 1342.00
22.9866 1399.00
23.2909 1405.00
23.5951 1350.00
23.8994 1336.00
24.2037 1355.00
24.5079 1311.00
24.8122 1269.00
25.1164 1385.00
25.4207 1309.00
25.725 1442.00
26.0292 1339.00
26.3335 1315.00
26.6378 1358.00
26.942 1371.00
27.2463 1512.00
27.5505 1745.00
27.8548 6573.00
28.1591 4378.00
28.4633 1621.00
28.7676 1972.00
29.0718 1714.00
29.3761 1480.00
29.6804 1281.00
29.9846 1247.00
30.2889 1269.00
30.5931 1307.00
30.8974 1230.00
31.2017 1405.00
31.5059 1336.00
31.8102 1296.00
32.1144 1514.00
32.4187 12633.00
32.723 2635.00
33.0272 1350.00
33.3315 1206.00
33.6357 1167.00
33.94 1119.00
34.2443 1192.00
34.5485 1160.00
34.8528 1160.00
35.157 1287.00
35.4613 2578.00
35.7656 1131.00
36.0698 1269.00
36.3741 3528.00
36.6783 1392.00
36.9826 1273.00
37.2869 1080.00
37.5911 1099.00
37.8954 1048.00
38.1996 1361.00
38.5039 1124.00
38.8082 1024.00
39.1124 1012.00
39.4167 1000.00
39.7209 1104.00
40.0252 1066.00
40.3295 1025.00
40.6337 1025.00
40.938 1057.00
41.2422 963.00
41.5465 936.00
41.8508 975.00
42.155 951.00
42.4593 1464.00
42.7635 990.00
43.0678 1018.00
43.3721 976.00
43.6763 984.00
43.9806 939.00
44.2849 966.00
44.5891 1124.00
44.8934 1274.00
45.1976 980.00
45.5019 1014.00
45.8062 1098.00
46.1104 1708.00
46.4147 7812.00
46.7189 1194.00
47.0232 991.00
47.3275 1132.00
47.6317 925.00
47.936 932.00
48.2402 945.00
48.5445 1414.00
48.8488 951.00
49.153 971.00
49.4573 911.00
49.7615 883.00
50.0658 1116.00
50.3701 1061.00
50.6743 991.00
50.9786 1612.00
51.2828 1002.00
51.5871 936.00
51.8914 958.00
52.1956 901.00
52.4999 888.00
52.8041 940.00
53.1084 925.00
53.4127 949.00
53.7169 958.00
54.0212 978.00
54.3254 1260.00
54.6297 1603.00
54.934 6097.00
55.2382 1202.00
55.5425 965.00
55.8467 929.00
56.151 1036.00
56.4553 1148.00
56.7595 995.00
57.0638 1030.00
57.368 1715.00
57.6723 1782.00
57.9766 984.00
58.2808 943.00
58.5851 1006.00
58.8893 1440.00
59.1936 1030.00
59.4979 1771.00
59.8021 983.00
60.1064 2170.00
60.4106 1101.00
60.7149 926.00
61.0192 886.00
61.3234 941.00
61.6277 923.00
61.932 849.00
62.2362 886.00
62.5405 865.00
62.8447 846.00
63.149 895.00
63.4533 933.00
63.7575 851.00
64.0618 901.00
64.366 2057.00
64.6703 1000.00
64.9745 1393.00
65.2788 896.00
65.5831 857.00
65.8873 880.00
66.1916 871.00
66.4959 892.00
66.8001 808.00
67.1044 912.00
67.4086 1779.00
67.7129 968.00
68.0172 927.00
68.3214 893.00
68.6257 893.00
68.9299 925.00
69.2342 1211.00
69.5385 951.00
69.8427 959.00
70.147 905.00
70.4512 791.00
70.7555 864.00
71.0598 918.00
71.364 888.00
71.6683 880.00
71.9725 1047.00
72.2768 910.00
72.5811 869.00
72.8853 860.00
73.1896 884.00
73.4938 889.00
73.7981 1068.00
74.1024 1120.00
74.4066 1995.00
74.7109 1094.00
75.0151 925.00
75.3194 855.00
75.6237 918.00
75.9279 840.00
76.2322 966.00
76.5364 3124.00
76.8407 1769.00
77.145 926.00
77.4492 913.00
77.7535 922.00
78.0577 969.00
78.362 1011.00
78.6663 965.00
78.9705 816.00
79.2748 838.00
79.579 838.00
79.8833 852.00
80.1876 913.00
80.4918 908.00
80.7961 911.00
81.1003 878.00
81.4046 941.00
81.7089 900.00
82.0131 870.00
82.3174 845.00
82.6217 1032.00
82.9259 1075.00
83.2302 927.00
83.5344 819.00
83.8387 827.00
84.143 881.00
84.4472 814.00
84.7515 823.00
85.0557 948.00
85.36 1579.00
85.6643 1637.00
85.9685 861.00
86.2728 866.00
86.577 887.00
86.8813 945.00
87.1856 912.00
87.4898 856.00
87.7941 823.00
88.0983 810.00
88.4026 792.00
88.7069 879.00
89.0111 869.00
89.3154 871.00
89.6196 871.00
89.9239 847.00
90.2282 850.00
90.5324 857.00
90.8367 897.00
91.1409 1005.00
91.4452 2061.00
91.7495 1460.00
92.0537 1556.00
92.358 1206.00
92.6622 893.00
92.9665 905.00
93.2708 883.00
93.575 880.00
93.8793 866.00
94.1835 809.00
94.4878 835.00
94.7921 833.00
95.0963 875.00
95.4006 859.00
95.7048 935.00
96.0091 884.00
96.3134 894.00
96.6176 874.00
96.9219 879.00
97.2261 901.00
97.5304 845.00
97.8347 852.00
98.1389 862.00
98.4432 955.00
98.7474 921.00
99.0517 816.00
99.356 850.00
99.6602 841.00
99.9645 843.00
100.095 927.00

File: PG_2743-1.xy
9.903433 3896.00
10.2077 4034.00
10.512 3814.00
10.8162 3855.00
11.1205 3807.00
11.4247 3819.00
11.729 3749.00
12.0333 3640.00
12.3375 3732.00
12.6418 3602.00
12.946 3635.00
13.2503 3739.00
13.5546 3599.00
13.8588 3526.00
14.1631 3648.00
14.4673 3548.00
14.7716 3641.00
15.0759 3587.00
15.3801 3543.00
15.6844 3606.00
15.9886 3659.00
16.2929 3716.00
16.5972 3745.00
16.9014 3594.00
17.2057 3584.00
17.5099 3622.00
17.8142 3489.00
18.1185 3604.00
18.4227 3727.00
18.727 3580.00
19.0312 3672.00
19.3355 3648.00
19.6398 3638.00
19.944 3763.00
20.2483 3679.00
20.5525 3685.00
20.8568 3529.00
21.1611 3667.00
21.4653 3718.00
21.7696 3826.00
22.0738 3724.00
22.3781 3682.00
22.6824 3650.00
22.9866 3549.00
23.2909 4247.00
23.5951 3742.00
23.8994 3629.00
24.2037 3483.00
24.5079 3352.00
24.8122 3500.00
25.1164 3581.00
25.4207 3363.00
25.725 3537.00
26.0292 3269.00
26.3335 3299.00
26.6378 3308.00
26.942 3263.00
27.2463 3402.00
27.5505 3266.00
27.8548 3285.00
28.1591 3222.00
28.4633 3243.00
28.7676 3259.00
29.0718 3210.00
29.3761 3217.00
29.6804 3207.00
29.9846 3200.00
30.2889 3134.00
30.5931 3149.00
30.8974 3183.00
31.2017 3081.00
31.5059 3116.00
31.8102 3105.00
32.1144 3161.00
32.4187 3208.00
32.723 3543.00
33.0272 4422.00
33.3315 13220.00
33.6357 3324.00
33.94 3105.00
34.2443 3068.00
34.5485 3085.00
34.8528 3048.00
35.157 3109.00
35.4613 3087.00
35.7656 3063.00
36.0698 3123.00
36.3741 3648.00
36.6783 3067.00
36.9826 3006.00
37.2869 2952.00
37.5911 3033.00
37.8954 2972.00
38.1996 3122.00
38.5039 5759.00
38.8082 3238.00
39.1124 2927.00
39.4167 2878.00
39.7209 2960.00
40.0252 2939.00
40.3295 2865.00
40.6337 2867.00
40.938 3076.00
41.2422 2964.00
41.5465 2799.00
41.8508 2988.00
42.155 2964.00
42.4593 3057.00
42.7635 3007.00
43.0678 2882.00
43.3721 2890.00
43.6763 2843.00
43.9806 2845.00
44.2849 2819.00
44.5891 2967.00
44.8934 2844.00
45.1976 2908.00
45.5019 3631.00
45.8062 2952.00
46.1104 2844.00
46.4147 2873.00
46.7189 2783.00
47.0232 3008.00
47.3275 2843.00
47.6317 2883.00
47.936 2766.00
48.2402 2838.00
48.5445 2908.00
48.8488 2918.00
49.153 2920.00
49.4573 3092.00
49.7615 3462.00
50.0658 2949.00
50.3701 2843.00
50.6743 2839.00
50.9786 2975.00
51.2828 2770.00
51.5871 2771.00
51.8914 2716.00
52.1956 2815.00
52.4999 2982.00
52.8041 2736.00
53.1084 2869.00
53.4127 2779.00
53.7169 2901.00
54.0212 2782.00
54.3254 2896.00
54.6297 2900.00
54.934 2910.00
55.2382 3460.00
55.5425 6548.00
55.8467 3052.00
56.151 2864.00
56.4553 2767.00
56.7595 2815.00
57.0638 2786.00
57.368 2979.00
57.6723 2726.00
57.9766 2828.00
58.2808 2881.00
58.5851 2777.00
58.8893 2938.00
59.1936 2878.00
59.4979 2810.00
59.8021 2865.00
60.1064 3198.00
60.4106 2796.00
60.7149 3001.00
61.0192 2946.00
61.3234 2766.00
61.6277 2797.00
61.932 2798.00
62.2362 2764.00
62.5405 2852.00
62.8447 2811.00
63.149 2813.00
63.4533 2905.00
63.7575 2803.00
64.0618 2842.00
64.366 3276.00
64.6703 2892.00
64.9745 2848.00
65.2788 2865.00
65.5831 2957.00
65.8873 3923.00
66.1916 4240.00
66.4959 2966.00
66.8001 2833.00
67.1044 2765.00
67.4086 2852.00
67.7129 3304.00
68.0172 2792.00
68.3214 2753.00
68.6257 2866.00
68.9299 2752.00
69.2342 2914.00
69.5385 2994.00
69.8427 2709.00
70.147 2761.00
70.4512 2728.00
70.7555 2770.00
71.0598 2664.00
71.364 2779.00
71.6683 2821.00
71.9725 2786.00
72.2768 2696.00
72.5811 2872.00
72.8853 2846.00
73.1896 2757.00
73.4938 2784.00
73.7981 2711.00
74.1024 2962.00
74.4066 2877.00
74.7109 2695.00
75.0151 2778.00
75.3194 2759.00
75.6237 2758.00
75.9279 2802.00
76.2322 2759.00
76.5364 2801.00
76.8407 2705.00
77.145 2776.00
77.4492 2685.00
77.7535 2801.00
78.0577 2852.00
78.362 2725.00
78.6663 2776.00
78.9705 2687.00
79.2748 2743.00
79.579 2679.00
79.8833 2747.00
80.1876 2776.00
80.4918 2879.00
80.7961 2729.00
81.1003 2701.00
81.4046 2787.00
81.7089 2794.00
82.0131 3083.00
82.3174 2774.00
82.6217 2807.00
82.9259 2819.00
83.2302 2766.00
83.5344 3056.00
83.8387 2800.00
84.143 2684.00
84.4472 2680.00
84.7515 2772.00
85.0557 2889.00
85.36 2800.00
85.6643 2712.00
85.9685 2805.00
86.2728 2657.00
86.577 2834.00
86.8813 2794.00
87.1856 2836.00
87.4898 2785.00
87.7941 2718.00
88.0983 2750.00
88.4026 2785.00
88.7069 2749.00
89.0111 2678.00
89.3154 2756.00
89.6196 2863.00
89.9239 2815.00
90.2282 2648.00
90.5324 2772.00
90.8367 2968.00
91.1409 3104.00
91.4452 3059.00
91.7495 2795.00
92.0537 2771.00
92.358 2818.00
92.6622 2772.00
92.9665 2688.00
93.2708 2721.00
93.575 2582.00
93.8793 2722.00
94.1835 2897.00
94.4878 2878.00
94.7921 2735.00
95.0963 2807.00
95.4006 2714.00
95.7048 2692.00
96.0091 2788.00
96.3134 2647.00
96.6176 2702.00
96.9219 2739.00
97.2261 2705.00
97.5304 2733.00
97.8347 2705.00
98.1389 2676.00
98.4432 2746.00
98.7474 2794.00
99.0517 2760.00
99.356 2664.00
99.6602 2830.00
99.9645 2679.00
100.095 2607.00