Folder: alab-pipeline/data/xrd_creation/results (part 100)

File: PG_2239-1.xy
9.903433 4472.00
10.2077 4488.00
10.512 4468.00
10.8162 4323.00
11.1205 4258.00
11.4247 4313.00
11.729 4326.00
12.0333 4214.00
12.3375 4264.00
12.6418 4325.00
12.946 4193.00
13.2503 4280.00
13.5546 4273.00
13.8588 4314.00
14.1631 4291.00
14.4673 4336.00
14.7716 4321.00
15.0759 4439.00
15.3801 4420.00
15.6844 4406.00
15.9886 4432.00
16.2929 4434.00
16.5972 4378.00
16.9014 4431.00
17.2057 4575.00
17.5099 4568.00
17.8142 4588.00
18.1185 4665.00
18.4227 4593.00
18.727 4487.00
19.0312 4548.00
19.3355 4710.00
19.6398 4542.00
19.944 4603.00
20.2483 4754.00
20.5525 4858.00
20.8568 4991.00
21.1611 5231.00
21.4653 9913.00
21.7696 6335.00
22.0738 4971.00
22.3781 4930.00
22.6824 4826.00
22.9866 4911.00
23.2909 5146.00
23.5951 6262.00
23.8994 5017.00
24.2037 4787.00
24.5079 4840.00
24.8122 4900.00
25.1164 4907.00
25.4207 4832.00
25.725 4834.00
26.0292 4916.00
26.3335 4905.00
26.6378 4889.00
26.942 5051.00
27.2463 4787.00
27.5505 5037.00
27.8548 4975.00
28.1591 4896.00
28.4633 4971.00
28.7676 4878.00
29.0718 4962.00
29.3761 5422.00
29.6804 8644.00
29.9846 5379.00
30.2889 5267.00
30.5931 7615.00
30.8974 18620.00
31.2017 5614.00
31.5059 5591.00
31.8102 9498.00
32.1144 21545.00
32.4187 5780.00
32.723 5251.00
33.0272 5248.00
33.3315 5148.00
33.6357 5084.00
33.94 5479.00
34.2443 7984.00
34.5485 6259.00
34.8528 5180.00
35.157 5277.00
35.4613 5118.00
35.7656 5122.00
36.0698 5609.00
36.3741 9966.00
36.6783 5353.00
36.9826 7441.00
37.2869 18483.00
37.5911 29196.00
37.8954 6040.00
38.1996 5373.00
38.5039 5029.00
38.8082 5107.00
39.1124 5210.00
39.4167 5376.00
39.7209 7063.00
40.0252 6551.00
40.3295 6028.00
40.6337 5138.00
40.938 5180.00
41.2422 5017.00
41.5465 5156.00
41.8508 5045.00
42.155 5273.00
42.4593 5295.00
42.7635 5743.00
43.0678 7359.00
43.3721 22955.00
43.6763 32386.00
43.9806 6422.00
44.2849 5480.00
44.5891 5341.00
44.8934 5231.00
45.1976 5362.00
45.5019 5088.00
45.8062 5219.00
46.1104 5061.00
46.4147 5235.00
46.7189 5086.00
47.0232 5210.00
47.3275 5237.00
47.6317 5290.00
47.936 5263.00
48.2402 5413.00
48.5445 5187.00
48.8488 6625.00
49.153 6553.00
49.4573 5204.00
49.7615 4979.00
50.0658 4953.00
50.3701 5339.00
50.6743 5534.00
50.9786 5077.00
51.2828 5071.00
51.5871 4888.00
51.8914 5051.00
52.1956 5024.00
52.4999 4981.00
52.8041 4962.00
53.1084 4966.00
53.4127 4886.00
53.7169 4911.00
54.0212 4962.00
54.3254 5001.00
54.6297 4984.00
54.934 4933.00
55.2382 4967.00
55.5425 5097.00
55.8467 5009.00
56.151 4948.00
56.4553 5073.00
56.7595 5053.00
57.0638 5910.00
57.368 5004.00
57.6723 5249.00
57.9766 6481.00
58.2808 5557.00
58.5851 5888.00
58.8893 5824.00
59.1936 6365.00
59.4979 5323.00
59.8021 5726.00
60.1064 6226.00
60.4106 5028.00
60.7149 5103.00
61.0192 5237.00
61.3234 5735.00
61.6277 6075.00
61.932 5341.00
62.2362 5384.00
62.5405 5720.00
62.8447 10326.00
63.149 22915.00
63.4533 7975.00
63.7575 5994.00
64.0618 5410.00
64.366 5203.00
64.6703 5111.00
64.9745 5206.00
65.2788 5191.00
65.5831 5580.00
65.8873 5441.00
66.1916 5174.00
66.4959 5135.00
66.8001 5086.00
67.1044 5154.00
67.4086 5291.00
67.7129 5049.00
68.0172 5089.00
68.3214 5096.00
68.6257 5090.00
68.9299 4988.00
69.2342 5034.00
69.5385 5109.00
69.8427 5035.00
70.147 4940.00
70.4512 5017.00
70.7555 5135.00
71.0598 4936.00
71.364 4878.00
71.6683 5025.00
71.9725 5138.00
72.2768 5107.00
72.5811 5065.00
72.8853 4879.00
73.1896 5034.00
73.4938 4914.00
73.7981 5161.00
74.1024 5606.00
74.4066 5261.00
74.7109 5011.00
75.0151 5238.00
75.3194 6716.00
75.6237 11440.00
75.9279 7053.00
76.2322 5176.00
76.5364 4948.00
76.8407 4938.00
77.145 4979.00
77.4492 4991.00
77.7535 4872.00
78.0577 4951.00
78.362 4902.00
78.6663 4884.00
78.9705 4972.00
79.2748 5890.00
79.579 9101.00
79.8833 6709.00
80.1876 5216.00
80.4918 4930.00
80.7961 4933.00
81.1003 5100.00
81.4046 4991.00
81.7089 5052.00
82.0131 5145.00
82.3174 5084.00
82.6217 4868.00
82.9259 4915.00
83.2302 4821.00
83.5344 4788.00
83.8387 4902.00
84.143 4931.00
84.4472 4783.00
84.7515 4902.00
85.0557 4853.00
85.36 4911.00
85.6643 4915.00
85.9685 4832.00
86.2728 5058.00
86.577 5222.00
86.8813 5071.00
87.1856 4905.00
87.4898 4760.00
87.7941 4888.00
88.0983 4892.00
88.4026 4840.00
88.7069 4923.00
89.0111 4818.00
89.3154 4756.00
89.6196 4785.00
89.9239 4795.00
90.2282 4727.00
90.5324 4821.00
90.8367 4827.00
91.1409 4825.00
91.4452 4882.00
91.7495 4881.00
92.0537 4920.00
92.358 4928.00
92.6622 5086.00
92.9665 5000.00
93.2708 5013.00
93.575 4931.00
93.8793 4869.00
94.1835 4884.00
94.4878 4768.00
94.7921 5018.00
95.0963 6071.00
95.4006 5881.00
95.7048 5246.00
96.0091 4966.00
96.3134 4773.00
96.6176 4953.00
96.9219 4966.00
97.2261 4974.00
97.5304 4934.00
97.8347 4905.00
98.1389 4952.00
98.4432 4930.00
98.7474 5041.00
99.0517 5118.00
99.356 5025.00
99.6602 4920.00
99.9645 4956.00
100.095 4958.00

File: PG_2240-1.xy
9.903433 2472.00
10.2077 2308.00
10.512 2236.00
10.8162 2226.00
11.1205 2123.00
11.4247 2054.00
11.729 1978.00
12.0333 1852.00
12.3375 1837.00
12.6418 1732.00
12.946 1729.00
13.2503 1789.00
13.5546 1604.00
13.8588 1590.00
14.1631 1589.00
14.4673 1931.00
14.7716 1534.00
15.0759 1472.00
15.3801 1853.00
15.6844 1390.00
15.9886 1401.00
16.2929 1388.00
16.5972 1384.00
16.9014 1389.00
17.2057 1288.00
17.5099 1300.00
17.8142 1401.00
18.1185 1347.00
18.4227 1284.00
18.727 1177.00
19.0312 1208.00
19.3355 1203.00
19.6398 1218.00
19.944 1228.00
20.2483 1246.00
20.5525 1171.00
20.8568 1145.00
21.1611 1203.00
21.4653 1228.00
21.7696 1544.00
22.0738 1021.00
22.3781 1190.00
22.6824 1170.00
22.9866 1107.00
23.2909 981.00
23.5951 982.00
23.8994 1092.00
24.2037 1029.00
24.5079 1061.00
24.8122 1122.00
25.1164 1178.00
25.4207 1013.00
25.725 970.00
26.0292 1139.00
26.3335 1826.00
26.6378 6297.00
26.942 3301.00
27.2463 1566.00
27.5505 2005.00
27.8548 1261.00
28.1591 1326.00
28.4633 2040.00
28.7676 3762.00
29.0718 6075.00
29.3761 9814.00
29.6804 3329.00
29.9846 1431.00
30.2889 1296.00
30.5931 3114.00
30.8974 2414.00
31.2017 4369.00
31.5059 1379.00
31.8102 1576.00
32.1144 4381.00
32.4187 3525.00
32.723 2301.00
33.0272 3237.00
33.3315 1192.00
33.6357 1013.00
33.94 1236.00
34.2443 2256.00
34.5485 2446.00
34.8528 1108.00
35.157 822.00
35.4613 891.00
35.7656 972.00
36.0698 1550.00
36.3741 1138.00
36.6783 794.00
36.9826 862.00
37.2869 1138.00
37.5911 797.00
37.8954 847.00
38.1996 2701.00
38.5039 809.00
38.8082 654.00
39.1124 708.00
39.4167 733.00
39.7209 1042.00
40.0252 1080.00
40.3295 1236.00
40.6337 796.00
40.938 735.00
41.2422 765.00
41.5465 715.00
41.8508 671.00
42.155 691.00
42.4593 653.00
42.7635 743.00
43.0678 833.00
43.3721 721.00
43.6763 724.00
43.9806 870.00
44.2849 874.00
44.5891 1084.00
44.8934 1189.00
45.1976 1385.00
45.5019 2146.00
45.8062 1329.00
46.1104 1273.00
46.4147 1604.00
46.7189 1296.00
47.0232 911.00
47.3275 842.00
47.6317 1206.00
47.936 2164.00
48.2402 932.00
48.5445 1037.00
48.8488 2085.00
49.153 1868.00
49.4573 1816.00
49.7615 1828.00
50.0658 1615.00
50.3701 1321.00
50.6743 1066.00
50.9786 1280.00
51.2828 1553.00
51.5871 761.00
51.8914 765.00
52.1956 1113.00
52.4999 2927.00
52.8041 998.00
53.1084 1050.00
53.4127 2588.00
53.7169 1472.00
54.0212 1048.00
54.3254 1089.00
54.6297 1140.00
54.934 1396.00
55.2382 1378.00
55.5425 1117.00
55.8467 1058.00
56.151 1464.00
56.4553 2444.00
56.7595 1079.00
57.0638 872.00
57.368 767.00
57.6723 836.00
57.9766 1004.00
58.2808 1220.00
58.5851 1167.00
58.8893 1041.00
59.1936 1014.00
59.4979 1255.00
59.8021 1366.00
60.1064 1515.00
60.4106 1642.00
60.7149 2049.00
61.0192 1289.00
61.3234 985.00
61.6277 920.00
61.932 813.00
62.2362 661.00
62.5405 694.00
62.8447 743.00
63.149 1041.00
63.4533 1694.00
63.7575 915.00
64.0618 774.00
64.366 1002.00
64.6703 733.00
64.9745 708.00
65.2788 701.00
65.5831 633.00
65.8873 790.00
66.1916 1073.00
66.4959 1189.00
66.8001 1043.00
67.1044 819.00
67.4086 662.00
67.7129 607.00
68.0172 622.00
68.3214 660.00
68.6257 866.00
68.9299 763.00
69.2342 770.00
69.5385 634.00
69.8427 733.00
70.147 785.00
70.4512 670.00
70.7555 592.00
71.0598 600.00
71.364 730.00
71.6683 646.00
71.9725 778.00
72.2768 798.00
72.5811 811.00
72.8853 821.00
73.1896 859.00
73.4938 899.00
73.7981 1008.00
74.1024 951.00
74.4066 778.00
74.7109 783.00
75.0151 774.00
75.3194 869.00
75.6237 913.00
75.9279 873.00
76.2322 1022.00
76.5364 1006.00
76.8407 1065.00
77.145 774.00
77.4492 709.00
77.7535 701.00
78.0577 832.00
78.362 907.00
78.6663 867.00
78.9705 871.00
79.2748 751.00
79.579 802.00
79.8833 1009.00
80.1876 924.00
80.4918 708.00
80.7961 798.00
81.1003 936.00
81.4046 730.00
81.7089 729.00
82.0131 731.00
82.3174 1041.00
82.6217 865.00
82.9259 826.00
83.2302 887.00
83.5344 809.00
83.8387 840.00
84.143 822.00
84.4472 864.00
84.7515 972.00
85.0557 958.00
85.36 1047.00
85.6643 817.00
85.9685 812.00
86.2728 912.00
86.577 914.00
86.8813 760.00
87.1856 1011.00
87.4898 956.00
87.7941 871.00
88.0983 704.00
88.4026 736.00
88.7069 766.00
89.0111 966.00
89.3154 863.00
89.6196 835.00
89.9239 721.00
90.2282 822.00
90.5324 796.00
90.8367 752.00
91.1409 749.00
91.4452 898.00
91.7495 806.00
92.0537 772.00
92.358 701.00
92.6622 756.00
92.9665 741.00
93.2708 773.00
93.575 859.00
93.8793 775.00
94.1835 753.00
94.4878 746.00
94.7921 750.00
95.0963 608.00
95.4006 602.00
95.7048 621.00
96.0091 694.00
96.3134 681.00
96.6176 632.00
96.9219 643.00
97.2261 631.00
97.5304 694.00
97.8347 782.00
98.1389 903.00
98.4432 767.00
98.7474 693.00
99.0517 626.00
99.356 626.00
99.6602 661.00
99.9645 645.00
100.095 631.00

File: PG_2241-1.xy
9.903433 2713.00
10.2077 2519.00
10.512 2435.00
10.8162 2403.00
11.1205 2333.00
11.4247 2230.00
11.729 2114.00
12.0333 2057.00
12.3375 2103.00
12.6418 1976.00
12.946 1975.00
13.2503 1923.00
13.5546 1895.00
13.8588 2708.00
14.1631 3005.00
14.4673 1776.00
14.7716 1763.00
15.0759 1707.00
15.3801 1689.00
15.6844 1565.00
15.9886 1568.00
16.2929 1623.00
16.5972 1530.00
16.9014 1603.00
17.2057 1517.00
17.5099 1515.00
17.8142 1504.00
18.1185 1433.00
18.4227 1422.00
18.727 1376.00
19.0312 1343.00
19.3355 1371.00
19.6398 1554.00
19.944 1325.00
20.2483 1299.00
20.5525 1275.00
20.8568 1243.00
21.1611 1192.00
21.4653 1259.00
21.7696 1377.00
22.0738 1148.00
22.3781 1131.00
22.6824 1076.00
22.9866 1093.00
23.2909 1074.00
23.5951 1113.00
23.8994 1065.00
24.2037 1101.00
24.5079 1092.00
24.8122 945.00
25.1164 1010.00
25.4207 1049.00
25.725 1219.00
26.0292 1063.00
26.3335 1008.00
26.6378 947.00
26.942 1072.00
27.2463 1244.00
27.5505 1656.00
27.8548 9652.00
28.1591 6337.00
28.4633 1627.00
28.7676 1980.00
29.0718 1130.00
29.3761 992.00
29.6804 1013.00
29.9846 960.00
30.2889 921.00
30.5931 971.00
30.8974 1282.00
31.2017 938.00
31.5059 951.00
31.8102 1092.00
32.1144 2180.00
32.4187 17898.00
32.723 1234.00
33.0272 966.00
33.3315 877.00
33.6357 786.00
33.94 739.00
34.2443 893.00
34.5485 819.00
34.8528 746.00
35.157 1019.00
35.4613 2947.00
35.7656 746.00
36.0698 652.00
36.3741 1247.00
36.6783 653.00
36.9826 656.00
37.2869 907.00
37.5911 580.00
37.8954 593.00
38.1996 598.00
38.5039 615.00
38.8082 591.00
39.1124 552.00
39.4167 630.00
39.7209 665.00
40.0252 835.00
40.3295 620.00
40.6337 572.00
40.938 508.00
41.2422 565.00
41.5465 565.00
41.8508 515.00
42.155 577.00
42.4593 1213.00
42.7635 523.00
43.0678 513.00
43.3721 471.00
43.6763 548.00
43.9806 475.00
44.2849 534.00
44.5891 625.00
44.8934 536.00
45.1976 532.00
45.5019 579.00
45.8062 750.00
46.1104 1756.00
46.4147 10642.00
46.7189 888.00
47.0232 595.00
47.3275 774.00
47.6317 524.00
47.936 513.00
48.2402 521.00
48.5445 1306.00
48.8488 492.00
49.153 644.00
49.4573 471.00
49.7615 436.00
50.0658 536.00
50.3701 571.00
50.6743 567.00
50.9786 637.00
51.2828 490.00
51.5871 415.00
51.8914 458.00
52.1956 434.00
52.4999 431.00
52.8041 460.00
53.1084 441.00
53.4127 495.00
53.7169 499.00
54.0212 579.00
54.3254 708.00
54.6297 1555.00
54.934 8252.00
55.2382 957.00
55.5425 560.00
55.8467 525.00
56.151 481.00
56.4553 461.00
56.7595 542.00
57.0638 653.00
57.368 1565.00
57.6723 1735.00
57.9766 609.00
58.2808 485.00
58.5851 475.00
58.8893 517.00
59.1936 760.00
59.4979 1619.00
59.8021 560.00
60.1064 491.00
60.4106 413.00
60.7149 425.00
61.0192 427.00
61.3234 469.00
61.6277 453.00
61.932 396.00
62.2362 412.00
62.5405 458.00
62.8447 389.00
63.149 382.00
63.4533 423.00
63.7575 434.00
64.0618 419.00
64.366 2009.00
64.6703 505.00
64.9745 389.00
65.2788 355.00
65.5831 329.00
65.8873 405.00
66.1916 406.00
66.4959 369.00
66.8001 366.00
67.1044 502.00
67.4086 1386.00
67.7129 478.00
68.0172 348.00
68.3214 398.00
68.6257 383.00
68.9299 481.00
69.2342 926.00
69.5385 416.00
69.8427 335.00
70.147 346.00
70.4512 345.00
70.7555 369.00
71.0598 363.00
71.364 329.00
71.6683 356.00
71.9725 563.00
72.2768 501.00
72.5811 348.00
72.8853 363.00
73.1896 341.00
73.4938 393.00
73.7981 638.00
74.1024 736.00
74.4066 1724.00
74.7109 601.00
75.0151 427.00
75.3194 375.00
75.6237 360.00
75.9279 414.00
76.2322 513.00
76.5364 3635.00
76.8407 1617.00
77.145 465.00
77.4492 356.00
77.7535 410.00
78.0577 482.00
78.362 576.00
78.6663 438.00
78.9705 369.00
79.2748 362.00
79.579 361.00
79.8833 344.00
80.1876 374.00
80.4918 334.00
80.7961 345.00
81.1003 353.00
81.4046 362.00
81.7089 395.00
82.0131 350.00
82.3174 356.00
82.6217 575.00
82.9259 593.00
83.2302 347.00
83.5344 310.00
83.8387 286.00
84.143 314.00
84.4472 324.00
84.7515 341.00
85.0557 429.00
85.36 1445.00
85.6643 1342.00
85.9685 379.00
86.2728 358.00
86.577 339.00
86.8813 379.00
87.1856 445.00
87.4898 348.00
87.7941 325.00
88.0983 328.00
88.4026 338.00
88.7069 315.00
89.0111 318.00
89.3154 310.00
89.6196 334.00
89.9239 365.00
90.2282 352.00
90.5324 334.00
90.8367 385.00
91.1409 446.00
91.4452 1912.00
91.7495 1229.00
92.0537 1364.00
92.358 805.00
92.6622 388.00
92.9665 344.00
93.2708 341.00
93.575 303.00
93.8793 322.00
94.1835 306.00
94.4878 315.00
94.7921 329.00
95.0963 350.00
95.4006 345.00
95.7048 469.00
96.0091 432.00
96.3134 414.00
96.6176 344.00
96.9219 308.00
97.2261 324.00
97.5304 304.00
97.8347 311.00
98.1389 291.00
98.4432 271.00
98.7474 295.00
99.0517 320.00
99.356 318.00
99.6602 317.00
99.9645 318.00
100.095 480.00

File: PG_2243-1.xy
9.903433 2874.00
10.2077 2690.00
10.512 2683.00
10.8162 2562.00
11.1205 2445.00
11.4247 2340.00
11.729 2241.00
12.0333 2073.00
12.3375 2149.00
12.6418 1978.00
12.946 1918.00
13.2503 1879.00
13.5546 1812.00
13.8588 1740.00
14.1631 1744.00
14.4673 1697.00
14.7716 1688.00
15.0759 1708.00
15.3801 1709.00
15.6844 1665.00
15.9886 1634.00
16.2929 1656.00
16.5972 1725.00
16.9014 1599.00
17.2057 1615.00
17.5099 1605.00
17.8142 1715.00
18.1185 1579.00
18.4227 1621.00
18.727 1638.00
19.0312 1708.00
19.3355 1671.00
19.6398 1652.00
19.944 1715.00
20.2483 1709.00
20.5525 1713.00
20.8568 1696.00
21.1611 2486.00
21.4653 2230.00
21.7696 1786.00
22.0738 1803.00
22.3781 1766.00
22.6824 1754.00
22.9866 1733.00
23.2909 1915.00
23.5951 1746.00
23.8994 1627.00
24.2037 1599.00
24.5079 1536.00
24.8122 1538.00
25.1164 1470.00
25.4207 1430.00
25.725 1388.00
26.0292 1388.00
26.3335 1359.00
26.6378 1280.00
26.942 1235.00
27.2463 1269.00
27.5505 1279.00
27.8548 1232.00
28.1591 1154.00
28.4633 1177.00
28.7676 1164.00
29.0718 1091.00
29.3761 1607.00
29.6804 1114.00
29.9846 1129.00
30.2889 1148.00
30.5931 2667.00
30.8974 1027.00
31.2017 984.00
31.5059 1146.00
31.8102 2721.00
32.1144 959.00
32.4187 898.00
32.723 842.00
33.0272 833.00
33.3315 815.00
33.6357 758.00
33.94 1015.00
34.2443 979.00
34.5485 781.00
34.8528 768.00
35.157 732.00
35.4613 785.00
35.7656 729.00
36.0698 1044.00
36.3741 684.00
36.6783 747.00
36.9826 1437.00
37.2869 718.00
37.5911 713.00
37.8954 620.00
38.1996 640.00
38.5039 600.00
38.8082 580.00
39.1124 601.00
39.4167 694.00
39.7209 693.00
40.0252 734.00
40.3295 545.00
40.6337 567.00
40.938 569.00
41.2422 505.00
41.5465 557.00
41.8508 513.00
42.155 538.00
42.4593 552.00
42.7635 620.00
43.0678 496.00
43.3721 623.00
43.6763 553.00
43.9806 498.00
44.2849 494.00
44.5891 512.00
44.8934 511.00
45.1976 522.00
45.5019 502.00
45.8062 462.00
46.1104 475.00
46.4147 470.00
46.7189 490.00
47.0232 508.00
47.3275 507.00
47.6317 528.00
47.936 501.00
48.2402 453.00
48.5445 535.00
48.8488 697.00
49.153 470.00
49.4573 472.00
49.7615 446.00
50.0658 458.00
50.3701 511.00
50.6743 465.00
50.9786 426.00
51.2828 424.00
51.5871 420.00
51.8914 421.00
52.1956 468.00
52.4999 437.00
52.8041 415.00
53.1084 423.00
53.4127 394.00
53.7169 391.00
54.0212 413.00
54.3254 450.00
54.6297 431.00
54.934 421.00
55.2382 401.00
55.5425 445.00
55.8467 395.00
56.151 394.00
56.4553 419.00
56.7595 511.00
57.0638 391.00
57.368 383.00
57.6723 513.00
57.9766 396.00
58.2808 485.00
58.5851 480.00
58.8893 498.00
59.1936 437.00
59.4979 392.00
59.8021 486.00
60.1064 367.00
60.4106 409.00
60.7149 350.00
61.0192 424.00
61.3234 407.00
61.6277 408.00
61.932 354.00
62.2362 382.00
62.5405 379.00
62.8447 357.00
63.149 395.00
63.4533 433.00
63.7575 380.00
64.0618 342.00
64.366 359.00
64.6703 316.00
64.9745 371.00
65.2788 378.00
65.5831 371.00
65.8873 336.00
66.1916 332.00
66.4959 381.00
66.8001 368.00
67.1044 349.00
67.4086 365.00
67.7129 355.00
68.0172 358.00
68.3214 361.00
68.6257 336.00
68.9299 366.00
69.2342 358.00
69.5385 327.00
69.8427 329.00
70.147 315.00
70.4512 328.00
70.7555 324.00
71.0598 326.00
71.364 330.00
71.6683 361.00
71.9725 339.00
72.2768 355.00
72.5811 346.00
72.8853 323.00
73.1896 342.00
73.4938 348.00
73.7981 341.00
74.1024 337.00
74.4066 321.00
74.7109 304.00
75.0151 358.00
75.3194 334.00
75.6237 346.00
75.9279 317.00
76.2322 319.00
76.5364 321.00
76.8407 328.00
77.145 329.00
77.4492 354.00
77.7535 312.00
78.0577 282.00
78.362 325.00
78.6663 332.00
78.9705 339.00
79.2748 314.00
79.579 329.00
79.8833 312.00
80.1876 319.00
80.4918 315.00
80.7961 376.00
81.1003 317.00
81.4046 352.00
81.7089 355.00
82.0131 334.00
82.3174 314.00
82.6217 322.00
82.9259 299.00
83.2302 316.00
83.5344 292.00
83.8387 300.00
84.143 282.00
84.4472 303.00
84.7515 320.00
85.0557 301.00
85.36 281.00
85.6643 275.00
85.9685 263.00
86.2728 338.00
86.577 290.00
86.8813 279.00
87.1856 287.00
87.4898 261.00
87.7941 280.00
88.0983 306.00
88.4026 299.00
88.7069 294.00
89.0111 268.00
89.3154 244.00
89.6196 274.00
89.9239 289.00
90.2282 250.00
90.5324 261.00
90.8367 231.00
91.1409 262.00
91.4452 240.00
91.7495 271.00
92.0537 259.00
92.358 284.00
92.6622 266.00
92.9665 270.00
93.2708 286.00
93.575 236.00
93.8793 227.00
94.1835 224.00
94.4878 269.00
94.7921 257.00
95.0963 276.00
95.4006 237.00
95.7048 257.00
96.0091 248.00
96.3134 318.00
96.6176 280.00
96.9219 273.00
97.2261 259.00
97.5304 283.00
97.8347 268.00
98.1389 246.00
98.4432 226.00
98.7474 247.00
99.0517 270.00
99.356 277.00
99.6602 264.00
99.9645 248.00
100.095 242.00

File: PG_2244-1.xy
9.903433 2508.00
10.2077 2448.00
10.512 2318.00
10.8162 2247.00
11.1205 2203.00
11.4247 2073.00
11.729 1908.00
12.0333 1981.00
12.3375 1927.00
12.6418 1737.00
12.946 1742.00
13.2503 1691.00
13.5546 1620.00
13.8588 1646.00
14.1631 1622.00
14.4673 1614.00
14.7716 1579.00
15.0759 1553.00
15.3801 1563.00
15.6844 1464.00
15.9886 1454.00
16.2929 1403.00
16.5972 1407.00
16.9014 1402.00
17.2057 1372.00
17.5099 1360.00
17.8142 1451.00
18.1185 1272.00
18.4227 1345.00
18.727 1297.00
19.0312 1259.00
19.3355 1253.00
19.6398 1204.00
19.944 1180.00
20.2483 1101.00
20.5525 1107.00
20.8568 1164.00
21.1611 1167.00
21.4653 1099.00
21.7696 1312.00
22.0738 1070.00
22.3781 1054.00
22.6824 1026.00
22.9866 1088.00
23.2909 982.00
23.5951 1025.00
23.8994 1039.00
24.2037 979.00
24.5079 1059.00
24.8122 975.00
25.1164 985.00
25.4207 940.00
25.725 886.00
26.0292 1012.00
26.3335 1186.00
26.6378 1628.00
26.942 8295.00
27.2463 8422.00
27.5505 1575.00
27.8548 1117.00
28.1591 994.00
28.4633 939.00
28.7676 885.00
29.0718 887.00
29.3761 835.00
29.6804 849.00
29.9846 923.00
30.2889 821.00
30.5931 773.00
30.8974 848.00
31.2017 1080.00
31.5059 764.00
31.8102 752.00
32.1144 908.00
32.4187 1032.00
32.723 757.00
33.0272 763.00
33.3315 873.00
33.6357 960.00
33.94 1467.00
34.2443 7981.00
34.5485 6831.00
34.8528 1279.00
35.157 883.00
35.4613 784.00
35.7656 723.00
36.0698 722.00
36.3741 658.00
36.6783 798.00
36.9826 678.00
37.2869 738.00
37.5911 831.00
37.8954 738.00
38.1996 1308.00
38.5039 4974.00
38.8082 955.00
39.1124 734.00
39.4167 1342.00
39.7209 779.00
40.0252 656.00
40.3295 597.00
40.6337 572.00
40.938 496.00
41.2422 525.00
41.5465 520.00
41.8508 536.00
42.155 517.00
42.4593 528.00
42.7635 553.00
43.0678 771.00
43.3721 577.00
43.6763 451.00
43.9806 506.00
44.2849 485.00
44.5891 451.00
44.8934 452.00
45.1976 447.00
45.5019 481.00
45.8062 438.00
46.1104 470.00
46.4147 455.00
46.7189 479.00
47.0232 476.00
47.3275 476.00
47.6317 427.00
47.936 412.00
48.2402 446.00
48.5445 476.00
48.8488 498.00
49.153 510.00
49.4573 488.00
49.7615 457.00
50.0658 462.00
50.3701 487.00
50.6743 510.00
50.9786 567.00
51.2828 593.00
51.5871 676.00
51.8914 1390.00
52.1956 12277.00
52.4999 3851.00
52.8041 930.00
53.1084 642.00
53.4127 575.00
53.7169 510.00
54.0212 522.00
54.3254 494.00
54.6297 588.00
54.934 808.00
55.2382 3798.00
55.5425 887.00
55.8467 508.00
56.151 477.00
56.4553 424.00
56.7595 449.00
57.0638 478.00
57.368 475.00
57.6723 461.00
57.9766 596.00
58.2808 1889.00
58.5851 817.00
58.8893 471.00
59.1936 443.00
59.4979 440.00
59.8021 405.00
60.1064 490.00
60.4106 494.00
60.7149 430.00
61.0192 425.00
61.3234 410.00
61.6277 441.00
61.932 645.00
62.2362 2137.00
62.5405 1945.00
62.8447 595.00
63.149 451.00
63.4533 417.00
63.7575 437.00
64.0618 467.00
64.366 459.00
64.6703 529.00
64.9745 1075.00
65.2788 2590.00
65.5831 814.00
65.8873 638.00
66.1916 1133.00
66.4959 3127.00
66.8001 777.00
67.1044 466.00
67.4086 434.00
67.7129 419.00
68.0172 367.00
68.3214 364.00
68.6257 354.00
68.9299 347.00
69.2342 366.00
69.5385 362.00
69.8427 421.00
70.147 363.00
70.4512 352.00
70.7555 371.00
71.0598 388.00
71.364 481.00
71.6683 1687.00
71.9725 958.00
72.2768 425.00
72.5811 373.00
72.8853 385.00
73.1896 317.00
73.4938 367.00
73.7981 309.00
74.1024 376.00
74.4066 345.00
74.7109 358.00
75.0151 332.00
75.3194 390.00
75.6237 343.00
75.9279 329.00
76.2322 305.00
76.5364 347.00
76.8407 351.00
77.145 327.00
77.4492 352.00
77.7535 336.00
78.0577 328.00
78.362 350.00
78.6663 462.00
78.9705 1235.00
79.2748 1701.00
79.579 555.00
79.8833 333.00
80.1876 338.00
80.4918 368.00
80.7961 375.00
81.1003 393.00
81.4046 651.00
81.7089 717.00
82.0131 437.00
82.3174 382.00
82.6217 318.00
82.9259 342.00
83.2302 336.00
83.5344 400.00
83.8387 539.00
84.143 1760.00
84.4472 887.00
84.7515 407.00
85.0557 358.00
85.36 335.00
85.6643 340.00
85.9685 342.00
86.2728 339.00
86.577 342.00
86.8813 397.00
87.1856 351.00
87.4898 666.00
87.7941 680.00
88.0983 401.00
88.4026 349.00
88.7069 352.00
89.0111 373.00
89.3154 388.00
89.6196 447.00
89.9239 758.00
90.2282 1629.00
90.5324 997.00
90.8367 611.00
91.1409 1250.00
91.4452 1270.00
91.7495 635.00
92.0537 394.00
92.358 395.00
92.6622 377.00
92.9665 381.00
93.2708 420.00
93.575 1038.00
93.8793 797.00
94.1835 449.00
94.4878 388.00
94.7921 365.00
95.0963 341.00
95.4006 365.00
95.7048 383.00
96.0091 420.00
96.3134 999.00
96.6176 741.00
96.9219 439.00
97.2261 354.00
97.5304 338.00
97.8347 330.00
98.1389 302.00
98.4432 320.00
98.7474 349.00
99.0517 332.00
99.356 339.00
99.6602 345.00
99.9645 313.00
100.095 336.00