Folder: alab-pipeline/data/xrd_creation/results (part 39)

File: NSC_22.xy
9.903433 3077.00
10.2077 2995.00
10.512 2925.00
10.8162 2706.00
11.1205 2728.00
11.4247 2679.00
11.729 2543.00
12.0333 2584.00
12.3375 2902.00
12.6418 2527.00
12.946 2288.00
13.2503 2346.00
13.5546 2379.00
13.8588 2444.00
14.1631 3875.00
14.4673 2335.00
14.7716 2318.00
15.0759 2213.00
15.3801 2200.00
15.6844 2276.00
15.9886 2213.00
16.2929 2232.00
16.5972 2112.00
16.9014 2097.00
17.2057 2200.00
17.5099 2158.00
17.8142 2180.00
18.1185 2070.00
18.4227 2186.00
18.727 1990.00
19.0312 2154.00
19.3355 2440.00
19.6398 8384.00
19.944 2498.00
20.2483 5282.00
20.5525 3846.00
20.8568 2140.00
21.1611 2143.00
21.4653 2112.00
21.7696 2224.00
22.0738 2524.00
22.3781 2344.00
22.6824 2088.00
22.9866 2574.00
23.2909 2956.00
23.5951 11675.00
23.8994 2224.00
24.2037 2327.00
24.5079 2149.00
24.8122 2127.00
25.1164 1829.00
25.4207 1806.00
25.725 1803.00
26.0292 1692.00
26.3335 1702.00
26.6378 1714.00
26.942 1836.00
27.2463 1715.00
27.5505 1828.00
27.8548 1838.00
28.1591 2931.00
28.4633 9006.00
28.7676 2003.00
29.0718 1697.00
29.3761 1792.00
29.6804 1696.00
29.9846 1915.00
30.2889 1808.00
30.5931 1989.00
30.8974 2314.00
31.2017 7653.00
31.5059 5180.00
31.8102 3255.00
32.1144 1797.00
32.4187 1734.00
32.723 1589.00
33.0272 1604.00
33.3315 1628.00
33.6357 1679.00
33.94 1788.00
34.2443 3320.00
34.5485 1982.00
34.8528 2032.00
35.157 3639.00
35.4613 5337.00
35.7656 2102.00
36.0698 1739.00
36.3741 1645.00
36.6783 1405.00
36.9826 1444.00
37.2869 1435.00
37.5911 1421.00
37.8954 1473.00
38.1996 1413.00
38.5039 1426.00
38.8082 1594.00
39.1124 1388.00
39.4167 1497.00
39.7209 1942.00
40.0252 1554.00
40.3295 1429.00
40.6337 1464.00
40.938 1885.00
41.2422 2206.00
41.5465 2065.00
41.8508 1618.00
42.155 1581.00
42.4593 1479.00
42.7635 1578.00
43.0678 2456.00
43.3721 1466.00
43.6763 1493.00
43.9806 1466.00
44.2849 1370.00
44.5891 1556.00
44.8934 3349.00
45.1976 1816.00
45.5019 1582.00
45.8062 2084.00
46.1104 2105.00
46.4147 1741.00
46.7189 2152.00
47.0232 1793.00
47.3275 1504.00
47.6317 1805.00
47.936 4091.00
48.2402 1791.00
48.5445 1773.00
48.8488 1530.00
49.153 1490.00
49.4573 1971.00
49.7615 1443.00
50.0658 1515.00
50.3701 2293.00
50.6743 1788.00
50.9786 1910.00
51.2828 3353.00
51.5871 1960.00
51.8914 1589.00
52.1956 1340.00
52.4999 1407.00
52.8041 1505.00
53.1084 1449.00
53.4127 1498.00
53.7169 1405.00
54.0212 1735.00
54.3254 2287.00
54.6297 1591.00
54.934 2105.00
55.2382 3231.00
55.5425 3130.00
55.8467 1748.00
56.151 1673.00
56.4553 1435.00
56.7595 1572.00
57.0638 1372.00
57.368 1533.00
57.6723 1494.00
57.9766 1677.00
58.2808 1965.00
58.5851 1756.00
58.8893 1449.00
59.1936 1563.00
59.4979 1602.00
59.8021 2555.00
60.1064 2040.00
60.4106 1540.00
60.7149 1780.00
61.0192 2522.00
61.3234 1614.00
61.6277 1578.00
61.932 1677.00
62.2362 2020.00
62.5405 1655.00
62.8447 1526.00
63.149 1856.00
63.4533 1920.00
63.7575 1844.00
64.0618 1396.00
64.366 1370.00
64.6703 1353.00
64.9745 1483.00
65.2788 1431.00
65.5831 1557.00
65.8873 1808.00
66.1916 1796.00
66.4959 1302.00
66.8001 1351.00
67.1044 1587.00
67.4086 1510.00
67.7129 1545.00
68.0172 1314.00
68.3214 1297.00
68.6257 1469.00
68.9299 1450.00
69.2342 1331.00
69.5385 1260.00
69.8427 1241.00
70.147 1296.00
70.4512 1266.00
70.7555 1682.00
71.0598 1695.00
71.364 1429.00
71.6683 1346.00
71.9725 1332.00
72.2768 1356.00
72.5811 1254.00
72.8853 1228.00
73.1896 1353.00
73.4938 1613.00
73.7981 1422.00
74.1024 1302.00
74.4066 1302.00
74.7109 1737.00
75.0151 1681.00
75.3194 1629.00
75.6237 1401.00
75.9279 1262.00
76.2322 1261.00
76.5364 1318.00
76.8407 1301.00
77.145 1334.00
77.4492 1307.00
77.7535 1261.00
78.0577 1348.00
78.362 1539.00
78.6663 1565.00
78.9705 1380.00
79.2748 1341.00
79.579 1266.00
79.8833 1247.00
80.1876 1384.00
80.4918 1335.00
80.7961 1655.00
81.1003 1316.00
81.4046 1289.00
81.7089 1282.00
82.0131 1220.00
82.3174 1268.00
82.6217 1217.00
82.9259 1378.00
83.2302 1619.00
83.5344 1464.00
83.8387 1241.00
84.143 1310.00
84.4472 1485.00
84.7515 1452.00
85.0557 1326.00
85.36 1440.00
85.6643 1315.00
85.9685 1377.00
86.2728 1368.00
86.577 1307.00
86.8813 1259.00
87.1856 1303.00
87.4898 1250.00
87.7941 1310.00
88.0983 1359.00
88.4026 1293.00
88.7069 1354.00
89.0111 1491.00
89.3154 1554.00
89.6196 1329.00
89.9239 1325.00
90.2282 1219.00
90.5324 1269.00
90.8367 1218.00
91.1409 1310.00
91.4452 1442.00
91.7495 1283.00
92.0537 1187.00
92.358 1263.00
92.6622 1176.00
92.9665 1209.00
93.2708 1256.00
93.575 1359.00
93.8793 1311.00
94.1835 1200.00
94.4878 1402.00
94.7921 1540.00
95.0963 1397.00
95.4006 1326.00
95.7048 1414.00
96.0091 1420.00
96.3134 1418.00
96.6176 1387.00
96.9219 1378.00
97.2261 1350.00
97.5304 1236.00
97.8347 1198.00
98.1389 1247.00
98.4432 1257.00
98.7474 1332.00
99.0517 1315.00
99.356 1421.00
99.6602 1432.00
99.9645 1528.00
100.095 1469.00

File: NSC_23.xy
9.903433 2922.00
10.2077 2929.00
10.512 2945.00
10.8162 2706.00
11.1205 2670.00
11.4247 2581.00
11.729 2484.00
12.0333 2271.00
12.3375 2324.00
12.6418 2407.00
12.946 2234.00
13.2503 2132.00
13.5546 2137.00
13.8588 2254.00
14.1631 2126.00
14.4673 2367.00
14.7716 2787.00
15.0759 2107.00
15.3801 2057.00
15.6844 2012.00
15.9886 2093.00
16.2929 2077.00
16.5972 2047.00
16.9014 2046.00
17.2057 1956.00
17.5099 2084.00
17.8142 1913.00
18.1185 1949.00
18.4227 1926.00
18.727 1856.00
19.0312 1907.00
19.3355 2538.00
19.6398 1968.00
19.944 1847.00
20.2483 2001.00
20.5525 2137.00
20.8568 2869.00
21.1611 3960.00
21.4653 2942.00
21.7696 2029.00
22.0738 2505.00
22.3781 4338.00
22.6824 1929.00
22.9866 1740.00
23.2909 1579.00
23.5951 1777.00
23.8994 2075.00
24.2037 2006.00
24.5079 2065.00
24.8122 1578.00
25.1164 1624.00
25.4207 1622.00
25.725 2003.00
26.0292 1632.00
26.3335 1664.00
26.6378 1626.00
26.942 1740.00
27.2463 1584.00
27.5505 1783.00
27.8548 2227.00
28.1591 5289.00
28.4633 2734.00
28.7676 1689.00
29.0718 1722.00
29.3761 1660.00
29.6804 1614.00
29.9846 1566.00
30.2889 1853.00
30.5931 4095.00
30.8974 3052.00
31.2017 2206.00
31.5059 4147.00
31.8102 2000.00
32.1144 2015.00
32.4187 1704.00
32.723 2141.00
33.0272 3364.00
33.3315 2788.00
33.6357 2643.00
33.94 3176.00
34.2443 3030.00
34.5485 2031.00
34.8528 1523.00
35.157 1723.00
35.4613 1922.00
35.7656 1677.00
36.0698 1529.00
36.3741 1313.00
36.6783 1608.00
36.9826 1460.00
37.2869 1321.00
37.5911 1217.00
37.8954 1300.00
38.1996 1251.00
38.5039 1506.00
38.8082 1457.00
39.1124 1228.00
39.4167 1485.00
39.7209 1604.00
40.0252 1326.00
40.3295 1354.00
40.6337 1755.00
40.938 2420.00
41.2422 1789.00
41.5465 1722.00
41.8508 1300.00
42.155 1246.00
42.4593 1198.00
42.7635 1395.00
43.0678 1458.00
43.3721 1601.00
43.6763 1267.00
43.9806 1244.00
44.2849 1330.00
44.5891 1526.00
44.8934 1710.00
45.1976 1599.00
45.5019 1973.00
45.8062 1759.00
46.1104 1512.00
46.4147 1453.00
46.7189 1571.00
47.0232 1835.00
47.3275 1580.00
47.6317 1444.00
47.936 1454.00
48.2402 1382.00
48.5445 1259.00
48.8488 1389.00
49.153 1782.00
49.4573 1704.00
49.7615 1254.00
50.0658 1793.00
50.3701 1913.00
50.6743 1746.00
50.9786 1435.00
51.2828 1477.00
51.5871 1393.00
51.8914 1506.00
52.1956 1479.00
52.4999 1445.00
52.8041 1385.00
53.1084 1422.00
53.4127 1511.00
53.7169 1721.00
54.0212 1810.00
54.3254 1525.00
54.6297 1367.00
54.934 1416.00
55.2382 1666.00
55.5425 1815.00
55.8467 1598.00
56.151 1567.00
56.4553 1275.00
56.7595 1238.00
57.0638 1547.00
57.368 1834.00
57.6723 1558.00
57.9766 1588.00
58.2808 1628.00
58.5851 1399.00
58.8893 1362.00
59.1936 1306.00
59.4979 1406.00
59.8021 1893.00
60.1064 2054.00
60.4106 1606.00
60.7149 1401.00
61.0192 1399.00
61.3234 1557.00
61.6277 1247.00
61.932 1348.00
62.2362 1330.00
62.5405 1324.00
62.8447 1579.00
63.149 1277.00
63.4533 1133.00
63.7575 1096.00
64.0618 1193.00
64.366 1325.00
64.6703 1284.00
64.9745 1211.00
65.2788 1234.00
65.5831 1423.00
65.8873 1470.00
66.1916 1195.00
66.4959 1131.00
66.8001 1084.00
67.1044 1105.00
67.4086 1041.00
67.7129 1083.00
68.0172 1032.00
68.3214 999.00
68.6257 976.00
68.9299 1088.00
69.2342 1100.00
69.5385 1017.00
69.8427 1059.00
70.147 1113.00
70.4512 1180.00
70.7555 1071.00
71.0598 1209.00
71.364 1252.00
71.6683 1154.00
71.9725 1164.00
72.2768 1080.00
72.5811 1077.00
72.8853 980.00
73.1896 999.00
73.4938 1011.00
73.7981 1018.00
74.1024 1022.00
74.4066 1054.00
74.7109 1107.00
75.0151 1050.00
75.3194 1168.00
75.6237 1143.00
75.9279 1033.00
76.2322 1116.00
76.5364 1106.00
76.8407 1035.00
77.145 965.00
77.4492 1006.00
77.7535 993.00
78.0577 1025.00
78.362 976.00
78.6663 979.00
78.9705 1026.00
79.2748 1071.00
79.579 991.00
79.8833 1009.00
80.1876 945.00
80.4918 965.00
80.7961 908.00
81.1003 911.00
81.4046 983.00
81.7089 960.00
82.0131 1012.00
82.3174 1035.00
82.6217 1063.00
82.9259 1094.00
83.2302 1128.00
83.5344 1110.00
83.8387 1094.00
84.143 1097.00
84.4472 958.00
84.7515 986.00
85.0557 1004.00
85.36 902.00
85.6643 933.00
85.9685 940.00
86.2728 893.00
86.577 981.00
86.8813 1000.00
87.1856 907.00
87.4898 950.00
87.7941 1094.00
88.0983 1086.00
88.4026 1112.00
88.7069 1058.00
89.0111 1013.00
89.3154 999.00
89.6196 1106.00
89.9239 1115.00
90.2282 1061.00
90.5324 1036.00
90.8367 968.00
91.1409 1020.00
91.4452 1024.00
91.7495 952.00
92.0537 1000.00
92.358 902.00
92.6622 922.00
92.9665 926.00
93.2708 924.00
93.575 975.00
93.8793 983.00
94.1835 1000.00
94.4878 940.00
94.7921 953.00
95.0963 938.00
95.4006 1056.00
95.7048 963.00
96.0091 1000.00
96.3134 963.00
96.6176 1063.00
96.9219 1076.00
97.2261 1007.00
97.5304 973.00
97.8347 962.00
98.1389 974.00
98.4432 980.00
98.7474 999.00
99.0517 1056.00
99.356 1009.00
99.6602 936.00
99.9645 979.00
100.095 958.00

File: NSC_24.xy
9.903433 2962.00
10.2077 2896.00
10.512 2670.00
10.8162 2637.00
11.1205 2560.00
11.4247 2454.00
11.729 2568.00
12.0333 2464.00
12.3375 2367.00
12.6418 2343.00
12.946 2246.00
13.2503 2241.00
13.5546 2338.00
13.8588 2231.00
14.1631 2209.00
14.4673 2316.00
14.7716 2321.00
15.0759 2125.00
15.3801 2004.00
15.6844 2112.00
15.9886 2029.00
16.2929 2026.00
16.5972 2050.00
16.9014 2205.00
17.2057 2038.00
17.5099 2030.00
17.8142 1920.00
18.1185 1845.00
18.4227 1810.00
18.727 1867.00
19.0312 1988.00
19.3355 4051.00
19.6398 2605.00
19.944 1796.00
20.2483 1658.00
20.5525 1764.00
20.8568 1832.00
21.1611 2026.00
21.4653 1916.00
21.7696 1762.00
22.0738 1791.00
22.3781 2312.00
22.6824 2349.00
22.9866 1789.00
23.2909 1669.00
23.5951 1562.00
23.8994 1878.00
24.2037 2048.00
24.5079 1983.00
24.8122 1631.00
25.1164 1612.00
25.4207 1522.00
25.725 1592.00
26.0292 1439.00
26.3335 1451.00
26.6378 1718.00
26.942 1723.00
27.2463 1720.00
27.5505 2351.00
27.8548 1914.00
28.1591 4617.00
28.4633 2532.00
28.7676 1469.00
29.0718 1462.00
29.3761 2159.00
29.6804 1589.00
29.9846 1867.00
30.2889 1571.00
30.5931 1994.00
30.8974 3409.00
31.2017 2720.00
31.5059 3861.00
31.8102 1767.00
32.1144 1462.00
32.4187 1446.00
32.723 1462.00
33.0272 1910.00
33.3315 1582.00
33.6357 1926.00
33.94 3960.00
34.2443 3129.00
34.5485 1912.00
34.8528 1917.00
35.157 1632.00
35.4613 1620.00
35.7656 1263.00
36.0698 1215.00
36.3741 1129.00
36.6783 1203.00
36.9826 1251.00
37.2869 1520.00
37.5911 1117.00
37.8954 1093.00
38.1996 1138.00
38.5039 1217.00
38.8082 1236.00
39.1124 1158.00
39.4167 1337.00
39.7209 1188.00
40.0252 1134.00
40.3295 1085.00
40.6337 1448.00
40.938 1602.00
41.2422 1644.00
41.5465 1328.00
41.8508 1162.00
42.155 1137.00
42.4593 1110.00
42.7635 1176.00
43.0678 1057.00
43.3721 1133.00
43.6763 1075.00
43.9806 1207.00
44.2849 1586.00
44.5891 1394.00
44.8934 1363.00
45.1976 1133.00
45.5019 1316.00
45.8062 1205.00
46.1104 1198.00
46.4147 1680.00
46.7189 1641.00
47.0232 1150.00
47.3275 1006.00
47.6317 1017.00
47.936 1087.00
48.2402 1204.00
48.5445 1093.00
48.8488 1226.00
49.153 1453.00
49.4573 1920.00
49.7615 1139.00
50.0658 1598.00
50.3701 1876.00
50.6743 1490.00
50.9786 1395.00
51.2828 1401.00
51.5871 1170.00
51.8914 1080.00
52.1956 1179.00
52.4999 1169.00
52.8041 1646.00
53.1084 1266.00
53.4127 1086.00
53.7169 1136.00
54.0212 1311.00
54.3254 1176.00
54.6297 958.00
54.934 1010.00
55.2382 1279.00
55.5425 1470.00
55.8467 1207.00
56.151 1189.00
56.4553 990.00
56.7595 1029.00
57.0638 1195.00
57.368 1267.00
57.6723 1007.00
57.9766 1139.00
58.2808 1238.00
58.5851 1275.00
58.8893 1605.00
59.1936 1166.00
59.4979 1062.00
59.8021 1280.00
60.1064 1356.00
60.4106 1305.00
60.7149 1301.00
61.0192 1225.00
61.3234 1143.00
61.6277 1048.00
61.932 1156.00
62.2362 1128.00
62.5405 1058.00
62.8447 1329.00
63.149 1012.00
63.4533 869.00
63.7575 890.00
64.0618 993.00
64.366 1035.00
64.6703 905.00
64.9745 844.00
65.2788 957.00
65.5831 1306.00
65.8873 1406.00
66.1916 1043.00
66.4959 933.00
66.8001 866.00
67.1044 824.00
67.4086 842.00
67.7129 909.00
68.0172 877.00
68.3214 854.00
68.6257 836.00
68.9299 894.00
69.2342 881.00
69.5385 840.00
69.8427 798.00
70.147 765.00
70.4512 840.00
70.7555 817.00
71.0598 1111.00
71.364 1056.00
71.6683 946.00
71.9725 959.00
72.2768 894.00
72.5811 909.00
72.8853 783.00
73.1896 770.00
73.4938 868.00
73.7981 806.00
74.1024 790.00
74.4066 867.00
74.7109 910.00
75.0151 856.00
75.3194 938.00
75.6237 856.00
75.9279 808.00
76.2322 889.00
76.5364 924.00
76.8407 836.00
77.145 790.00
77.4492 822.00
77.7535 793.00
78.0577 747.00
78.362 747.00
78.6663 748.00
78.9705 835.00
79.2748 892.00
79.579 1026.00
79.8833 867.00
80.1876 823.00
80.4918 794.00
80.7961 762.00
81.1003 792.00
81.4046 916.00
81.7089 907.00
82.0131 801.00
82.3174 752.00
82.6217 822.00
82.9259 840.00
83.2302 876.00
83.5344 846.00
83.8387 849.00
84.143 834.00
84.4472 782.00
84.7515 761.00
85.0557 732.00
85.36 753.00
85.6643 713.00
85.9685 800.00
86.2728 866.00
86.577 842.00
86.8813 798.00
87.1856 826.00
87.4898 861.00
87.7941 858.00
88.0983 914.00
88.4026 851.00
88.7069 852.00
89.0111 820.00
89.3154 831.00
89.6196 844.00
89.9239 821.00
90.2282 828.00
90.5324 722.00
90.8367 822.00
91.1409 798.00
91.4452 732.00
91.7495 709.00
92.0537 702.00
92.358 714.00
92.6622 716.00
92.9665 771.00
93.2708 766.00
93.575 741.00
93.8793 764.00
94.1835 784.00
94.4878 735.00
94.7921 784.00
95.0963 757.00
95.4006 805.00
95.7048 797.00
96.0091 795.00
96.3134 820.00
96.6176 849.00
96.9219 846.00
97.2261 778.00
97.5304 701.00
97.8347 640.00
98.1389 719.00
98.4432 725.00
98.7474 761.00
99.0517 973.00
99.356 929.00
99.6602 782.00
99.9645 770.00
100.095 798.00

File: NSC_25.xy
9.903433 2681.00
10.2077 2520.00
10.512 2399.00
10.8162 2395.00
11.1205 2230.00
11.4247 2144.00
11.729 2103.00
12.0333 1995.00
12.3375 1993.00
12.6418 1934.00
12.946 1850.00
13.2503 1813.00
13.5546 1788.00
13.8588 1830.00
14.1631 1853.00
14.4673 1791.00
14.7716 1774.00
15.0759 2528.00
15.3801 4535.00
15.6844 1676.00
15.9886 1626.00
16.2929 1508.00
16.5972 1516.00
16.9014 1562.00
17.2057 1455.00
17.5099 1461.00
17.8142 1412.00
18.1185 1396.00
18.4227 1436.00
18.727 1374.00
19.0312 1419.00
19.3355 1367.00
19.6398 1904.00
19.944 1899.00
20.2483 1740.00
20.5525 3718.00
20.8568 6574.00
21.1611 4207.00
21.4653 1662.00
21.7696 2371.00
22.0738 8010.00
22.3781 2103.00
22.6824 1445.00
22.9866 1398.00
23.2909 1396.00
23.5951 2267.00
23.8994 1886.00
24.2037 1293.00
24.5079 1321.00
24.8122 1434.00
25.1164 2557.00
25.4207 14819.00
25.725 2284.00
26.0292 3786.00
26.3335 8994.00
26.6378 1403.00
26.942 1396.00
27.2463 1176.00
27.5505 1178.00
27.8548 1154.00
28.1591 1206.00
28.4633 2104.00
28.7676 1428.00
29.0718 1130.00
29.3761 1051.00
29.6804 1070.00
29.9846 1132.00
30.2889 1835.00
30.5931 9793.00
30.8974 1523.00
31.2017 1240.00
31.5059 2803.00
31.8102 1537.00
32.1144 1023.00
32.4187 997.00
32.723 1074.00
33.0272 1349.00
33.3315 3400.00
33.6357 11870.00
33.94 1585.00
34.2443 3308.00
34.5485 1177.00
34.8528 1035.00
35.157 1257.00
35.4613 1304.00
35.7656 1848.00
36.0698 1712.00
36.3741 1562.00
36.6783 957.00
36.9826 896.00
37.2869 896.00
37.5911 1057.00
37.8954 2100.00
38.1996 2103.00
38.5039 3693.00
38.8082 3240.00
39.1124 1197.00
39.4167 975.00
39.7209 2846.00
40.0252 1093.00
40.3295 933.00
40.6337 1494.00
40.938 1210.00
41.2422 970.00
41.5465 1026.00
41.8508 1423.00
42.155 2323.00
42.4593 1633.00
42.7635 970.00
43.0678 936.00
43.3721 975.00
43.6763 840.00
43.9806 1358.00
44.2849 1426.00
44.5891 833.00
44.8934 1380.00
45.1976 1717.00
45.5019 1028.00
45.8062 790.00
46.1104 1014.00
46.4147 1934.00
46.7189 1619.00
47.0232 938.00
47.3275 823.00
47.6317 1171.00
47.936 1148.00
48.2402 3220.00
48.5445 1993.00
48.8488 1972.00
49.153 1295.00
49.4573 953.00
49.7615 1962.00
50.0658 2174.00
50.3701 903.00
50.6743 903.00
50.9786 1291.00
51.2828 1099.00
51.5871 1465.00
51.8914 3855.00
52.1956 2062.00
52.4999 917.00
52.8041 954.00
53.1084 1273.00
53.4127 1162.00
53.7169 1389.00
54.0212 775.00
54.3254 926.00
54.6297 1035.00
54.934 2315.00
55.2382 2137.00
55.5425 1246.00
55.8467 1359.00
56.151 1406.00
56.4553 1023.00
56.7595 806.00
57.0638 936.00
57.368 889.00
57.6723 879.00
57.9766 809.00
58.2808 977.00
58.5851 2024.00
58.8893 1962.00
59.1936 2025.00
59.4979 939.00
59.8021 1322.00
60.1064 2604.00
60.4106 2519.00
60.7149 2598.00
61.0192 1147.00
61.3234 1097.00
61.6277 1325.00
61.932 1816.00
62.2362 1314.00
62.5405 939.00
62.8447 806.00
63.149 1025.00
63.4533 1416.00
63.7575 962.00
64.0618 980.00
64.366 1270.00
64.6703 2473.00
64.9745 1136.00
65.2788 960.00
65.5831 1296.00
65.8873 1498.00
66.1916 3153.00
66.4959 4187.00
66.8001 1574.00
67.1044 1356.00
67.4086 1312.00
67.7129 943.00
68.0172 985.00
68.3214 845.00
68.6257 813.00
68.9299 1142.00
69.2342 1889.00
69.5385 1835.00
69.8427 1614.00
70.147 1004.00
70.4512 1383.00
70.7555 1611.00
71.0598 1556.00
71.364 943.00
71.6683 802.00
71.9725 688.00
72.2768 720.00
72.5811 710.00
72.8853 723.00
73.1896 877.00
73.4938 1374.00
73.7981 1325.00
74.1024 1157.00
74.4066 815.00
74.7109 768.00
75.0151 945.00
75.3194 1022.00
75.6237 1050.00
75.9279 836.00
76.2322 749.00
76.5364 847.00
76.8407 804.00
77.145 721.00
77.4492 981.00
77.7535 1550.00
78.0577 1511.00
78.362 1007.00
78.6663 1016.00
78.9705 969.00
79.2748 1258.00
79.579 1202.00
79.8833 1061.00
80.1876 1325.00
80.4918 1087.00
80.7961 798.00
81.1003 794.00
81.4046 657.00
81.7089 703.00
82.0131 761.00
82.3174 1045.00
82.6217 1233.00
82.9259 948.00
83.2302 777.00
83.5344 766.00
83.8387 814.00
84.143 802.00
84.4472 888.00
84.7515 849.00
85.0557 862.00
85.36 785.00
85.6643 705.00
85.9685 817.00
86.2728 959.00
86.577 1079.00
86.8813 923.00
87.1856 800.00
87.4898 895.00
87.7941 1275.00
88.0983 1016.00
88.4026 741.00
88.7069 888.00
89.0111 787.00
89.3154 741.00
89.6196 732.00
89.9239 835.00
90.2282 807.00
90.5324 700.00
90.8367 643.00
91.1409 796.00
91.4452 812.00
91.7495 1052.00
92.0537 1072.00
92.358 1015.00
92.6622 1312.00
92.9665 1279.00
93.2708 1287.00
93.575 1054.00
93.8793 791.00
94.1835 793.00
94.4878 801.00
94.7921 779.00
95.0963 748.00
95.4006 767.00
95.7048 831.00
96.0091 904.00
96.3134 965.00
96.6176 843.00
96.9219 824.00
97.2261 831.00
97.5304 746.00
97.8347 756.00
98.1389 796.00
98.4432 1018.00
98.7474 1004.00
99.0517 922.00
99.356 931.00
99.6602 1068.00
99.9645 1045.00
100.095 1046.00

File: NSC_27.xy
9.903433 2630.00
10.2077 2747.00
10.512 2629.00
10.8162 2439.00
11.1205 2402.00
11.4247 2434.00
11.729 2283.00
12.0333 2123.00
12.3375 2106.00
12.6418 2112.00
12.946 2082.00
13.2503 2000.00
13.5546 1972.00
13.8588 2009.00
14.1631 2749.00
14.4673 2250.00
14.7716 1926.00
15.0759 2073.00
15.3801 2520.00
15.6844 1797.00
15.9886 1806.00
16.2929 1710.00
16.5972 1758.00
16.9014 1732.00
17.2057 1705.00
17.5099 1664.00
17.8142 1733.00
18.1185 1608.00
18.4227 1714.00
18.727 1531.00
19.0312 1652.00
19.3355 1876.00
19.6398 4885.00
19.944 3128.00
20.2483 2628.00
20.5525 11172.00
20.8568 3309.00
21.1611 2208.00
21.4653 1716.00
21.7696 1805.00
22.0738 4387.00
22.3781 1752.00
22.6824 1562.00
22.9866 1631.00
23.2909 1929.00
23.5951 6807.00
23.8994 3385.00
24.2037 1639.00
24.5079 1544.00
24.8122 1567.00
25.1164 1824.00
25.4207 5771.00
25.725 1596.00
26.0292 1919.00
26.3335 2635.00
26.6378 1339.00
26.942 1377.00
27.2463 1366.00
27.5505 1305.00
27.8548 1436.00
28.1591 1590.00
28.4633 6685.00
28.7676 2108.00
29.0718 1368.00
29.3761 1331.00
29.6804 1215.00
29.9846 1314.00
30.2889 1596.00
30.5931 3642.00
30.8974 1549.00
31.2017 2476.00
31.5059 9883.00
31.8102 2601.00
32.1144 1275.00
32.4187 1314.00
32.723 1251.00
33.0272 1343.00
33.3315 2460.00
33.6357 3435.00
33.94 1742.00
34.2443 1860.00
34.5485 1293.00
34.8528 1374.00
35.157 2590.00
35.4613 2580.00
35.7656 4815.00
36.0698 1723.00
36.3741 1264.00
36.6783 1142.00
36.9826 1094.00
37.2869 1111.00
37.5911 1137.00
37.8954 1492.00
38.1996 1415.00
38.5039 1997.00
38.8082 1478.00
39.1124 1155.00
39.4167 1164.00
39.7209 1628.00
40.0252 1398.00
40.3295 1067.00
40.6337 1335.00
40.938 1137.00
41.2422 1354.00
41.5465 1902.00
41.8508 1409.00
42.155 1456.00
42.4593 1332.00
42.7635 1055.00
43.0678 1638.00
43.3721 1726.00
43.6763 1103.00
43.9806 1375.00
44.2849 1179.00
44.5891 1189.00
44.8934 1720.00
45.1976 2851.00
45.5019 1253.00
45.8062 1111.00
46.1104 2083.00
46.4147 1884.00
46.7189 1905.00
47.0232 1293.00
47.3275 1152.00
47.6317 1278.00
47.936 1928.00
48.2402 4078.00
48.5445 1719.00
48.8488 1670.00
49.153 1253.00
49.4573 1262.00
49.7615 1575.00
50.0658 1321.00
50.3701 1185.00
50.6743 1103.00
50.9786 1372.00
51.2828 1985.00
51.5871 2899.00
51.8914 2441.00
52.1956 1400.00
52.4999 1089.00
52.8041 1186.00
53.1084 1121.00
53.4127 1026.00
53.7169 1056.00
54.0212 1084.00
54.3254 1767.00
54.6297 1511.00
54.934 1703.00
55.2382 2167.00
55.5425 3277.00
55.8467 2478.00
56.151 1369.00
56.4553 1059.00
56.7595 1150.00
57.0638 1249.00
57.368 1185.00
57.6723 1137.00
57.9766 1177.00
58.2808 1579.00
58.5851 1775.00
58.8893 1324.00
59.1936 1148.00
59.4979 1115.00
59.8021 1620.00
60.1064 2436.00
60.4106 1940.00
60.7149 1538.00
61.0192 1595.00
61.3234 2206.00
61.6277 1485.00
61.932 1458.00
62.2362 1523.00
62.5405 1514.00
62.8447 1315.00
63.149 1259.00
63.4533 1437.00
63.7575 1692.00
64.0618 1730.00
64.366 1460.00
64.6703 1450.00
64.9745 1061.00
65.2788 1249.00
65.5831 1247.00
65.8873 1424.00
66.1916 2204.00
66.4959 2027.00
66.8001 1226.00
67.1044 1178.00
67.4086 1305.00
67.7129 1471.00
68.0172 1391.00
68.3214 1134.00
68.6257 1156.00
68.9299 1443.00
69.2342 1509.00
69.5385 1364.00
69.8427 1169.00
70.147 1054.00
70.4512 1101.00
70.7555 1283.00
71.0598 1537.00
71.364 1445.00
71.6683 1140.00
71.9725 1009.00
72.2768 1007.00
72.5811 1033.00
72.8853 1032.00
73.1896 1044.00
73.4938 1280.00
73.7981 1334.00
74.1024 1272.00
74.4066 1098.00
74.7109 1095.00
75.0151 1399.00
75.3194 1629.00
75.6237 1327.00
75.9279 1105.00
76.2322 994.00
76.5364 970.00
76.8407 1027.00
77.145 1084.00
77.4492 1150.00
77.7535 1151.00
78.0577 1162.00
78.362 1052.00
78.6663 1320.00
78.9705 1405.00
79.2748 1352.00
79.579 1167.00
79.8833 1133.00
80.1876 1113.00
80.4918 1068.00
80.7961 1175.00
81.1003 1255.00
81.4046 1129.00
81.7089 1028.00
82.0131 976.00
82.3174 1028.00
82.6217 1094.00
82.9259 1015.00
83.2302 1046.00
83.5344 1273.00
83.8387 1281.00
84.143 1116.00
84.4472 1114.00
84.7515 1177.00
85.0557 1205.00
85.36 1112.00
85.6643 1123.00
85.9685 1196.00
86.2728 1208.00
86.577 1131.00
86.8813 1072.00
87.1856 1041.00
87.4898 1106.00
87.7941 1074.00
88.0983 1100.00
88.4026 1044.00
88.7069 1049.00
89.0111 1005.00
89.3154 1196.00
89.6196 1336.00
89.9239 1279.00
90.2282 1087.00
90.5324 1048.00
90.8367 936.00
91.1409 1073.00
91.4452 1241.00
91.7495 1246.00
92.0537 1156.00
92.358 1158.00
92.6622 1184.00
92.9665 1219.00
93.2708 1168.00
93.575 1075.00
93.8793 1100.00
94.1835 1104.00
94.4878 1108.00
94.7921 1068.00
95.0963 1169.00
95.4006 1260.00
95.7048 1154.00
96.0091 1165.00
96.3134 1194.00
96.6176 1165.00
96.9219 1129.00
97.2261 1039.00
97.5304 1013.00
97.8347 992.00
98.1389 1008.00
98.4432 1082.00
98.7474 1193.00
99.0517 1199.00
99.356 1064.00
99.6602 1118.00
99.9645 1218.00
100.095 1271.00