Folder: alab-pipeline/data/xrd_creation/results (part 61)

File: NSC_145.xy
9.903433 2931.00
10.2077 2895.00
10.512 2719.00
10.8162 2653.00
11.1205 2570.00
11.4247 2440.00
11.729 2408.00
12.0333 2313.00
12.3375 2322.00
12.6418 2203.00
12.946 2139.00
13.2503 2070.00
13.5546 2000.00
13.8588 2078.00
14.1631 1994.00
14.4673 1928.00
14.7716 1925.00
15.0759 1867.00
15.3801 1990.00
15.6844 1972.00
15.9886 1902.00
16.2929 1897.00
16.5972 1896.00
16.9014 1937.00
17.2057 1874.00
17.5099 1867.00
17.8142 1984.00
18.1185 1883.00
18.4227 1871.00
18.727 2008.00
19.0312 1924.00
19.3355 1978.00
19.6398 2074.00
19.944 2016.00
20.2483 2072.00
20.5525 2104.00
20.8568 2329.00
21.1611 2195.00
21.4653 2322.00
21.7696 2275.00
22.0738 2270.00
22.3781 2349.00
22.6824 2337.00
22.9866 2299.00
23.2909 2252.00
23.5951 2223.00
23.8994 2109.00
24.2037 2172.00
24.5079 2106.00
24.8122 2081.00
25.1164 2158.00
25.4207 2116.00
25.725 2053.00
26.0292 2114.00
26.3335 2074.00
26.6378 1951.00
26.942 2040.00
27.2463 2113.00
27.5505 2103.00
27.8548 2041.00
28.1591 1988.00
28.4633 1990.00
28.7676 2061.00
29.0718 2019.00
29.3761 2104.00
29.6804 1972.00
29.9846 1923.00
30.2889 1985.00
30.5931 1935.00
30.8974 1878.00
31.2017 1891.00
31.5059 1850.00
31.8102 1841.00
32.1144 1751.00
32.4187 1832.00
32.723 1705.00
33.0272 1624.00
33.3315 1629.00
33.6357 1578.00
33.94 1545.00
34.2443 1483.00
34.5485 1486.00
34.8528 1459.00
35.157 1427.00
35.4613 1308.00
35.7656 1339.00
36.0698 1211.00
36.3741 1200.00
36.6783 1168.00
36.9826 1132.00
37.2869 1148.00
37.5911 1126.00
37.8954 1087.00
38.1996 1059.00
38.5039 1121.00
38.8082 1086.00
39.1124 1058.00
39.4167 1027.00
39.7209 1022.00
40.0252 1008.00
40.3295 1005.00
40.6337 992.00
40.938 963.00
41.2422 976.00
41.5465 1021.00
41.8508 996.00
42.155 1000.00
42.4593 996.00
42.7635 986.00
43.0678 890.00
43.3721 985.00
43.6763 969.00
43.9806 969.00
44.2849 926.00
44.5891 889.00
44.8934 897.00
45.1976 866.00
45.5019 943.00
45.8062 900.00
46.1104 895.00
46.4147 923.00
46.7189 943.00
47.0232 873.00
47.3275 910.00
47.6317 843.00
47.936 848.00
48.2402 849.00
48.5445 867.00
48.8488 865.00
49.153 789.00
49.4573 840.00
49.7615 794.00
50.0658 811.00
50.3701 882.00
50.6743 833.00
50.9786 776.00
51.2828 800.00
51.5871 852.00
51.8914 867.00
52.1956 780.00
52.4999 814.00
52.8041 804.00
53.1084 793.00
53.4127 809.00
53.7169 762.00
54.0212 768.00
54.3254 756.00
54.6297 806.00
54.934 773.00
55.2382 746.00
55.5425 764.00
55.8467 765.00
56.151 758.00
56.4553 812.00
56.7595 785.00
57.0638 817.00
57.368 768.00
57.6723 789.00
57.9766 751.00
58.2808 741.00
58.5851 740.00
58.8893 696.00
59.1936 718.00
59.4979 701.00
59.8021 735.00
60.1064 809.00
60.4106 721.00
60.7149 790.00
61.0192 783.00
61.3234 744.00
61.6277 704.00
61.932 737.00
62.2362 766.00
62.5405 738.00
62.8447 748.00
63.149 700.00
63.4533 734.00
63.7575 764.00
64.0618 794.00
64.366 697.00
64.6703 708.00
64.9745 694.00
65.2788 709.00
65.5831 734.00
65.8873 696.00
66.1916 642.00
66.4959 706.00
66.8001 684.00
67.1044 707.00
67.4086 687.00
67.7129 658.00
68.0172 668.00
68.3214 694.00
68.6257 654.00
68.9299 650.00
69.2342 645.00
69.5385 648.00
69.8427 613.00
70.147 629.00
70.4512 615.00
70.7555 632.00
71.0598 640.00
71.364 640.00
71.6683 623.00
71.9725 564.00
72.2768 635.00
72.5811 589.00
72.8853 623.00
73.1896 594.00
73.4938 616.00
73.7981 633.00
74.1024 572.00
74.4066 596.00
74.7109 557.00
75.0151 545.00
75.3194 574.00
75.6237 539.00
75.9279 539.00
76.2322 562.00
76.5364 552.00
76.8407 509.00
77.145 530.00
77.4492 493.00
77.7535 552.00
78.0577 521.00
78.362 509.00
78.6663 470.00
78.9705 534.00
79.2748 485.00
79.579 519.00
79.8833 510.00
80.1876 508.00
80.4918 513.00
80.7961 539.00
81.1003 493.00
81.4046 489.00
81.7089 486.00
82.0131 519.00
82.3174 499.00
82.6217 474.00
82.9259 493.00
83.2302 489.00
83.5344 458.00
83.8387 478.00
84.143 509.00
84.4472 430.00
84.7515 494.00
85.0557 500.00
85.36 447.00
85.6643 429.00
85.9685 400.00
86.2728 388.00
86.577 424.00
86.8813 442.00
87.1856 460.00
87.4898 436.00
87.7941 429.00
88.0983 396.00
88.4026 438.00
88.7069 477.00
89.0111 408.00
89.3154 429.00
89.6196 401.00
89.9239 408.00
90.2282 440.00
90.5324 421.00
90.8367 421.00
91.1409 401.00
91.4452 439.00
91.7495 386.00
92.0537 412.00
92.358 441.00
92.6622 408.00
92.9665 427.00
93.2708 418.00
93.575 412.00
93.8793 425.00
94.1835 442.00
94.4878 428.00
94.7921 386.00
95.0963 398.00
95.4006 434.00
95.7048 430.00
96.0091 425.00
96.3134 427.00
96.6176 437.00
96.9219 438.00
97.2261 412.00
97.5304 387.00
97.8347 397.00
98.1389 391.00
98.4432 413.00
98.7474 412.00
99.0517 415.00
99.356 435.00
99.6602 417.00
99.9645 379.00
100.095 351.00

File: NSC_146.xy
9.903433 2557.00
10.2077 2549.00
10.512 2501.00
10.8162 2502.00
11.1205 2279.00
11.4247 2447.00
11.729 2165.00
12.0333 2193.00
12.3375 2250.00
12.6418 2195.00
12.946 3258.00
13.2503 2001.00
13.5546 2610.00
13.8588 2473.00
14.1631 1733.00
14.4673 1729.00
14.7716 1649.00
15.0759 1576.00
15.3801 1622.00
15.6844 1831.00
15.9886 1572.00
16.2929 1660.00
16.5972 2814.00
16.9014 1637.00
17.2057 1559.00
17.5099 1438.00
17.8142 1437.00
18.1185 1492.00
18.4227 1676.00
18.727 1358.00
19.0312 1330.00
19.3355 1329.00
19.6398 1499.00
19.944 3677.00
20.2483 1847.00
20.5525 2824.00
20.8568 8252.00
21.1611 9870.00
21.4653 8188.00
21.7696 2645.00
22.0738 1392.00
22.3781 1233.00
22.6824 1279.00
22.9866 1410.00
23.2909 1294.00
23.5951 1267.00
23.8994 3132.00
24.2037 1708.00
24.5079 1970.00
24.8122 2559.00
25.1164 1492.00
25.4207 1146.00
25.725 1523.00
26.0292 1034.00
26.3335 1347.00
26.6378 1558.00
26.942 1155.00
27.2463 1368.00
27.5505 987.00
27.8548 1073.00
28.1591 1231.00
28.4633 1116.00
28.7676 918.00
29.0718 856.00
29.3761 1309.00
29.6804 1591.00
29.9846 1074.00
30.2889 1420.00
30.5931 1498.00
30.8974 976.00
31.2017 962.00
31.5059 1015.00
31.8102 1927.00
32.1144 3432.00
32.4187 2748.00
32.723 1629.00
33.0272 1374.00
33.3315 1220.00
33.6357 1381.00
33.94 1564.00
34.2443 12789.00
34.5485 12922.00
34.8528 9915.00
35.157 7300.00
35.4613 1316.00
35.7656 1264.00
36.0698 1940.00
36.3741 2364.00
36.6783 3027.00
36.9826 1417.00
37.2869 1116.00
37.5911 1241.00
37.8954 1056.00
38.1996 927.00
38.5039 872.00
38.8082 951.00
39.1124 892.00
39.4167 1010.00
39.7209 1062.00
40.0252 885.00
40.3295 796.00
40.6337 1234.00
40.938 958.00
41.2422 1053.00
41.5465 1298.00
41.8508 828.00
42.155 879.00
42.4593 1659.00
42.7635 1516.00
43.0678 1308.00
43.3721 937.00
43.6763 876.00
43.9806 960.00
44.2849 860.00
44.5891 1146.00
44.8934 725.00
45.1976 891.00
45.5019 923.00
45.8062 907.00
46.1104 850.00
46.4147 884.00
46.7189 1017.00
47.0232 758.00
47.3275 1042.00
47.6317 1300.00
47.936 1756.00
48.2402 795.00
48.5445 979.00
48.8488 805.00
49.153 1191.00
49.4573 3313.00
49.7615 3768.00
50.0658 1184.00
50.3701 783.00
50.6743 1255.00
50.9786 934.00
51.2828 899.00
51.5871 847.00
51.8914 753.00
52.1956 750.00
52.4999 846.00
52.8041 1120.00
53.1084 693.00
53.4127 1165.00
53.7169 983.00
54.0212 1025.00
54.3254 1096.00
54.6297 879.00
54.934 850.00
55.2382 1202.00
55.5425 1256.00
55.8467 1283.00
56.151 1151.00
56.4553 890.00
56.7595 1529.00
57.0638 1388.00
57.368 758.00
57.6723 640.00
57.9766 655.00
58.2808 821.00
58.5851 840.00
58.8893 658.00
59.1936 750.00
59.4979 740.00
59.8021 928.00
60.1064 823.00
60.4106 942.00
60.7149 857.00
61.0192 1748.00
61.3234 4264.00
61.6277 3322.00
61.932 1870.00
62.2362 1668.00
62.5405 1743.00
62.8447 1676.00
63.149 1920.00
63.4533 929.00
63.7575 936.00
64.0618 935.00
64.366 947.00
64.6703 811.00
64.9745 848.00
65.2788 976.00
65.5831 985.00
65.8873 927.00
66.1916 867.00
66.4959 953.00
66.8001 861.00
67.1044 689.00
67.4086 689.00
67.7129 718.00
68.0172 895.00
68.3214 1284.00
68.6257 718.00
68.9299 609.00
69.2342 718.00
69.5385 803.00
69.8427 607.00
70.147 634.00
70.4512 591.00
70.7555 657.00
71.0598 838.00
71.364 622.00
71.6683 717.00
71.9725 937.00
72.2768 810.00
72.5811 757.00
72.8853 930.00
73.1896 787.00
73.4938 675.00
73.7981 737.00
74.1024 649.00
74.4066 567.00
74.7109 614.00
75.0151 577.00
75.3194 502.00
75.6237 567.00
75.9279 633.00
76.2322 557.00
76.5364 704.00
76.8407 659.00
77.145 612.00
77.4492 590.00
77.7535 537.00
78.0577 554.00
78.362 508.00
78.6663 592.00
78.9705 598.00
79.2748 590.00
79.579 567.00
79.8833 580.00
80.1876 520.00
80.4918 555.00
80.7961 609.00
81.1003 493.00
81.4046 536.00
81.7089 578.00
82.0131 939.00
82.3174 1033.00
82.6217 1037.00
82.9259 995.00
83.2302 794.00
83.5344 719.00
83.8387 641.00
84.143 584.00
84.4472 456.00
84.7515 534.00
85.0557 512.00
85.36 500.00
85.6643 558.00
85.9685 584.00
86.2728 553.00
86.577 583.00
86.8813 548.00
87.1856 490.00
87.4898 544.00
87.7941 540.00
88.0983 570.00
88.4026 581.00
88.7069 563.00
89.0111 543.00
89.3154 511.00
89.6196 545.00
89.9239 649.00
90.2282 596.00
90.5324 489.00
90.8367 477.00
91.1409 553.00
91.4452 518.00
91.7495 582.00
92.0537 654.00
92.358 607.00
92.6622 557.00
92.9665 622.00
93.2708 594.00
93.575 504.00
93.8793 472.00
94.1835 517.00
94.4878 573.00
94.7921 538.00
95.0963 545.00
95.4006 658.00
95.7048 624.00
96.0091 470.00
96.3134 534.00
96.6176 524.00
96.9219 525.00
97.2261 546.00
97.5304 581.00
97.8347 524.00
98.1389 574.00
98.4432 567.00
98.7474 628.00
99.0517 583.00
99.356 545.00
99.6602 543.00
99.9645 477.00
100.095 552.00

File: NSC_147.xy
9.903433 2523.00
10.2077 2471.00
10.512 2468.00
10.8162 2209.00
11.1205 2113.00
11.4247 2037.00
11.729 1961.00
12.0333 1834.00
12.3375 1925.00
12.6418 1922.00
12.946 1717.00
13.2503 1925.00
13.5546 2469.00
13.8588 1768.00
14.1631 1606.00
14.4673 1533.00
14.7716 1552.00
15.0759 1561.00
15.3801 1497.00
15.6844 1454.00
15.9886 1446.00
16.2929 1407.00
16.5972 1314.00
16.9014 1359.00
17.2057 1433.00
17.5099 1334.00
17.8142 1257.00
18.1185 1253.00
18.4227 1285.00
18.727 1288.00
19.0312 1703.00
19.3355 2175.00
19.6398 1127.00
19.944 1090.00
20.2483 1205.00
20.5525 1034.00
20.8568 1047.00
21.1611 1231.00
21.4653 1540.00
21.7696 1384.00
22.0738 995.00
22.3781 961.00
22.6824 992.00
22.9866 1315.00
23.2909 1151.00
23.5951 957.00
23.8994 898.00
24.2037 861.00
24.5079 868.00
24.8122 905.00
25.1164 1056.00
25.4207 1803.00
25.725 962.00
26.0292 889.00
26.3335 891.00
26.6378 847.00
26.942 1190.00
27.2463 1402.00
27.5505 743.00
27.8548 719.00
28.1591 774.00
28.4633 881.00
28.7676 1542.00
29.0718 756.00
29.3761 1034.00
29.6804 743.00
29.9846 892.00
30.2889 784.00
30.5931 627.00
30.8974 765.00
31.2017 1625.00
31.5059 639.00
31.8102 1261.00
32.1144 4819.00
32.4187 627.00
32.723 587.00
33.0272 748.00
33.3315 1313.00
33.6357 1556.00
33.94 931.00
34.2443 621.00
34.5485 867.00
34.8528 514.00
35.157 561.00
35.4613 509.00
35.7656 552.00
36.0698 556.00
36.3741 799.00
36.6783 723.00
36.9826 616.00
37.2869 605.00
37.5911 567.00
37.8954 442.00
38.1996 482.00
38.5039 583.00
38.8082 988.00
39.1124 615.00
39.4167 502.00
39.7209 515.00
40.0252 1457.00
40.3295 564.00
40.6337 459.00
40.938 605.00
41.2422 674.00
41.5465 419.00
41.8508 632.00
42.155 1333.00
42.4593 1463.00
42.7635 570.00
43.0678 502.00
43.3721 716.00
43.6763 618.00
43.9806 470.00
44.2849 388.00
44.5891 441.00
44.8934 628.00
45.1976 693.00
45.5019 562.00
45.8062 1105.00
46.1104 471.00
46.4147 467.00
46.7189 815.00
47.0232 1158.00
47.3275 477.00
47.6317 575.00
47.936 381.00
48.2402 569.00
48.5445 725.00
48.8488 569.00
49.153 411.00
49.4573 429.00
49.7615 390.00
50.0658 411.00
50.3701 411.00
50.6743 417.00
50.9786 333.00
51.2828 380.00
51.5871 591.00
51.8914 738.00
52.1956 1341.00
52.4999 619.00
52.8041 444.00
53.1084 347.00
53.4127 390.00
53.7169 495.00
54.0212 412.00
54.3254 341.00
54.6297 310.00
54.934 697.00
55.2382 541.00
55.5425 531.00
55.8467 572.00
56.151 769.00
56.4553 401.00
56.7595 347.00
57.0638 471.00
57.368 350.00
57.6723 401.00
57.9766 493.00
58.2808 389.00
58.5851 760.00
58.8893 535.00
59.1936 502.00
59.4979 513.00
59.8021 446.00
60.1064 555.00
60.4106 380.00
60.7149 340.00
61.0192 354.00
61.3234 288.00
61.6277 328.00
61.932 361.00
62.2362 310.00
62.5405 293.00
62.8447 346.00
63.149 562.00
63.4533 613.00
63.7575 358.00
64.0618 298.00
64.366 343.00
64.6703 295.00
64.9745 277.00
65.2788 300.00
65.5831 346.00
65.8873 282.00
66.1916 369.00
66.4959 396.00
66.8001 491.00
67.1044 316.00
67.4086 282.00
67.7129 306.00
68.0172 376.00
68.3214 302.00
68.6257 353.00
68.9299 359.00
69.2342 374.00
69.5385 475.00
69.8427 448.00
70.147 524.00
70.4512 608.00
70.7555 546.00
71.0598 367.00
71.364 343.00
71.6683 355.00
71.9725 321.00
72.2768 291.00
72.5811 306.00
72.8853 276.00
73.1896 287.00
73.4938 294.00
73.7981 352.00
74.1024 345.00
74.4066 351.00
74.7109 264.00
75.0151 279.00
75.3194 323.00
75.6237 283.00
75.9279 384.00
76.2322 368.00
76.5364 523.00
76.8407 458.00
77.145 352.00
77.4492 268.00
77.7535 272.00
78.0577 306.00
78.362 276.00
78.6663 290.00
78.9705 474.00
79.2748 375.00
79.579 306.00
79.8833 270.00
80.1876 357.00
80.4918 297.00
80.7961 271.00
81.1003 271.00
81.4046 267.00
81.7089 338.00
82.0131 330.00
82.3174 350.00
82.6217 315.00
82.9259 367.00
83.2302 302.00
83.5344 367.00
83.8387 349.00
84.143 288.00
84.4472 246.00
84.7515 299.00
85.0557 304.00
85.36 434.00
85.6643 383.00
85.9685 323.00
86.2728 343.00
86.577 295.00
86.8813 278.00
87.1856 237.00
87.4898 397.00
87.7941 364.00
88.0983 364.00
88.4026 292.00
88.7069 290.00
89.0111 307.00
89.3154 281.00
89.6196 281.00
89.9239 281.00
90.2282 323.00
90.5324 324.00
90.8367 283.00
91.1409 376.00
91.4452 414.00
91.7495 380.00
92.0537 308.00
92.358 360.00
92.6622 313.00
92.9665 302.00
93.2708 300.00
93.575 295.00
93.8793 300.00
94.1835 287.00
94.4878 261.00
94.7921 281.00
95.0963 289.00
95.4006 315.00
95.7048 342.00
96.0091 295.00
96.3134 318.00
96.6176 245.00
96.9219 245.00
97.2261 294.00
97.5304 327.00
97.8347 281.00
98.1389 250.00
98.4432 263.00
98.7474 321.00
99.0517 301.00
99.356 324.00
99.6602 315.00
99.9645 311.00
100.095 292.00

File: NSC_148.xy
9.903433 2655.00
10.2077 2605.00
10.512 2433.00
10.8162 2415.00
11.1205 2366.00
11.4247 2193.00
11.729 2163.00
12.0333 2127.00
12.3375 1991.00
12.6418 1934.00
12.946 1902.00
13.2503 1920.00
13.5546 2363.00
13.8588 2626.00
14.1631 1764.00
14.4673 1779.00
14.7716 2168.00
15.0759 1794.00
15.3801 1579.00
15.6844 1729.00
15.9886 1562.00
16.2929 1552.00
16.5972 1535.00
16.9014 1516.00
17.2057 1468.00
17.5099 1554.00
17.8142 1416.00
18.1185 1389.00
18.4227 1412.00
18.727 1448.00
19.0312 2084.00
19.3355 11795.00
19.6398 8816.00
19.944 1619.00
20.2483 1303.00
20.5525 1405.00
20.8568 1938.00
21.1611 1279.00
21.4653 1278.00
21.7696 1293.00
22.0738 1510.00
22.3781 1235.00
22.6824 1569.00
22.9866 1598.00
23.2909 1131.00
23.5951 1145.00
23.8994 1291.00
24.2037 1323.00
24.5079 1165.00
24.8122 1162.00
25.1164 1079.00
25.4207 1320.00
25.725 1381.00
26.0292 1055.00
26.3335 1031.00
26.6378 1013.00
26.942 1016.00
27.2463 1133.00
27.5505 4121.00
27.8548 2098.00
28.1591 1525.00
28.4633 2081.00
28.7676 1061.00
29.0718 989.00
29.3761 1048.00
29.6804 987.00
29.9846 1618.00
30.2889 1313.00
30.5931 1239.00
30.8974 3892.00
31.2017 7327.00
31.5059 1828.00
31.8102 1832.00
32.1144 990.00
32.4187 1081.00
32.723 1388.00
33.0272 1030.00
33.3315 964.00
33.6357 1578.00
33.94 11781.00
34.2443 2667.00
34.5485 1446.00
34.8528 1102.00
35.157 911.00
35.4613 1146.00
35.7656 952.00
36.0698 1011.00
36.3741 781.00
36.6783 791.00
36.9826 794.00
37.2869 883.00
37.5911 742.00
37.8954 774.00
38.1996 772.00
38.5039 856.00
38.8082 826.00
39.1124 911.00
39.4167 1737.00
39.7209 1640.00
40.0252 796.00
40.3295 775.00
40.6337 738.00
40.938 933.00
41.2422 1509.00
41.5465 942.00
41.8508 1330.00
42.155 1729.00
42.4593 1202.00
42.7635 795.00
43.0678 775.00
43.3721 831.00
43.6763 704.00
43.9806 830.00
44.2849 3713.00
44.5891 2495.00
44.8934 919.00
45.1976 892.00
45.5019 795.00
45.8062 876.00
46.1104 1009.00
46.4147 1370.00
46.7189 4645.00
47.0232 1926.00
47.3275 786.00
47.6317 700.00
47.936 709.00
48.2402 899.00
48.5445 926.00
48.8488 1330.00
49.153 948.00
49.4573 1006.00
49.7615 857.00
50.0658 816.00
50.3701 1202.00
50.6743 1159.00
50.9786 1470.00
51.2828 3097.00
51.5871 874.00
51.8914 823.00
52.1956 792.00
52.4999 890.00
52.8041 3531.00
53.1084 3303.00
53.4127 856.00
53.7169 640.00
54.0212 778.00
54.3254 935.00
54.6297 808.00
54.934 656.00
55.2382 678.00
55.5425 857.00
55.8467 873.00
56.151 755.00
56.4553 770.00
56.7595 800.00
57.0638 1089.00
57.368 836.00
57.6723 838.00
57.9766 831.00
58.2808 842.00
58.5851 1043.00
58.8893 4068.00
59.1936 2941.00
59.4979 1484.00
59.8021 878.00
60.1064 792.00
60.4106 939.00
60.7149 2341.00
61.0192 1271.00
61.3234 898.00
61.6277 742.00
61.932 776.00
62.2362 856.00
62.5405 906.00
62.8447 1529.00
63.149 1459.00
63.4533 958.00
63.7575 718.00
64.0618 757.00
64.366 1405.00
64.6703 854.00
64.9745 711.00
65.2788 642.00
65.5831 853.00
65.8873 1045.00
66.1916 1349.00
66.4959 1836.00
66.8001 1618.00
67.1044 814.00
67.4086 651.00
67.7129 818.00
68.0172 1378.00
68.3214 765.00
68.6257 774.00
68.9299 742.00
69.2342 742.00
69.5385 735.00
69.8427 676.00
70.147 651.00
70.4512 637.00
70.7555 662.00
71.0598 779.00
71.364 1679.00
71.6683 1087.00
71.9725 747.00
72.2768 723.00
72.5811 672.00
72.8853 759.00
73.1896 793.00
73.4938 987.00
73.7981 1049.00
74.1024 673.00
74.4066 685.00
74.7109 1489.00
75.0151 1041.00
75.3194 806.00
75.6237 844.00
75.9279 719.00
76.2322 640.00
76.5364 1045.00
76.8407 1096.00
77.145 862.00
77.4492 742.00
77.7535 743.00
78.0577 727.00
78.362 643.00
78.6663 660.00
78.9705 645.00
79.2748 658.00
79.579 839.00
79.8833 1519.00
80.1876 1294.00
80.4918 1036.00
80.7961 779.00
81.1003 753.00
81.4046 1062.00
81.7089 951.00
82.0131 741.00
82.3174 724.00
82.6217 667.00
82.9259 733.00
83.2302 670.00
83.5344 747.00
83.8387 684.00
84.143 604.00
84.4472 704.00
84.7515 766.00
85.0557 701.00
85.36 702.00
85.6643 631.00
85.9685 693.00
86.2728 761.00
86.577 1221.00
86.8813 1127.00
87.1856 878.00
87.4898 813.00
87.7941 885.00
88.0983 912.00
88.4026 831.00
88.7069 775.00
89.0111 811.00
89.3154 840.00
89.6196 990.00
89.9239 971.00
90.2282 913.00
90.5324 756.00
90.8367 719.00
91.1409 939.00
91.4452 917.00
91.7495 701.00
92.0537 690.00
92.358 727.00
92.6622 740.00
92.9665 954.00
93.2708 1122.00
93.575 945.00
93.8793 649.00
94.1835 799.00
94.4878 1034.00
94.7921 912.00
95.0963 808.00
95.4006 816.00
95.7048 896.00
96.0091 798.00
96.3134 658.00
96.6176 642.00
96.9219 678.00
97.2261 703.00
97.5304 668.00
97.8347 766.00
98.1389 680.00
98.4432 723.00
98.7474 743.00
99.0517 723.00
99.356 1269.00
99.6602 1341.00
99.9645 1188.00
100.095 1011.00

File: NSC_149.xy
9.903433 2814.00
10.2077 2700.00
10.512 2565.00
10.8162 2475.00
11.1205 2410.00
11.4247 2361.00
11.729 2236.00
12.0333 2177.00
12.3375 2089.00
12.6418 2004.00
12.946 1976.00
13.2503 2023.00
13.5546 2630.00
13.8588 2037.00
14.1631 1776.00
14.4673 2038.00
14.7716 2109.00
15.0759 1786.00
15.3801 1729.00
15.6844 1707.00
15.9886 1666.00
16.2929 1666.00
16.5972 1639.00
16.9014 1626.00
17.2057 1609.00
17.5099 1572.00
17.8142 1514.00
18.1185 1490.00
18.4227 1442.00
18.727 1585.00
19.0312 2376.00
19.3355 10705.00
19.6398 2811.00
19.944 1528.00
20.2483 1457.00
20.5525 1624.00
20.8568 1645.00
21.1611 1392.00
21.4653 1365.00
21.7696 1525.00
22.0738 1592.00
22.3781 1357.00
22.6824 3297.00
22.9866 1383.00
23.2909 1244.00
23.5951 1260.00
23.8994 1376.00
24.2037 1196.00
24.5079 1189.00
24.8122 1130.00
25.1164 1154.00
25.4207 1609.00
25.725 1200.00
26.0292 1060.00
26.3335 1072.00
26.6378 1078.00
26.942 1070.00
27.2463 1225.00
27.5505 5483.00
27.8548 1147.00
28.1591 1339.00
28.4633 1080.00
28.7676 1010.00
29.0718 964.00
29.3761 1345.00
29.6804 1193.00
29.9846 3053.00
30.2889 1165.00
30.5931 1343.00
30.8974 8673.00
31.2017 2220.00
31.5059 1449.00
31.8102 1125.00
32.1144 1012.00
32.4187 1067.00
32.723 1560.00
33.0272 955.00
33.3315 1085.00
33.6357 4752.00
33.94 4478.00
34.2443 1745.00
34.5485 997.00
34.8528 1031.00
35.157 879.00
35.4613 850.00
35.7656 790.00
36.0698 920.00
36.3741 870.00
36.6783 801.00
36.9826 828.00
37.2869 897.00
37.5911 739.00
37.8954 730.00
38.1996 797.00
38.5039 892.00
38.8082 796.00
39.1124 907.00
39.4167 1097.00
39.7209 999.00
40.0252 800.00
40.3295 737.00
40.6337 773.00
40.938 1041.00
41.2422 1441.00
41.5465 818.00
41.8508 1010.00
42.155 1062.00
42.4593 734.00
42.7635 759.00
43.0678 823.00
43.3721 748.00
43.6763 739.00
43.9806 1228.00
44.2849 2671.00
44.5891 1131.00
44.8934 1143.00
45.1976 771.00
45.5019 740.00
45.8062 1215.00
46.1104 895.00
46.4147 4039.00
46.7189 1957.00
47.0232 870.00
47.3275 623.00
47.6317 641.00
47.936 750.00
48.2402 902.00
48.5445 962.00
48.8488 766.00
49.153 1187.00
49.4573 768.00
49.7615 650.00
50.0658 893.00
50.3701 1250.00
50.6743 768.00
50.9786 1735.00
51.2828 1220.00
51.5871 669.00
51.8914 712.00
52.1956 719.00
52.4999 1224.00
52.8041 2811.00
53.1084 1081.00
53.4127 599.00
53.7169 612.00
54.0212 714.00
54.3254 824.00
54.6297 553.00
54.934 655.00
55.2382 628.00
55.5425 620.00
55.8467 649.00
56.151 555.00
56.4553 540.00
56.7595 822.00
57.0638 747.00
57.368 669.00
57.6723 704.00
57.9766 667.00
58.2808 861.00
58.5851 2265.00
58.8893 2412.00
59.1936 1137.00
59.4979 935.00
59.8021 604.00
60.1064 689.00
60.4106 1651.00
60.7149 1091.00
61.0192 1039.00
61.3234 746.00
61.6277 589.00
61.932 605.00
62.2362 717.00
62.5405 810.00
62.8447 857.00
63.149 878.00
63.4533 616.00
63.7575 507.00
64.0618 946.00
64.366 719.00
64.6703 645.00
64.9745 537.00
65.2788 698.00
65.5831 847.00
65.8873 711.00
66.1916 1178.00
66.4959 1048.00
66.8001 880.00
67.1044 534.00
67.4086 554.00
67.7129 989.00
68.0172 548.00
68.3214 509.00
68.6257 631.00
68.9299 677.00
69.2342 640.00
69.5385 572.00
69.8427 503.00
70.147 469.00
70.4512 532.00
70.7555 570.00
71.0598 1310.00
71.364 792.00
71.6683 520.00
71.9725 513.00
72.2768 567.00
72.5811 608.00
72.8853 532.00
73.1896 564.00
73.4938 845.00
73.7981 600.00
74.1024 485.00
74.4066 851.00
74.7109 601.00
75.0151 527.00
75.3194 565.00
75.6237 517.00
75.9279 512.00
76.2322 576.00
76.5364 690.00
76.8407 661.00
77.145 578.00
77.4492 567.00
77.7535 526.00
78.0577 470.00
78.362 482.00
78.6663 502.00
78.9705 522.00
79.2748 535.00
79.579 892.00
79.8833 680.00
80.1876 706.00
80.4918 508.00
80.7961 517.00
81.1003 780.00
81.4046 676.00
81.7089 470.00
82.0131 485.00
82.3174 506.00
82.6217 549.00
82.9259 489.00
83.2302 491.00
83.5344 418.00
83.8387 424.00
84.143 504.00
84.4472 513.00
84.7515 470.00
85.0557 510.00
85.36 487.00
85.6643 544.00
85.9685 541.00
86.2728 774.00
86.577 707.00
86.8813 621.00
87.1856 605.00
87.4898 533.00
87.7941 542.00
88.0983 465.00
88.4026 550.00
88.7069 496.00
89.0111 595.00
89.3154 651.00
89.6196 587.00
89.9239 575.00
90.2282 510.00
90.5324 413.00
90.8367 550.00
91.1409 574.00
91.4452 451.00
91.7495 457.00
92.0537 517.00
92.358 508.00
92.6622 647.00
92.9665 714.00
93.2708 618.00
93.575 505.00
93.8793 581.00
94.1835 695.00
94.4878 546.00
94.7921 490.00
95.0963 517.00
95.4006 567.00
95.7048 547.00
96.0091 428.00
96.3134 473.00
96.6176 496.00
96.9219 474.00
97.2261 465.00
97.5304 464.00
97.8347 469.00
98.1389 484.00
98.4432 461.00
98.7474 483.00
99.0517 733.00
99.356 676.00
99.6602 554.00
99.9645 506.00
100.095 491.00