Folder: alab-pipeline/data/xrd_creation/results (part 27)

File: Na_274.xy
9.903433 2811.00
10.2077 2744.00
10.512 2866.00
10.8162 2383.00
11.1205 2373.00
11.4247 2200.00
11.729 2205.00
12.0333 2052.00
12.3375 1960.00
12.6418 1975.00
12.946 1880.00
13.2503 1752.00
13.5546 1789.00
13.8588 1697.00
14.1631 1966.00
14.4673 1693.00
14.7716 1901.00
15.0759 1620.00
15.3801 1620.00
15.6844 1625.00
15.9886 2756.00
16.2929 1514.00
16.5972 1854.00
16.9014 1597.00
17.2057 1460.00
17.5099 1411.00
17.8142 1349.00
18.1185 1342.00
18.4227 1384.00
18.727 2438.00
19.0312 1898.00
19.3355 1728.00
19.6398 1764.00
19.944 1716.00
20.2483 1438.00
20.5525 1344.00
20.8568 1241.00
21.1611 1238.00
21.4653 1199.00
21.7696 1165.00
22.0738 1296.00
22.3781 1486.00
22.6824 1417.00
22.9866 1542.00
23.2909 1521.00
23.5951 1279.00
23.8994 1420.00
24.2037 1989.00
24.5079 1076.00
24.8122 1006.00
25.1164 1020.00
25.4207 982.00
25.725 1452.00
26.0292 971.00
26.3335 1185.00
26.6378 969.00
26.942 1022.00
27.2463 1142.00
27.5505 3076.00
27.8548 1212.00
28.1591 2259.00
28.4633 2386.00
28.7676 1703.00
29.0718 1606.00
29.3761 1109.00
29.6804 1250.00
29.9846 1251.00
30.2889 939.00
30.5931 1502.00
30.8974 1457.00
31.2017 1080.00
31.5059 1197.00
31.8102 1104.00
32.1144 1178.00
32.4187 2680.00
32.723 990.00
33.0272 853.00
33.3315 1339.00
33.6357 924.00
33.94 1440.00
34.2443 1045.00
34.5485 1298.00
34.8528 934.00
35.157 1688.00
35.4613 847.00
35.7656 940.00
36.0698 690.00
36.3741 773.00
36.6783 856.00
36.9826 773.00
37.2869 748.00
37.5911 638.00
37.8954 721.00
38.1996 701.00
38.5039 690.00
38.8082 912.00
39.1124 555.00
39.4167 653.00
39.7209 655.00
40.0252 803.00
40.3295 638.00
40.6337 569.00
40.938 558.00
41.2422 640.00
41.5465 686.00
41.8508 742.00
42.155 656.00
42.4593 622.00
42.7635 670.00
43.0678 665.00
43.3721 661.00
43.6763 589.00
43.9806 626.00
44.2849 549.00
44.5891 553.00
44.8934 512.00
45.1976 525.00
45.5019 619.00
45.8062 783.00
46.1104 523.00
46.4147 443.00
46.7189 492.00
47.0232 490.00
47.3275 593.00
47.6317 556.00
47.936 513.00
48.2402 469.00
48.5445 534.00
48.8488 821.00
49.153 541.00
49.4573 470.00
49.7615 557.00
50.0658 481.00
50.3701 659.00
50.6743 703.00
50.9786 559.00
51.2828 508.00
51.5871 555.00
51.8914 648.00
52.1956 594.00
52.4999 507.00
52.8041 477.00
53.1084 467.00
53.4127 598.00
53.7169 631.00
54.0212 554.00
54.3254 625.00
54.6297 735.00
54.934 588.00
55.2382 469.00
55.5425 391.00
55.8467 509.00
56.151 428.00
56.4553 566.00
56.7595 580.00
57.0638 663.00
57.368 482.00
57.6723 456.00
57.9766 424.00
58.2808 585.00
58.5851 607.00
58.8893 527.00
59.1936 555.00
59.4979 463.00
59.8021 545.00
60.1064 455.00
60.4106 466.00
60.7149 513.00
61.0192 450.00
61.3234 390.00
61.6277 425.00
61.932 455.00
62.2362 436.00
62.5405 412.00
62.8447 421.00
63.149 436.00
63.4533 386.00
63.7575 346.00
64.0618 432.00
64.366 472.00
64.6703 422.00
64.9745 425.00
65.2788 387.00
65.5831 396.00
65.8873 417.00
66.1916 438.00
66.4959 352.00
66.8001 374.00
67.1044 394.00
67.4086 393.00
67.7129 314.00
68.0172 360.00
68.3214 386.00
68.6257 384.00
68.9299 424.00
69.2342 346.00
69.5385 345.00
69.8427 401.00
70.147 316.00
70.4512 338.00
70.7555 407.00
71.0598 343.00
71.364 339.00
71.6683 317.00
71.9725 317.00
72.2768 323.00
72.5811 367.00
72.8853 349.00
73.1896 344.00
73.4938 320.00
73.7981 278.00
74.1024 365.00
74.4066 372.00
74.7109 332.00
75.0151 342.00
75.3194 346.00
75.6237 357.00
75.9279 306.00
76.2322 354.00
76.5364 344.00
76.8407 353.00
77.145 366.00
77.4492 362.00
77.7535 372.00
78.0577 370.00
78.362 406.00
78.6663 388.00
78.9705 330.00
79.2748 320.00
79.579 345.00
79.8833 380.00
80.1876 342.00
80.4918 345.00
80.7961 394.00
81.1003 363.00
81.4046 340.00
81.7089 319.00
82.0131 363.00
82.3174 419.00
82.6217 351.00
82.9259 344.00
83.2302 313.00
83.5344 397.00
83.8387 340.00
84.143 308.00
84.4472 307.00
84.7515 369.00
85.0557 398.00
85.36 349.00
85.6643 308.00
85.9685 319.00
86.2728 333.00
86.577 347.00
86.8813 268.00
87.1856 313.00
87.4898 314.00
87.7941 310.00
88.0983 283.00
88.4026 327.00
88.7069 300.00
89.0111 261.00
89.3154 336.00
89.6196 278.00
89.9239 293.00
90.2282 308.00
90.5324 310.00
90.8367 294.00
91.1409 327.00
91.4452 274.00
91.7495 286.00
92.0537 291.00
92.358 295.00
92.6622 300.00
92.9665 291.00
93.2708 277.00
93.575 311.00
93.8793 303.00
94.1835 317.00
94.4878 288.00
94.7921 300.00
95.0963 313.00
95.4006 301.00
95.7048 256.00
96.0091 291.00
96.3134 267.00
96.6176 278.00
96.9219 285.00
97.2261 296.00
97.5304 239.00
97.8347 287.00
98.1389 267.00
98.4432 301.00
98.7474 328.00
99.0517 291.00
99.356 284.00
99.6602 268.00
99.9645 285.00
100.095 238.00

File: Na_275.xy
9.903433 2701.00
10.2077 2400.00
10.512 2464.00
10.8162 2288.00
11.1205 2121.00
11.4247 1920.00
11.729 1989.00
12.0333 1968.00
12.3375 1826.00
12.6418 1741.00
12.946 1674.00
13.2503 1610.00
13.5546 1571.00
13.8588 1596.00
14.1631 1470.00
14.4673 1463.00
14.7716 1378.00
15.0759 1352.00
15.3801 1305.00
15.6844 1309.00
15.9886 1373.00
16.2929 1245.00
16.5972 1240.00
16.9014 1169.00
17.2057 1246.00
17.5099 1197.00
17.8142 1177.00
18.1185 1116.00
18.4227 1099.00
18.727 1072.00
19.0312 1075.00
19.3355 1001.00
19.6398 987.00
19.944 990.00
20.2483 968.00
20.5525 1258.00
20.8568 1151.00
21.1611 879.00
21.4653 924.00
21.7696 909.00
22.0738 892.00
22.3781 821.00
22.6824 888.00
22.9866 820.00
23.2909 779.00
23.5951 781.00
23.8994 754.00
24.2037 741.00
24.5079 744.00
24.8122 749.00
25.1164 743.00
25.4207 745.00
25.725 676.00
26.0292 668.00
26.3335 697.00
26.6378 669.00
26.942 638.00
27.2463 665.00
27.5505 644.00
27.8548 592.00
28.1591 621.00
28.4633 645.00
28.7676 576.00
29.0718 598.00
29.3761 595.00
29.6804 621.00
29.9846 572.00
30.2889 599.00
30.5931 494.00
30.8974 562.00
31.2017 509.00
31.5059 534.00
31.8102 486.00
32.1144 499.00
32.4187 516.00
32.723 531.00
33.0272 514.00
33.3315 494.00
33.6357 500.00
33.94 534.00
34.2443 1041.00
34.5485 508.00
34.8528 420.00
35.157 456.00
35.4613 468.00
35.7656 457.00
36.0698 432.00
36.3741 427.00
36.6783 452.00
36.9826 414.00
37.2869 404.00
37.5911 417.00
37.8954 412.00
38.1996 392.00
38.5039 393.00
38.8082 392.00
39.1124 394.00
39.4167 363.00
39.7209 365.00
40.0252 370.00
40.3295 381.00
40.6337 333.00
40.938 309.00
41.2422 353.00
41.5465 355.00
41.8508 322.00
42.155 361.00
42.4593 320.00
42.7635 350.00
43.0678 315.00
43.3721 309.00
43.6763 330.00
43.9806 287.00
44.2849 332.00
44.5891 306.00
44.8934 302.00
45.1976 312.00
45.5019 311.00
45.8062 296.00
46.1104 288.00
46.4147 269.00
46.7189 275.00
47.0232 312.00
47.3275 289.00
47.6317 312.00
47.936 308.00
48.2402 298.00
48.5445 321.00
48.8488 283.00
49.153 394.00
49.4573 280.00
49.7615 289.00
50.0658 267.00
50.3701 283.00
50.6743 274.00
50.9786 250.00
51.2828 250.00
51.5871 266.00
51.8914 290.00
52.1956 273.00
52.4999 246.00
52.8041 277.00
53.1084 231.00
53.4127 239.00
53.7169 251.00
54.0212 260.00
54.3254 225.00
54.6297 244.00
54.934 278.00
55.2382 243.00
55.5425 257.00
55.8467 238.00
56.151 216.00
56.4553 200.00
56.7595 231.00
57.0638 227.00
57.368 204.00
57.6723 217.00
57.9766 202.00
58.2808 235.00
58.5851 198.00
58.8893 249.00
59.1936 206.00
59.4979 221.00
59.8021 196.00
60.1064 208.00
60.4106 221.00
60.7149 224.00
61.0192 186.00
61.3234 294.00
61.6277 227.00
61.932 182.00
62.2362 233.00
62.5405 204.00
62.8447 199.00
63.149 179.00
63.4533 221.00
63.7575 211.00
64.0618 221.00
64.366 199.00
64.6703 219.00
64.9745 198.00
65.2788 195.00
65.5831 224.00
65.8873 193.00
66.1916 175.00
66.4959 203.00
66.8001 197.00
67.1044 207.00
67.4086 193.00
67.7129 187.00
68.0172 166.00
68.3214 184.00
68.6257 196.00
68.9299 198.00
69.2342 219.00
69.5385 199.00
69.8427 176.00
70.147 200.00
70.4512 198.00
70.7555 191.00
71.0598 190.00
71.364 207.00
71.6683 189.00
71.9725 185.00
72.2768 186.00
72.5811 189.00
72.8853 194.00
73.1896 207.00
73.4938 206.00
73.7981 202.00
74.1024 189.00
74.4066 188.00
74.7109 226.00
75.0151 183.00
75.3194 182.00
75.6237 201.00
75.9279 222.00
76.2322 199.00
76.5364 204.00
76.8407 198.00
77.145 239.00
77.4492 214.00
77.7535 230.00
78.0577 214.00
78.362 191.00
78.6663 214.00
78.9705 185.00
79.2748 210.00
79.579 242.00
79.8833 230.00
80.1876 217.00
80.4918 256.00
80.7961 224.00
81.1003 224.00
81.4046 226.00
81.7089 225.00
82.0131 210.00
82.3174 225.00
82.6217 223.00
82.9259 235.00
83.2302 229.00
83.5344 209.00
83.8387 214.00
84.143 209.00
84.4472 210.00
84.7515 237.00
85.0557 226.00
85.36 223.00
85.6643 193.00
85.9685 216.00
86.2728 215.00
86.577 163.00
86.8813 205.00
87.1856 198.00
87.4898 198.00
87.7941 191.00
88.0983 185.00
88.4026 187.00
88.7069 204.00
89.0111 209.00
89.3154 190.00
89.6196 182.00
89.9239 194.00
90.2282 188.00
90.5324 171.00
90.8367 195.00
91.1409 227.00
91.4452 176.00
91.7495 186.00
92.0537 201.00
92.358 159.00
92.6622 188.00
92.9665 205.00
93.2708 214.00
93.575 182.00
93.8793 197.00
94.1835 175.00
94.4878 157.00
94.7921 199.00
95.0963 171.00
95.4006 194.00
95.7048 190.00
96.0091 184.00
96.3134 160.00
96.6176 182.00
96.9219 192.00
97.2261 163.00
97.5304 197.00
97.8347 181.00
98.1389 211.00
98.4432 154.00
98.7474 187.00
99.0517 169.00
99.356 204.00
99.6602 178.00
99.9645 196.00
100.095 189.00

File: Na_276.xy
9.903433 2719.00
10.2077 2609.00
10.512 2744.00
10.8162 2242.00
11.1205 2134.00
11.4247 2177.00
11.729 2068.00
12.0333 1940.00
12.3375 1825.00
12.6418 1864.00
12.946 1647.00
13.2503 1627.00
13.5546 1558.00
13.8588 1573.00
14.1631 1784.00
14.4673 1536.00
14.7716 1583.00
15.0759 1303.00
15.3801 1295.00
15.6844 1285.00
15.9886 1334.00
16.2929 1260.00
16.5972 1231.00
16.9014 1233.00
17.2057 1243.00
17.5099 1377.00
17.8142 1229.00
18.1185 1113.00
18.4227 1213.00
18.727 1131.00
19.0312 1039.00
19.3355 1633.00
19.6398 1475.00
19.944 1589.00
20.2483 1024.00
20.5525 1020.00
20.8568 978.00
21.1611 944.00
21.4653 881.00
21.7696 868.00
22.0738 1147.00
22.3781 1148.00
22.6824 1111.00
22.9866 1295.00
23.2909 817.00
23.5951 885.00
23.8994 1180.00
24.2037 1781.00
24.5079 1336.00
24.8122 839.00
25.1164 779.00
25.4207 777.00
25.725 1162.00
26.0292 766.00
26.3335 763.00
26.6378 749.00
26.942 809.00
27.2463 1488.00
27.5505 862.00
27.8548 837.00
28.1591 1033.00
28.4633 1358.00
28.7676 1110.00
29.0718 731.00
29.3761 757.00
29.6804 647.00
29.9846 661.00
30.2889 716.00
30.5931 984.00
30.8974 1201.00
31.2017 915.00
31.5059 876.00
31.8102 907.00
32.1144 1231.00
32.4187 1165.00
32.723 720.00
33.0272 665.00
33.3315 1278.00
33.6357 653.00
33.94 1138.00
34.2443 684.00
34.5485 1069.00
34.8528 558.00
35.157 1209.00
35.4613 522.00
35.7656 888.00
36.0698 541.00
36.3741 699.00
36.6783 791.00
36.9826 636.00
37.2869 612.00
37.5911 528.00
37.8954 675.00
38.1996 611.00
38.5039 572.00
38.8082 501.00
39.1124 518.00
39.4167 459.00
39.7209 446.00
40.0252 669.00
40.3295 502.00
40.6337 439.00
40.938 480.00
41.2422 656.00
41.5465 501.00
41.8508 466.00
42.155 521.00
42.4593 429.00
42.7635 485.00
43.0678 515.00
43.3721 435.00
43.6763 392.00
43.9806 515.00
44.2849 415.00
44.5891 413.00
44.8934 408.00
45.1976 374.00
45.5019 402.00
45.8062 440.00
46.1104 465.00
46.4147 421.00
46.7189 357.00
47.0232 405.00
47.3275 375.00
47.6317 441.00
47.936 407.00
48.2402 342.00
48.5445 407.00
48.8488 452.00
49.153 469.00
49.4573 368.00
49.7615 468.00
50.0658 382.00
50.3701 415.00
50.6743 446.00
50.9786 360.00
51.2828 382.00
51.5871 371.00
51.8914 353.00
52.1956 420.00
52.4999 369.00
52.8041 377.00
53.1084 375.00
53.4127 536.00
53.7169 520.00
54.0212 433.00
54.3254 349.00
54.6297 414.00
54.934 397.00
55.2382 371.00
55.5425 412.00
55.8467 344.00
56.151 316.00
56.4553 317.00
56.7595 336.00
57.0638 324.00
57.368 309.00
57.6723 337.00
57.9766 335.00
58.2808 456.00
58.5851 406.00
58.8893 306.00
59.1936 277.00
59.4979 310.00
59.8021 316.00
60.1064 309.00
60.4106 377.00
60.7149 384.00
61.0192 351.00
61.3234 348.00
61.6277 358.00
61.932 330.00
62.2362 351.00
62.5405 266.00
62.8447 296.00
63.149 342.00
63.4533 275.00
63.7575 310.00
64.0618 289.00
64.366 338.00
64.6703 290.00
64.9745 327.00
65.2788 308.00
65.5831 322.00
65.8873 329.00
66.1916 394.00
66.4959 297.00
66.8001 285.00
67.1044 293.00
67.4086 286.00
67.7129 293.00
68.0172 328.00
68.3214 274.00
68.6257 219.00
68.9299 297.00
69.2342 278.00
69.5385 258.00
69.8427 301.00
70.147 229.00
70.4512 273.00
70.7555 287.00
71.0598 272.00
71.364 277.00
71.6683 296.00
71.9725 290.00
72.2768 262.00
72.5811 300.00
72.8853 299.00
73.1896 272.00
73.4938 245.00
73.7981 244.00
74.1024 276.00
74.4066 264.00
74.7109 231.00
75.0151 248.00
75.3194 276.00
75.6237 256.00
75.9279 275.00
76.2322 220.00
76.5364 308.00
76.8407 256.00
77.145 257.00
77.4492 286.00
77.7535 248.00
78.0577 322.00
78.362 295.00
78.6663 282.00
78.9705 280.00
79.2748 266.00
79.579 259.00
79.8833 250.00
80.1876 264.00
80.4918 280.00
80.7961 280.00
81.1003 272.00
81.4046 262.00
81.7089 275.00
82.0131 284.00
82.3174 231.00
82.6217 256.00
82.9259 258.00
83.2302 273.00
83.5344 256.00
83.8387 328.00
84.143 236.00
84.4472 278.00
84.7515 237.00
85.0557 287.00
85.36 282.00
85.6643 272.00
85.9685 241.00
86.2728 269.00
86.577 276.00
86.8813 277.00
87.1856 233.00
87.4898 257.00
87.7941 233.00
88.0983 241.00
88.4026 236.00
88.7069 244.00
89.0111 226.00
89.3154 278.00
89.6196 280.00
89.9239 231.00
90.2282 242.00
90.5324 235.00
90.8367 238.00
91.1409 258.00
91.4452 248.00
91.7495 241.00
92.0537 249.00
92.358 245.00
92.6622 220.00
92.9665 230.00
93.2708 247.00
93.575 230.00
93.8793 261.00
94.1835 185.00
94.4878 259.00
94.7921 237.00
95.0963 241.00
95.4006 258.00
95.7048 204.00
96.0091 206.00
96.3134 224.00
96.6176 239.00
96.9219 223.00
97.2261 197.00
97.5304 248.00
97.8347 244.00
98.1389 179.00
98.4432 258.00
98.7474 192.00
99.0517 229.00
99.356 224.00
99.6602 197.00
99.9645 218.00
100.095 214.00

File: Na_277.xy
9.903433 2663.00
10.2077 2647.00
10.512 2385.00
10.8162 2271.00
11.1205 2224.00
11.4247 2095.00
11.729 2462.00
12.0333 2122.00
12.3375 1880.00
12.6418 1873.00
12.946 1805.00
13.2503 1628.00
13.5546 1665.00
13.8588 1586.00
14.1631 1491.00
14.4673 1450.00
14.7716 1451.00
15.0759 1383.00
15.3801 1331.00
15.6844 1403.00
15.9886 1329.00
16.2929 1266.00
16.5972 1279.00
16.9014 1259.00
17.2057 1261.00
17.5099 1296.00
17.8142 1255.00
18.1185 1099.00
18.4227 1162.00
18.727 1089.00
19.0312 1157.00
19.3355 1155.00
19.6398 1239.00
19.944 1009.00
20.2483 1027.00
20.5525 1291.00
20.8568 1002.00
21.1611 932.00
21.4653 933.00
21.7696 944.00
22.0738 893.00
22.3781 930.00
22.6824 1041.00
22.9866 1102.00
23.2909 960.00
23.5951 887.00
23.8994 1188.00
24.2037 888.00
24.5079 902.00
24.8122 814.00
25.1164 795.00
25.4207 768.00
25.725 762.00
26.0292 750.00
26.3335 826.00
26.6378 753.00
26.942 710.00
27.2463 751.00
27.5505 730.00
27.8548 781.00
28.1591 1553.00
28.4633 792.00
28.7676 679.00
29.0718 712.00
29.3761 669.00
29.6804 707.00
29.9846 768.00
30.2889 693.00
30.5931 658.00
30.8974 694.00
31.2017 1005.00
31.5059 1171.00
31.8102 638.00
32.1144 599.00
32.4187 614.00
32.723 579.00
33.0272 604.00
33.3315 566.00
33.6357 712.00
33.94 1365.00
34.2443 801.00
34.5485 529.00
34.8528 536.00
35.157 539.00
35.4613 564.00
35.7656 514.00
36.0698 528.00
36.3741 481.00
36.6783 493.00
36.9826 465.00
37.2869 447.00
37.5911 453.00
37.8954 450.00
38.1996 407.00
38.5039 470.00
38.8082 406.00
39.1124 439.00
39.4167 398.00
39.7209 412.00
40.0252 468.00
40.3295 409.00
40.6337 424.00
40.938 463.00
41.2422 419.00
41.5465 392.00
41.8508 402.00
42.155 401.00
42.4593 348.00
42.7635 403.00
43.0678 361.00
43.3721 378.00
43.6763 350.00
43.9806 327.00
44.2849 347.00
44.5891 393.00
44.8934 400.00
45.1976 351.00
45.5019 397.00
45.8062 360.00
46.1104 398.00
46.4147 352.00
46.7189 437.00
47.0232 409.00
47.3275 324.00
47.6317 361.00
47.936 310.00
48.2402 336.00
48.5445 320.00
48.8488 384.00
49.153 417.00
49.4573 379.00
49.7615 332.00
50.0658 476.00
50.3701 370.00
50.6743 365.00
50.9786 334.00
51.2828 356.00
51.5871 381.00
51.8914 308.00
52.1956 309.00
52.4999 301.00
52.8041 316.00
53.1084 263.00
53.4127 302.00
53.7169 338.00
54.0212 386.00
54.3254 337.00
54.6297 347.00
54.934 286.00
55.2382 344.00
55.5425 357.00
55.8467 307.00
56.151 272.00
56.4553 271.00
56.7595 247.00
57.0638 292.00
57.368 236.00
57.6723 278.00
57.9766 283.00
58.2808 265.00
58.5851 294.00
58.8893 273.00
59.1936 290.00
59.4979 249.00
59.8021 285.00
60.1064 291.00
60.4106 268.00
60.7149 273.00
61.0192 284.00
61.3234 247.00
61.6277 263.00
61.932 278.00
62.2362 223.00
62.5405 244.00
62.8447 287.00
63.149 263.00
63.4533 249.00
63.7575 240.00
64.0618 258.00
64.366 258.00
64.6703 245.00
64.9745 249.00
65.2788 234.00
65.5831 215.00
65.8873 259.00
66.1916 227.00
66.4959 245.00
66.8001 278.00
67.1044 228.00
67.4086 221.00
67.7129 244.00
68.0172 233.00
68.3214 226.00
68.6257 187.00
68.9299 232.00
69.2342 229.00
69.5385 222.00
69.8427 218.00
70.147 209.00
70.4512 204.00
70.7555 216.00
71.0598 219.00
71.364 276.00
71.6683 204.00
71.9725 231.00
72.2768 230.00
72.5811 231.00
72.8853 236.00
73.1896 223.00
73.4938 245.00
73.7981 226.00
74.1024 226.00
74.4066 234.00
74.7109 238.00
75.0151 227.00
75.3194 198.00
75.6237 219.00
75.9279 243.00
76.2322 261.00
76.5364 227.00
76.8407 217.00
77.145 241.00
77.4492 233.00
77.7535 288.00
78.0577 271.00
78.362 228.00
78.6663 227.00
78.9705 251.00
79.2748 266.00
79.579 236.00
79.8833 241.00
80.1876 272.00
80.4918 249.00
80.7961 249.00
81.1003 243.00
81.4046 289.00
81.7089 271.00
82.0131 274.00
82.3174 259.00
82.6217 256.00
82.9259 267.00
83.2302 247.00
83.5344 271.00
83.8387 261.00
84.143 278.00
84.4472 258.00
84.7515 264.00
85.0557 204.00
85.36 249.00
85.6643 244.00
85.9685 224.00
86.2728 230.00
86.577 261.00
86.8813 233.00
87.1856 222.00
87.4898 235.00
87.7941 247.00
88.0983 257.00
88.4026 234.00
88.7069 243.00
89.0111 225.00
89.3154 198.00
89.6196 218.00
89.9239 233.00
90.2282 195.00
90.5324 222.00
90.8367 225.00
91.1409 248.00
91.4452 216.00
91.7495 207.00
92.0537 212.00
92.358 227.00
92.6622 237.00
92.9665 222.00
93.2708 222.00
93.575 209.00
93.8793 217.00
94.1835 207.00
94.4878 215.00
94.7921 225.00
95.0963 194.00
95.4006 206.00
95.7048 208.00
96.0091 221.00
96.3134 239.00
96.6176 223.00
96.9219 232.00
97.2261 206.00
97.5304 208.00
97.8347 215.00
98.1389 227.00
98.4432 233.00
98.7474 192.00
99.0517 231.00
99.356 215.00
99.6602 187.00
99.9645 228.00
100.095 216.00

File: Na_278.xy
9.903433 2801.00
10.2077 2887.00
10.512 3265.00
10.8162 2750.00
11.1205 2795.00
11.4247 2673.00
11.729 2935.00
12.0333 5065.00
12.3375 2689.00
12.6418 2304.00
12.946 2232.00
13.2503 2535.00
13.5546 2174.00
13.8588 2381.00
14.1631 2302.00
14.4673 1945.00
14.7716 1925.00
15.0759 1951.00
15.3801 1830.00
15.6844 1903.00
15.9886 1844.00
16.2929 1856.00
16.5972 1885.00
16.9014 1835.00
17.2057 1816.00
17.5099 1811.00
17.8142 2287.00
18.1185 1746.00
18.4227 1703.00
18.727 1675.00
19.0312 1786.00
19.3355 2026.00
19.6398 4890.00
19.944 3149.00
20.2483 1713.00
20.5525 1744.00
20.8568 2044.00
21.1611 1647.00
21.4653 1565.00
21.7696 1659.00
22.0738 1615.00
22.3781 1650.00
22.6824 1849.00
22.9866 4484.00
23.2909 2615.00
23.5951 1755.00
23.8994 1908.00
24.2037 4552.00
24.5079 3792.00
24.8122 2565.00
25.1164 1695.00
25.4207 1599.00
25.725 1489.00
26.0292 1567.00
26.3335 1876.00
26.6378 1565.00
26.942 1575.00
27.2463 1606.00
27.5505 1673.00
27.8548 2677.00
28.1591 2097.00
28.4633 5430.00
28.7676 8467.00
29.0718 2109.00
29.3761 1629.00
29.6804 1669.00
29.9846 1760.00
30.2889 3713.00
30.5931 2236.00
30.8974 2211.00
31.2017 5903.00
31.5059 3520.00
31.8102 5922.00
32.1144 5646.00
32.4187 1814.00
32.723 1522.00
33.0272 1449.00
33.3315 1448.00
33.6357 1537.00
33.94 2471.00
34.2443 9569.00
34.5485 5275.00
34.8528 4201.00
35.157 1913.00
35.4613 1554.00
35.7656 4112.00
36.0698 1890.00
36.3741 3130.00
36.6783 1518.00
36.9826 1262.00
37.2869 1216.00
37.5911 1232.00
37.8954 1171.00
38.1996 1169.00
38.5039 1245.00
38.8082 1285.00
39.1124 2482.00
39.4167 1371.00
39.7209 1419.00
40.0252 1363.00
40.3295 1373.00
40.6337 1343.00
40.938 1385.00
41.2422 2854.00
41.5465 2564.00
41.8508 2040.00
42.155 1904.00
42.4593 1395.00
42.7635 1207.00
43.0678 1125.00
43.3721 1226.00
43.6763 1342.00
43.9806 1202.00
44.2849 1259.00
44.5891 1468.00
44.8934 1265.00
45.1976 1359.00
45.5019 1572.00
45.8062 1502.00
46.1104 2397.00
46.4147 1793.00
46.7189 2263.00
47.0232 2474.00
47.3275 1369.00
47.6317 1167.00
47.936 1233.00
48.2402 1222.00
48.5445 1172.00
48.8488 1336.00
49.153 2333.00
49.4573 1842.00
49.7615 2900.00
50.0658 1942.00
50.3701 1704.00
50.6743 4288.00
50.9786 2838.00
51.2828 2737.00
51.5871 1560.00
51.8914 1737.00
52.1956 1283.00
52.4999 1158.00
52.8041 1211.00
53.1084 2245.00
53.4127 1540.00
53.7169 1288.00
54.0212 1208.00
54.3254 1362.00
54.6297 2568.00
54.934 2275.00
55.2382 1403.00
55.5425 1432.00
55.8467 2145.00
56.151 2726.00
56.4553 1997.00
56.7595 1814.00
57.0638 1158.00
57.368 1196.00
57.6723 1595.00
57.9766 1777.00
58.2808 1310.00
58.5851 2075.00
58.8893 2117.00
59.1936 2359.00
59.4979 1428.00
59.8021 1286.00
60.1064 1225.00
60.4106 2139.00
60.7149 2492.00
61.0192 2258.00
61.3234 1913.00
61.6277 1353.00
61.932 1823.00
62.2362 1940.00
62.5405 2224.00
62.8447 1670.00
63.149 1372.00
63.4533 1851.00
63.7575 1650.00
64.0618 1144.00
64.366 1164.00
64.6703 1268.00
64.9745 1501.00
65.2788 1267.00
65.5831 1145.00
65.8873 1571.00
66.1916 1864.00
66.4959 2314.00
66.8001 1439.00
67.1044 1038.00
67.4086 1022.00
67.7129 1060.00
68.0172 1084.00
68.3214 1096.00
68.6257 974.00
68.9299 937.00
69.2342 1081.00
69.5385 1291.00
69.8427 1326.00
70.147 986.00
70.4512 1023.00
70.7555 1001.00
71.0598 983.00
71.364 1088.00
71.6683 1526.00
71.9725 1830.00
72.2768 1222.00
72.5811 1150.00
72.8853 1323.00
73.1896 1298.00
73.4938 1167.00
73.7981 1035.00
74.1024 922.00
74.4066 962.00
74.7109 939.00
75.0151 1106.00
75.3194 1170.00
75.6237 1218.00
75.9279 1499.00
76.2322 1142.00
76.5364 987.00
76.8407 1087.00
77.145 1194.00
77.4492 1163.00
77.7535 993.00
78.0577 1101.00
78.362 1089.00
78.6663 1055.00
78.9705 1066.00
79.2748 1053.00
79.579 1249.00
79.8833 1411.00
80.1876 1192.00
80.4918 1034.00
80.7961 1002.00
81.1003 989.00
81.4046 1080.00
81.7089 1105.00
82.0131 1203.00
82.3174 1340.00
82.6217 1171.00
82.9259 1128.00
83.2302 1100.00
83.5344 1182.00
83.8387 1262.00
84.143 1258.00
84.4472 1152.00
84.7515 1245.00
85.0557 1241.00
85.36 1131.00
85.6643 1202.00
85.9685 1275.00
86.2728 1093.00
86.577 1138.00
86.8813 1134.00
87.1856 1088.00
87.4898 994.00
87.7941 1008.00
88.0983 1040.00
88.4026 1122.00
88.7069 1203.00
89.0111 1268.00
89.3154 1396.00
89.6196 1332.00
89.9239 1185.00
90.2282 1169.00
90.5324 1217.00
90.8367 1241.00
91.1409 1161.00
91.4452 1058.00
91.7495 1073.00
92.0537 1040.00
92.358 1029.00
92.6622 1016.00
92.9665 1043.00
93.2708 1005.00
93.575 951.00
93.8793 966.00
94.1835 955.00
94.4878 1077.00
94.7921 1092.00
95.0963 1099.00
95.4006 993.00
95.7048 1109.00
96.0091 1164.00
96.3134 1110.00
96.6176 1025.00
96.9219 1133.00
97.2261 1207.00
97.5304 1320.00
97.8347 1343.00
98.1389 1159.00
98.4432 1157.00
98.7474 1112.00
99.0517 1218.00
99.356 1286.00
99.6602 1305.00
99.9645 1279.00
100.095 1316.00