Folder: alab-pipeline/data/xrd_creation/results (part 30)

File: Na_292.xy
9.903433 2747.00
10.2077 2648.00
10.512 2480.00
10.8162 2470.00
11.1205 2398.00
11.4247 2301.00
11.729 2198.00
12.0333 2195.00
12.3375 2145.00
12.6418 2012.00
12.946 2140.00
13.2503 2622.00
13.5546 2091.00
13.8588 2097.00
14.1631 1874.00
14.4673 1830.00
14.7716 1769.00
15.0759 1782.00
15.3801 1750.00
15.6844 1800.00
15.9886 1806.00
16.2929 1679.00
16.5972 1638.00
16.9014 1606.00
17.2057 1646.00
17.5099 1562.00
17.8142 1562.00
18.1185 1506.00
18.4227 1494.00
18.727 1520.00
19.0312 1424.00
19.3355 1811.00
19.6398 1466.00
19.944 1328.00
20.2483 1381.00
20.5525 1405.00
20.8568 2002.00
21.1611 1620.00
21.4653 1303.00
21.7696 1467.00
22.0738 1204.00
22.3781 1255.00
22.6824 1685.00
22.9866 1426.00
23.2909 1391.00
23.5951 1137.00
23.8994 1232.00
24.2037 2078.00
24.5079 1130.00
24.8122 1043.00
25.1164 1070.00
25.4207 1170.00
25.725 1224.00
26.0292 1156.00
26.3335 2489.00
26.6378 1271.00
26.942 1284.00
27.2463 1234.00
27.5505 1408.00
27.8548 1748.00
28.1591 1035.00
28.4633 1004.00
28.7676 1004.00
29.0718 1249.00
29.3761 6055.00
29.6804 1582.00
29.9846 1405.00
30.2889 10648.00
30.5931 1470.00
30.8974 2335.00
31.2017 1183.00
31.5059 1042.00
31.8102 1120.00
32.1144 2005.00
32.4187 1004.00
32.723 860.00
33.0272 960.00
33.3315 983.00
33.6357 1605.00
33.94 1204.00
34.2443 1906.00
34.5485 3881.00
34.8528 956.00
35.157 848.00
35.4613 801.00
35.7656 833.00
36.0698 795.00
36.3741 807.00
36.6783 849.00
36.9826 801.00
37.2869 716.00
37.5911 742.00
37.8954 708.00
38.1996 811.00
38.5039 762.00
38.8082 795.00
39.1124 766.00
39.4167 817.00
39.7209 2569.00
40.0252 1296.00
40.3295 809.00
40.6337 782.00
40.938 1389.00
41.2422 840.00
41.5465 676.00
41.8508 742.00
42.155 733.00
42.4593 1000.00
42.7635 649.00
43.0678 617.00
43.3721 675.00
43.6763 669.00
43.9806 1202.00
44.2849 1199.00
44.5891 682.00
44.8934 782.00
45.1976 810.00
45.5019 704.00
45.8062 808.00
46.1104 963.00
46.4147 3046.00
46.7189 852.00
47.0232 829.00
47.3275 711.00
47.6317 639.00
47.936 661.00
48.2402 642.00
48.5445 651.00
48.8488 692.00
49.153 874.00
49.4573 1393.00
49.7615 612.00
50.0658 696.00
50.3701 627.00
50.6743 624.00
50.9786 1201.00
51.2828 721.00
51.5871 559.00
51.8914 798.00
52.1956 1001.00
52.4999 2168.00
52.8041 766.00
53.1084 554.00
53.4127 646.00
53.7169 1194.00
54.0212 1238.00
54.3254 680.00
54.6297 591.00
54.934 560.00
55.2382 592.00
55.5425 1051.00
55.8467 1921.00
56.151 1492.00
56.4553 1004.00
56.7595 537.00
57.0638 519.00
57.368 544.00
57.6723 473.00
57.9766 522.00
58.2808 494.00
58.5851 525.00
58.8893 542.00
59.1936 494.00
59.4979 479.00
59.8021 504.00
60.1064 504.00
60.4106 572.00
60.7149 879.00
61.0192 635.00
61.3234 1610.00
61.6277 558.00
61.932 471.00
62.2362 423.00
62.5405 837.00
62.8447 513.00
63.149 491.00
63.4533 533.00
63.7575 481.00
64.0618 534.00
64.366 448.00
64.6703 390.00
64.9745 403.00
65.2788 419.00
65.5831 796.00
65.8873 467.00
66.1916 418.00
66.4959 443.00
66.8001 443.00
67.1044 534.00
67.4086 439.00
67.7129 361.00
68.0172 389.00
68.3214 331.00
68.6257 404.00
68.9299 388.00
69.2342 387.00
69.5385 350.00
69.8427 363.00
70.147 481.00
70.4512 448.00
70.7555 457.00
71.0598 389.00
71.364 411.00
71.6683 454.00
71.9725 558.00
72.2768 1059.00
72.5811 714.00
72.8853 476.00
73.1896 444.00
73.4938 477.00
73.7981 491.00
74.1024 431.00
74.4066 389.00
74.7109 376.00
75.0151 390.00
75.3194 518.00
75.6237 940.00
75.9279 615.00
76.2322 414.00
76.5364 418.00
76.8407 444.00
77.145 406.00
77.4492 354.00
77.7535 433.00
78.0577 417.00
78.362 432.00
78.6663 374.00
78.9705 457.00
79.2748 639.00
79.579 651.00
79.8833 416.00
80.1876 378.00
80.4918 354.00
80.7961 428.00
81.1003 581.00
81.4046 489.00
81.7089 380.00
82.0131 442.00
82.3174 564.00
82.6217 463.00
82.9259 354.00
83.2302 377.00
83.5344 382.00
83.8387 497.00
84.143 576.00
84.4472 449.00
84.7515 407.00
85.0557 450.00
85.36 542.00
85.6643 639.00
85.9685 548.00
86.2728 444.00
86.577 406.00
86.8813 407.00
87.1856 332.00
87.4898 340.00
87.7941 395.00
88.0983 425.00
88.4026 402.00
88.7069 360.00
89.0111 350.00
89.3154 366.00
89.6196 354.00
89.9239 468.00
90.2282 741.00
90.5324 503.00
90.8367 388.00
91.1409 350.00
91.4452 348.00
91.7495 358.00
92.0537 410.00
92.358 389.00
92.6622 462.00
92.9665 557.00
93.2708 441.00
93.575 354.00
93.8793 358.00
94.1835 325.00
94.4878 377.00
94.7921 309.00
95.0963 345.00
95.4006 328.00
95.7048 364.00
96.0091 371.00
96.3134 353.00
96.6176 350.00
96.9219 323.00
97.2261 320.00
97.5304 331.00
97.8347 346.00
98.1389 392.00
98.4432 369.00
98.7474 340.00
99.0517 331.00
99.356 308.00
99.6602 337.00
99.9645 319.00
100.095 351.00

File: Na_294.xy
9.903433 2762.00
10.2077 2644.00
10.512 2554.00
10.8162 2530.00
11.1205 3073.00
11.4247 2502.00
11.729 3505.00
12.0333 8439.00
12.3375 2863.00
12.6418 2509.00
12.946 2205.00
13.2503 2333.00
13.5546 2404.00
13.8588 2128.00
14.1631 2008.00
14.4673 1959.00
14.7716 1971.00
15.0759 1915.00
15.3801 1864.00
15.6844 1795.00
15.9886 1775.00
16.2929 1790.00
16.5972 1869.00
16.9014 1869.00
17.2057 1931.00
17.5099 2052.00
17.8142 2204.00
18.1185 2121.00
18.4227 1787.00
18.727 2897.00
19.0312 1852.00
19.3355 1737.00
19.6398 1744.00
19.944 1898.00
20.2483 3612.00
20.5525 2505.00
20.8568 5126.00
21.1611 2007.00
21.4653 3163.00
21.7696 4054.00
22.0738 3209.00
22.3781 1699.00
22.6824 1701.00
22.9866 1869.00
23.2909 2550.00
23.5951 2538.00
23.8994 2745.00
24.2037 3051.00
24.5079 2736.00
24.8122 3523.00
25.1164 6758.00
25.4207 1696.00
25.725 1591.00
26.0292 1506.00
26.3335 1861.00
26.6378 1748.00
26.942 4080.00
27.2463 1998.00
27.5505 3275.00
27.8548 2913.00
28.1591 2626.00
28.4633 2239.00
28.7676 1925.00
29.0718 1581.00
29.3761 1612.00
29.6804 1793.00
29.9846 2476.00
30.2889 2901.00
30.5931 2276.00
30.8974 3212.00
31.2017 3094.00
31.5059 3887.00
31.8102 3311.00
32.1144 3641.00
32.4187 5945.00
32.723 3915.00
33.0272 3574.00
33.3315 3107.00
33.6357 2775.00
33.94 2380.00
34.2443 1823.00
34.5485 1804.00
34.8528 1585.00
35.157 2047.00
35.4613 1480.00
35.7656 1379.00
36.0698 1979.00
36.3741 2246.00
36.6783 3048.00
36.9826 2519.00
37.2869 2044.00
37.5911 2375.00
37.8954 2247.00
38.1996 1625.00
38.5039 1393.00
38.8082 1480.00
39.1124 1244.00
39.4167 2228.00
39.7209 1451.00
40.0252 1337.00
40.3295 1806.00
40.6337 1583.00
40.938 1740.00
41.2422 1312.00
41.5465 1371.00
41.8508 1635.00
42.155 1381.00
42.4593 1536.00
42.7635 1413.00
43.0678 1295.00
43.3721 1441.00
43.6763 1520.00
43.9806 1637.00
44.2849 1693.00
44.5891 1644.00
44.8934 1594.00
45.1976 1394.00
45.5019 2154.00
45.8062 1817.00
46.1104 1566.00
46.4147 1379.00
46.7189 1288.00
47.0232 1255.00
47.3275 1385.00
47.6317 1738.00
47.936 1289.00
48.2402 1221.00
48.5445 1582.00
48.8488 2428.00
49.153 2061.00
49.4573 2205.00
49.7615 1514.00
50.0658 2097.00
50.3701 1754.00
50.6743 1850.00
50.9786 1523.00
51.2828 1580.00
51.5871 1332.00
51.8914 1372.00
52.1956 1917.00
52.4999 1613.00
52.8041 1455.00
53.1084 1616.00
53.4127 1828.00
53.7169 1861.00
54.0212 1758.00
54.3254 1969.00
54.6297 1972.00
54.934 2656.00
55.2382 2124.00
55.5425 1791.00
55.8467 1851.00
56.151 2242.00
56.4553 2688.00
56.7595 2430.00
57.0638 1953.00
57.368 1517.00
57.6723 1628.00
57.9766 2002.00
58.2808 1584.00
58.5851 1779.00
58.8893 1610.00
59.1936 1772.00
59.4979 1814.00
59.8021 1672.00
60.1064 1575.00
60.4106 1604.00
60.7149 1547.00
61.0192 1503.00
61.3234 1525.00
61.6277 1738.00
61.932 1729.00
62.2362 1755.00
62.5405 1757.00
62.8447 1470.00
63.149 1296.00
63.4533 1261.00
63.7575 1328.00
64.0618 1177.00
64.366 1278.00
64.6703 1209.00
64.9745 1356.00
65.2788 1270.00
65.5831 1296.00
65.8873 1358.00
66.1916 1348.00
66.4959 1266.00
66.8001 1260.00
67.1044 1300.00
67.4086 1425.00
67.7129 1412.00
68.0172 1266.00
68.3214 1286.00
68.6257 1256.00
68.9299 1505.00
69.2342 1458.00
69.5385 1361.00
69.8427 1293.00
70.147 1509.00
70.4512 1384.00
70.7555 1284.00
71.0598 1146.00
71.364 1176.00
71.6683 1187.00
71.9725 1210.00
72.2768 1188.00
72.5811 1252.00
72.8853 1326.00
73.1896 1365.00
73.4938 1264.00
73.7981 1299.00
74.1024 1179.00
74.4066 1080.00
74.7109 1117.00
75.0151 1129.00
75.3194 1095.00
75.6237 1086.00
75.9279 1062.00
76.2322 1178.00
76.5364 1119.00
76.8407 1055.00
77.145 1146.00
77.4492 1258.00
77.7535 1118.00
78.0577 1079.00
78.362 1092.00
78.6663 1025.00
78.9705 1042.00
79.2748 1085.00
79.579 1224.00
79.8833 1184.00
80.1876 1228.00
80.4918 1211.00
80.7961 1282.00
81.1003 1175.00
81.4046 1102.00
81.7089 1108.00
82.0131 1073.00
82.3174 1111.00
82.6217 1180.00
82.9259 1152.00
83.2302 1188.00
83.5344 1181.00
83.8387 1182.00
84.143 1241.00
84.4472 1289.00
84.7515 1203.00
85.0557 1357.00
85.36 1373.00
85.6643 1198.00
85.9685 1170.00
86.2728 1244.00
86.577 1105.00
86.8813 1149.00
87.1856 1152.00
87.4898 1268.00
87.7941 1380.00
88.0983 1366.00
88.4026 1253.00
88.7069 1199.00
89.0111 1182.00
89.3154 1200.00
89.6196 1153.00
89.9239 1206.00
90.2282 1193.00
90.5324 1213.00
90.8367 1177.00
91.1409 1185.00
91.4452 1153.00
91.7495 1075.00
92.0537 1149.00
92.358 1091.00
92.6622 1143.00
92.9665 1071.00
93.2708 1107.00
93.575 1070.00
93.8793 1124.00
94.1835 1135.00
94.4878 1233.00
94.7921 1165.00
95.0963 1110.00
95.4006 1069.00
95.7048 1132.00
96.0091 1140.00
96.3134 1015.00
96.6176 1026.00
96.9219 1190.00
97.2261 1169.00
97.5304 1107.00
97.8347 1082.00
98.1389 1152.00
98.4432 1167.00
98.7474 1065.00
99.0517 1021.00
99.356 1102.00
99.6602 1073.00
99.9645 1084.00
100.095 1083.00

File: Na_295.xy
9.903433 2638.00
10.2077 2767.00
10.512 2519.00
10.8162 2515.00
11.1205 2388.00
11.4247 2370.00
11.729 2322.00
12.0333 2237.00
12.3375 2210.00
12.6418 2115.00
12.946 2054.00
13.2503 2107.00
13.5546 2128.00
13.8588 2052.00
14.1631 1957.00
14.4673 2153.00
14.7716 2011.00
15.0759 1982.00
15.3801 2043.00
15.6844 2011.00
15.9886 2139.00
16.2929 1905.00
16.5972 1943.00
16.9014 1823.00
17.2057 1719.00
17.5099 1798.00
17.8142 1772.00
18.1185 1596.00
18.4227 1656.00
18.727 1689.00
19.0312 1862.00
19.3355 1839.00
19.6398 1617.00
19.944 1669.00
20.2483 1747.00
20.5525 1991.00
20.8568 7945.00
21.1611 3359.00
21.4653 1627.00
21.7696 1559.00
22.0738 1534.00
22.3781 1487.00
22.6824 1446.00
22.9866 1426.00
23.2909 1437.00
23.5951 1397.00
23.8994 1507.00
24.2037 2431.00
24.5079 1570.00
24.8122 1306.00
25.1164 1376.00
25.4207 1324.00
25.725 1429.00
26.0292 1318.00
26.3335 1316.00
26.6378 1305.00
26.942 1274.00
27.2463 1281.00
27.5505 1308.00
27.8548 1283.00
28.1591 1246.00
28.4633 1237.00
28.7676 1262.00
29.0718 1251.00
29.3761 1334.00
29.6804 1350.00
29.9846 1657.00
30.2889 3189.00
30.5931 3449.00
30.8974 2785.00
31.2017 1712.00
31.5059 1772.00
31.8102 3039.00
32.1144 3981.00
32.4187 2020.00
32.723 1415.00
33.0272 1349.00
33.3315 1558.00
33.6357 2235.00
33.94 2357.00
34.2443 6451.00
34.5485 15224.00
34.8528 1991.00
35.157 2177.00
35.4613 5967.00
35.7656 2206.00
36.0698 1496.00
36.3741 1394.00
36.6783 1412.00
36.9826 1449.00
37.2869 1784.00
37.5911 2545.00
37.8954 1865.00
38.1996 1791.00
38.5039 2468.00
38.8082 2638.00
39.1124 1571.00
39.4167 1368.00
39.7209 1259.00
40.0252 1239.00
40.3295 1339.00
40.6337 1316.00
40.938 1277.00
41.2422 1190.00
41.5465 1235.00
41.8508 1183.00
42.155 1184.00
42.4593 2355.00
42.7635 1195.00
43.0678 1414.00
43.3721 1504.00
43.6763 1169.00
43.9806 1066.00
44.2849 1137.00
44.5891 1087.00
44.8934 1187.00
45.1976 1073.00
45.5019 1091.00
45.8062 1370.00
46.1104 1892.00
46.4147 1203.00
46.7189 1019.00
47.0232 918.00
47.3275 981.00
47.6317 1008.00
47.936 1036.00
48.2402 1070.00
48.5445 1303.00
48.8488 1946.00
49.153 2000.00
49.4573 4005.00
49.7615 1439.00
50.0658 1086.00
50.3701 983.00
50.6743 944.00
50.9786 944.00
51.2828 1004.00
51.5871 948.00
51.8914 890.00
52.1956 881.00
52.4999 992.00
52.8041 953.00
53.1084 893.00
53.4127 942.00
53.7169 922.00
54.0212 948.00
54.3254 902.00
54.6297 1072.00
54.934 1051.00
55.2382 909.00
55.5425 887.00
55.8467 884.00
56.151 838.00
56.4553 875.00
56.7595 884.00
57.0638 810.00
57.368 966.00
57.6723 1372.00
57.9766 1595.00
58.2808 1057.00
58.5851 889.00
58.8893 893.00
59.1936 1037.00
59.4979 1153.00
59.8021 1094.00
60.1064 1498.00
60.4106 1406.00
60.7149 1318.00
61.0192 1723.00
61.3234 5661.00
61.6277 2049.00
61.932 969.00
62.2362 893.00
62.5405 944.00
62.8447 1157.00
63.149 1084.00
63.4533 847.00
63.7575 820.00
64.0618 1029.00
64.366 1634.00
64.6703 1945.00
64.9745 2841.00
65.2788 1397.00
65.5831 1103.00
65.8873 827.00
66.1916 747.00
66.4959 696.00
66.8001 727.00
67.1044 749.00
67.4086 754.00
67.7129 755.00
68.0172 701.00
68.3214 717.00
68.6257 719.00
68.9299 762.00
69.2342 826.00
69.5385 1061.00
69.8427 1027.00
70.147 936.00
70.4512 1066.00
70.7555 1008.00
71.0598 749.00
71.364 731.00
71.6683 709.00
71.9725 1001.00
72.2768 1224.00
72.5811 932.00
72.8853 832.00
73.1896 636.00
73.4938 664.00
73.7981 775.00
74.1024 767.00
74.4066 671.00
74.7109 682.00
75.0151 698.00
75.3194 594.00
75.6237 621.00
75.9279 823.00
76.2322 795.00
76.5364 596.00
76.8407 561.00
77.145 608.00
77.4492 595.00
77.7535 633.00
78.0577 649.00
78.362 683.00
78.6663 680.00
78.9705 673.00
79.2748 665.00
79.579 594.00
79.8833 565.00
80.1876 647.00
80.4918 566.00
80.7961 610.00
81.1003 573.00
81.4046 581.00
81.7089 626.00
82.0131 713.00
82.3174 1233.00
82.6217 858.00
82.9259 656.00
83.2302 668.00
83.5344 615.00
83.8387 603.00
84.143 626.00
84.4472 771.00
84.7515 702.00
85.0557 700.00
85.36 609.00
85.6643 647.00
85.9685 753.00
86.2728 708.00
86.577 558.00
86.8813 582.00
87.1856 620.00
87.4898 587.00
87.7941 589.00
88.0983 605.00
88.4026 568.00
88.7069 574.00
89.0111 611.00
89.3154 625.00
89.6196 606.00
89.9239 626.00
90.2282 651.00
90.5324 619.00
90.8367 648.00
91.1409 648.00
91.4452 772.00
91.7495 781.00
92.0537 819.00
92.358 714.00
92.6622 563.00
92.9665 589.00
93.2708 581.00
93.575 654.00
93.8793 598.00
94.1835 612.00
94.4878 747.00
94.7921 771.00
95.0963 729.00
95.4006 665.00
95.7048 703.00
96.0091 765.00
96.3134 780.00
96.6176 824.00
96.9219 715.00
97.2261 601.00
97.5304 565.00
97.8347 510.00
98.1389 578.00
98.4432 618.00
98.7474 604.00
99.0517 645.00
99.356 662.00
99.6602 627.00
99.9645 560.00
100.095 602.00

File: Na_297.xy
9.903433 2735.00
10.2077 2615.00
10.512 2615.00
10.8162 2443.00
11.1205 2376.00
11.4247 2253.00
11.729 2234.00
12.0333 2112.00
12.3375 2127.00
12.6418 2021.00
12.946 2098.00
13.2503 1968.00
13.5546 1967.00
13.8588 1909.00
14.1631 2014.00
14.4673 1847.00
14.7716 1933.00
15.0759 1886.00
15.3801 1986.00
15.6844 1858.00
15.9886 1748.00
16.2929 1694.00
16.5972 1624.00
16.9014 1650.00
17.2057 1566.00
17.5099 1531.00
17.8142 1517.00
18.1185 1488.00
18.4227 1559.00
18.727 1521.00
19.0312 1760.00
19.3355 1691.00
19.6398 1508.00
19.944 1675.00
20.2483 1913.00
20.5525 3047.00
20.8568 9920.00
21.1611 1750.00
21.4653 1477.00
21.7696 1436.00
22.0738 1439.00
22.3781 1537.00
22.6824 1331.00
22.9866 1340.00
23.2909 1253.00
23.5951 1299.00
23.8994 1406.00
24.2037 1865.00
24.5079 1360.00
24.8122 1292.00
25.1164 1309.00
25.4207 1288.00
25.725 1350.00
26.0292 1211.00
26.3335 1279.00
26.6378 1304.00
26.942 1185.00
27.2463 1274.00
27.5505 1297.00
27.8548 1193.00
28.1591 1233.00
28.4633 1403.00
28.7676 1200.00
29.0718 1267.00
29.3761 1243.00
29.6804 1340.00
29.9846 1843.00
30.2889 2874.00
30.5931 2982.00
30.8974 1898.00
31.2017 1683.00
31.5059 2095.00
31.8102 3670.00
32.1144 2503.00
32.4187 1517.00
32.723 1394.00
33.0272 1375.00
33.3315 1673.00
33.6357 2251.00
33.94 2802.00
34.2443 13103.00
34.5485 3359.00
34.8528 1735.00
35.157 3065.00
35.4613 3778.00
35.7656 1500.00
36.0698 1265.00
36.3741 1197.00
36.6783 1201.00
36.9826 1289.00
37.2869 1641.00
37.5911 2019.00
37.8954 1489.00
38.1996 1546.00
38.5039 2520.00
38.8082 1661.00
39.1124 1250.00
39.4167 1085.00
39.7209 1212.00
40.0252 1169.00
40.3295 1169.00
40.6337 1127.00
40.938 1027.00
41.2422 990.00
41.5465 1054.00
41.8508 1062.00
42.155 1235.00
42.4593 1348.00
42.7635 1153.00
43.0678 1416.00
43.3721 1156.00
43.6763 934.00
43.9806 995.00
44.2849 947.00
44.5891 954.00
44.8934 1030.00
45.1976 1045.00
45.5019 1059.00
45.8062 1384.00
46.1104 1294.00
46.4147 964.00
46.7189 884.00
47.0232 1009.00
47.3275 987.00
47.6317 752.00
47.936 929.00
48.2402 1049.00
48.5445 1214.00
48.8488 1424.00
49.153 2974.00
49.4573 1558.00
49.7615 1039.00
50.0658 940.00
50.3701 921.00
50.6743 809.00
50.9786 910.00
51.2828 848.00
51.5871 823.00
51.8914 807.00
52.1956 810.00
52.4999 891.00
52.8041 888.00
53.1084 871.00
53.4127 866.00
53.7169 784.00
54.0212 824.00
54.3254 924.00
54.6297 1001.00
54.934 874.00
55.2382 811.00
55.5425 748.00
55.8467 699.00
56.151 743.00
56.4553 868.00
56.7595 790.00
57.0638 743.00
57.368 875.00
57.6723 1341.00
57.9766 1061.00
58.2808 836.00
58.5851 772.00
58.8893 794.00
59.1936 929.00
59.4979 849.00
59.8021 1031.00
60.1064 1224.00
60.4106 1064.00
60.7149 1150.00
61.0192 2021.00
61.3234 4070.00
61.6277 961.00
61.932 787.00
62.2362 751.00
62.5405 839.00
62.8447 970.00
63.149 823.00
63.4533 751.00
63.7575 779.00
64.0618 1073.00
64.366 1278.00
64.6703 1917.00
64.9745 1815.00
65.2788 1032.00
65.5831 896.00
65.8873 698.00
66.1916 629.00
66.4959 635.00
66.8001 668.00
67.1044 654.00
67.4086 660.00
67.7129 635.00
68.0172 604.00
68.3214 580.00
68.6257 611.00
68.9299 665.00
69.2342 754.00
69.5385 922.00
69.8427 841.00
70.147 771.00
70.4512 852.00
70.7555 753.00
71.0598 630.00
71.364 579.00
71.6683 581.00
71.9725 1093.00
72.2768 917.00
72.5811 778.00
72.8853 661.00
73.1896 585.00
73.4938 588.00
73.7981 618.00
74.1024 658.00
74.4066 578.00
74.7109 591.00
75.0151 535.00
75.3194 492.00
75.6237 532.00
75.9279 677.00
76.2322 516.00
76.5364 524.00
76.8407 565.00
77.145 566.00
77.4492 514.00
77.7535 546.00
78.0577 588.00
78.362 556.00
78.6663 535.00
78.9705 565.00
79.2748 587.00
79.579 509.00
79.8833 513.00
80.1876 561.00
80.4918 518.00
80.7961 528.00
81.1003 510.00
81.4046 513.00
81.7089 526.00
82.0131 845.00
82.3174 871.00
82.6217 591.00
82.9259 536.00
83.2302 561.00
83.5344 566.00
83.8387 561.00
84.143 531.00
84.4472 566.00
84.7515 631.00
85.0557 528.00
85.36 522.00
85.6643 583.00
85.9685 578.00
86.2728 544.00
86.577 496.00
86.8813 527.00
87.1856 501.00
87.4898 459.00
87.7941 469.00
88.0983 492.00
88.4026 486.00
88.7069 533.00
89.0111 525.00
89.3154 541.00
89.6196 493.00
89.9239 486.00
90.2282 560.00
90.5324 515.00
90.8367 524.00
91.1409 518.00
91.4452 586.00
91.7495 602.00
92.0537 666.00
92.358 549.00
92.6622 483.00
92.9665 505.00
93.2708 475.00
93.575 492.00
93.8793 505.00
94.1835 534.00
94.4878 632.00
94.7921 590.00
95.0963 615.00
95.4006 570.00
95.7048 581.00
96.0091 601.00
96.3134 670.00
96.6176 648.00
96.9219 604.00
97.2261 478.00
97.5304 493.00
97.8347 461.00
98.1389 505.00
98.4432 507.00
98.7474 543.00
99.0517 506.00
99.356 527.00
99.6602 520.00
99.9645 460.00
100.095 455.00

File: Na_298.xy
9.903433 3444.00
10.2077 3113.00
10.512 3037.00
10.8162 3068.00
11.1205 2910.00
11.4247 2939.00
11.729 2884.00
12.0333 2838.00
12.3375 2758.00
12.6418 2644.00
12.946 2690.00
13.2503 2601.00
13.5546 2678.00
13.8588 2725.00
14.1631 2823.00
14.4673 3067.00
14.7716 2840.00
15.0759 2625.00
15.3801 2677.00
15.6844 2550.00
15.9886 2547.00
16.2929 2654.00
16.5972 2508.00
16.9014 2685.00
17.2057 2649.00
17.5099 2519.00
17.8142 2480.00
18.1185 2585.00
18.4227 2422.00
18.727 2504.00
19.0312 2403.00
19.3355 2412.00
19.6398 2723.00
19.944 2476.00
20.2483 2525.00
20.5525 2721.00
20.8568 6423.00
21.1611 3590.00
21.4653 2431.00
21.7696 2240.00
22.0738 2165.00
22.3781 2197.00
22.6824 2103.00
22.9866 2192.00
23.2909 2302.00
23.5951 2690.00
23.8994 2389.00
24.2037 3762.00
24.5079 2404.00
24.8122 2071.00
25.1164 2006.00
25.4207 2174.00
25.725 2307.00
26.0292 2068.00
26.3335 2069.00
26.6378 2347.00
26.942 2081.00
27.2463 2153.00
27.5505 2046.00
27.8548 2015.00
28.1591 2005.00
28.4633 2249.00
28.7676 2304.00
29.0718 2788.00
29.3761 18415.00
29.6804 3685.00
29.9846 2215.00
30.2889 2080.00
30.5931 2092.00
30.8974 2226.00
31.2017 2295.00
31.5059 2108.00
31.8102 2277.00
32.1144 2426.00
32.4187 2863.00
32.723 2579.00
33.0272 2360.00
33.3315 2441.00
33.6357 2535.00
33.94 4207.00
34.2443 5682.00
34.5485 12766.00
34.8528 2307.00
35.157 2115.00
35.4613 2191.00
35.7656 1971.00
36.0698 2458.00
36.3741 2187.00
36.6783 2043.00
36.9826 2021.00
37.2869 1908.00
37.5911 1846.00
37.8954 1851.00
38.1996 2147.00
38.5039 1916.00
38.8082 1810.00
39.1124 1816.00
39.4167 1938.00
39.7209 2057.00
40.0252 2452.00
40.3295 2144.00
40.6337 1977.00
40.938 1977.00
41.2422 1784.00
41.5465 1801.00
41.8508 1986.00
42.155 1903.00
42.4593 2387.00
42.7635 1871.00
43.0678 1884.00
43.3721 1784.00
43.6763 2810.00
43.9806 2024.00
44.2849 1761.00
44.5891 1699.00
44.8934 1756.00
45.1976 1819.00
45.5019 1799.00
45.8062 1587.00
46.1104 1713.00
46.4147 1745.00
46.7189 1720.00
47.0232 1993.00
47.3275 2260.00
47.6317 1942.00
47.936 1852.00
48.2402 2006.00
48.5445 2493.00
48.8488 11243.00
49.153 2240.00
49.4573 3748.00
49.7615 1847.00
50.0658 1793.00
50.3701 2147.00
50.6743 1786.00
50.9786 1532.00
51.2828 1495.00
51.5871 1479.00
51.8914 1586.00
52.1956 1502.00
52.4999 1523.00
52.8041 1607.00
53.1084 1704.00
53.4127 2460.00
53.7169 1759.00
54.0212 1596.00
54.3254 1587.00
54.6297 1670.00
54.934 1847.00
55.2382 1610.00
55.5425 1502.00
55.8467 1560.00
56.151 1614.00
56.4553 2577.00
56.7595 1668.00
57.0638 1514.00
57.368 1605.00
57.6723 2265.00
57.9766 5144.00
58.2808 1682.00
58.5851 1546.00
58.8893 1471.00
59.1936 2078.00
59.4979 2031.00
59.8021 1505.00
60.1064 1397.00
60.4106 1611.00
60.7149 2724.00
61.0192 1634.00
61.3234 2134.00
61.6277 2557.00
61.932 1526.00
62.2362 1642.00
62.5405 1388.00
62.8447 1371.00
63.149 1332.00
63.4533 1601.00
63.7575 1428.00
64.0618 1363.00
64.366 1505.00
64.6703 1609.00
64.9745 1697.00
65.2788 1374.00
65.5831 1465.00
65.8873 1397.00
66.1916 1425.00
66.4959 1328.00
66.8001 1283.00
67.1044 1377.00
67.4086 1276.00
67.7129 1347.00
68.0172 1308.00
68.3214 1393.00
68.6257 1328.00
68.9299 1201.00
69.2342 1256.00
69.5385 1236.00
69.8427 1328.00
70.147 1527.00
70.4512 1298.00
70.7555 1219.00
71.0598 1299.00
71.364 1877.00
71.6683 1333.00
71.9725 1433.00
72.2768 1764.00
72.5811 2014.00
72.8853 1408.00
73.1896 1289.00
73.4938 1310.00
73.7981 1536.00
74.1024 1443.00
74.4066 1196.00
74.7109 1190.00
75.0151 1392.00
75.3194 1482.00
75.6237 1172.00
75.9279 1205.00
76.2322 1326.00
76.5364 1322.00
76.8407 1135.00
77.145 1272.00
77.4492 1421.00
77.7535 1490.00
78.0577 1199.00
78.362 1256.00
78.6663 1509.00
78.9705 1806.00
79.2748 1312.00
79.579 1163.00
79.8833 1326.00
80.1876 1251.00
80.4918 1156.00
80.7961 1141.00
81.1003 1343.00
81.4046 1495.00
81.7089 1297.00
82.0131 1197.00
82.3174 1420.00
82.6217 1459.00
82.9259 1207.00
83.2302 1183.00
83.5344 1338.00
83.8387 1232.00
84.143 1198.00
84.4472 1191.00
84.7515 1215.00
85.0557 1359.00
85.36 1236.00
85.6643 1202.00
85.9685 1237.00
86.2728 1153.00
86.577 1176.00
86.8813 1167.00
87.1856 1359.00
87.4898 1349.00
87.7941 1119.00
88.0983 1204.00
88.4026 1084.00
88.7069 1136.00
89.0111 1126.00
89.3154 1180.00
89.6196 1307.00
89.9239 1259.00
90.2282 1181.00
90.5324 1228.00
90.8367 1492.00
91.1409 1455.00
91.4452 1222.00
91.7495 1098.00
92.0537 1320.00
92.358 1289.00
92.6622 1176.00
92.9665 1189.00
93.2708 1255.00
93.575 1172.00
93.8793 1177.00
94.1835 1133.00
94.4878 1168.00
94.7921 1181.00
95.0963 1132.00
95.4006 1221.00
95.7048 1551.00
96.0091 1371.00
96.3134 1158.00
96.6176 1088.00
96.9219 1180.00
97.2261 1137.00
97.5304 1104.00
97.8347 1161.00
98.1389 1581.00
98.4432 1312.00
98.7474 1223.00
99.0517 1097.00
99.356 1376.00
99.6602 1248.00
99.9645 1143.00
100.095 1059.00