Folder: alab-pipeline/data/xrd_creation/results (part 86)

File: PG_1746-1.xy
9.903433 2270.00
10.2077 2163.00
10.512 2163.00
10.8162 2081.00
11.1205 2081.00
11.4247 1824.00
11.729 1889.00
12.0333 1832.00
12.3375 1734.00
12.6418 1643.00
12.946 1615.00
13.2503 1625.00
13.5546 1511.00
13.8588 1450.00
14.1631 1430.00
14.4673 1418.00
14.7716 1303.00
15.0759 1355.00
15.3801 1323.00
15.6844 1263.00
15.9886 1265.00
16.2929 1314.00
16.5972 1200.00
16.9014 1297.00
17.2057 1234.00
17.5099 1197.00
17.8142 1255.00
18.1185 1215.00
18.4227 1159.00
18.727 1093.00
19.0312 1039.00
19.3355 1034.00
19.6398 1023.00
19.944 1012.00
20.2483 1013.00
20.5525 952.00
20.8568 977.00
21.1611 945.00
21.4653 957.00
21.7696 841.00
22.0738 885.00
22.3781 914.00
22.6824 866.00
22.9866 878.00
23.2909 867.00
23.5951 822.00
23.8994 842.00
24.2037 1001.00
24.5079 1579.00
24.8122 1226.00
25.1164 1094.00
25.4207 837.00
25.725 914.00
26.0292 799.00
26.3335 803.00
26.6378 788.00
26.942 730.00
27.2463 810.00
27.5505 1269.00
27.8548 1808.00
28.1591 1042.00
28.4633 2706.00
28.7676 6693.00
29.0718 1191.00
29.3761 798.00
29.6804 789.00
29.9846 757.00
30.2889 734.00
30.5931 714.00
30.8974 740.00
31.2017 805.00
31.5059 991.00
31.8102 2806.00
32.1144 4665.00
32.4187 964.00
32.723 720.00
33.0272 634.00
33.3315 688.00
33.6357 652.00
33.94 641.00
34.2443 767.00
34.5485 1727.00
34.8528 2205.00
35.157 1323.00
35.4613 791.00
35.7656 1762.00
36.0698 1469.00
36.3741 1796.00
36.6783 755.00
36.9826 566.00
37.2869 573.00
37.5911 517.00
37.8954 594.00
38.1996 574.00
38.5039 591.00
38.8082 671.00
39.1124 1207.00
39.4167 794.00
39.7209 548.00
40.0252 546.00
40.3295 560.00
40.6337 622.00
40.938 658.00
41.2422 1390.00
41.5465 1425.00
41.8508 971.00
42.155 712.00
42.4593 542.00
42.7635 494.00
43.0678 509.00
43.3721 489.00
43.6763 477.00
43.9806 495.00
44.2849 620.00
44.5891 518.00
44.8934 505.00
45.1976 634.00
45.5019 886.00
45.8062 691.00
46.1104 1073.00
46.4147 631.00
46.7189 507.00
47.0232 503.00
47.3275 485.00
47.6317 460.00
47.936 502.00
48.2402 552.00
48.5445 494.00
48.8488 478.00
49.153 526.00
49.4573 703.00
49.7615 1439.00
50.0658 1517.00
50.3701 713.00
50.6743 1711.00
50.9786 1832.00
51.2828 1562.00
51.5871 680.00
51.8914 1004.00
52.1956 563.00
52.4999 499.00
52.8041 455.00
53.1084 524.00
53.4127 509.00
53.7169 525.00
54.0212 579.00
54.3254 1067.00
54.6297 2012.00
54.934 1204.00
55.2382 722.00
55.5425 692.00
55.8467 1305.00
56.151 2002.00
56.4553 1185.00
56.7595 1389.00
57.0638 695.00
57.368 602.00
57.6723 864.00
57.9766 1222.00
58.2808 697.00
58.5851 1153.00
58.8893 985.00
59.1936 731.00
59.4979 590.00
59.8021 535.00
60.1064 629.00
60.4106 1200.00
60.7149 1524.00
61.0192 806.00
61.3234 587.00
61.6277 607.00
61.932 984.00
62.2362 973.00
62.5405 1197.00
62.8447 1105.00
63.149 780.00
63.4533 1231.00
63.7575 1129.00
64.0618 639.00
64.366 691.00
64.6703 597.00
64.9745 903.00
65.2788 605.00
65.5831 550.00
65.8873 632.00
66.1916 991.00
66.4959 1409.00
66.8001 815.00
67.1044 514.00
67.4086 469.00
67.7129 476.00
68.0172 499.00
68.3214 475.00
68.6257 561.00
68.9299 693.00
69.2342 848.00
69.5385 794.00
69.8427 863.00
70.147 608.00
70.4512 602.00
70.7555 513.00
71.0598 477.00
71.364 518.00
71.6683 695.00
71.9725 1110.00
72.2768 734.00
72.5811 616.00
72.8853 711.00
73.1896 706.00
73.4938 725.00
73.7981 514.00
74.1024 552.00
74.4066 491.00
74.7109 500.00
75.0151 483.00
75.3194 602.00
75.6237 751.00
75.9279 943.00
76.2322 752.00
76.5364 571.00
76.8407 529.00
77.145 712.00
77.4492 710.00
77.7535 609.00
78.0577 640.00
78.362 664.00
78.6663 657.00
78.9705 637.00
79.2748 610.00
79.579 696.00
79.8833 812.00
80.1876 586.00
80.4918 508.00
80.7961 489.00
81.1003 567.00
81.4046 533.00
81.7089 531.00
82.0131 614.00
82.3174 877.00
82.6217 750.00
82.9259 665.00
83.2302 646.00
83.5344 791.00
83.8387 831.00
84.143 846.00
84.4472 830.00
84.7515 869.00
85.0557 889.00
85.36 714.00
85.6643 718.00
85.9685 653.00
86.2728 549.00
86.577 520.00
86.8813 668.00
87.1856 687.00
87.4898 560.00
87.7941 592.00
88.0983 614.00
88.4026 724.00
88.7069 759.00
89.0111 865.00
89.3154 955.00
89.6196 866.00
89.9239 782.00
90.2282 718.00
90.5324 761.00
90.8367 909.00
91.1409 686.00
91.4452 632.00
91.7495 612.00
92.0537 654.00
92.358 644.00
92.6622 573.00
92.9665 524.00
93.2708 541.00
93.575 520.00
93.8793 550.00
94.1835 572.00
94.4878 613.00
94.7921 700.00
95.0963 755.00
95.4006 733.00
95.7048 824.00
96.0091 879.00
96.3134 886.00
96.6176 629.00
96.9219 725.00
97.2261 909.00
97.5304 1169.00
97.8347 1016.00
98.1389 882.00
98.4432 713.00
98.7474 666.00
99.0517 825.00
99.356 811.00
99.6602 828.00
99.9645 815.00
100.095 873.00

File: PG_1747-1.xy
9.903433 2471.00
10.2077 2401.00
10.512 2303.00
10.8162 2245.00
11.1205 2070.00
11.4247 2027.00
11.729 2006.00
12.0333 1840.00
12.3375 1812.00
12.6418 1782.00
12.946 1699.00
13.2503 1628.00
13.5546 1638.00
13.8588 1473.00
14.1631 1442.00
14.4673 1457.00
14.7716 1457.00
15.0759 1447.00
15.3801 1531.00
15.6844 1417.00
15.9886 1321.00
16.2929 1289.00
16.5972 1286.00
16.9014 1264.00
17.2057 1202.00
17.5099 1430.00
17.8142 1186.00
18.1185 1119.00
18.4227 1137.00
18.727 1148.00
19.0312 1075.00
19.3355 1068.00
19.6398 1060.00
19.944 1064.00
20.2483 1674.00
20.5525 1190.00
20.8568 971.00
21.1611 967.00
21.4653 954.00
21.7696 1177.00
22.0738 907.00
22.3781 886.00
22.6824 891.00
22.9866 875.00
23.2909 897.00
23.5951 864.00
23.8994 933.00
24.2037 1862.00
24.5079 1331.00
24.8122 847.00
25.1164 774.00
25.4207 816.00
25.725 759.00
26.0292 841.00
26.3335 771.00
26.6378 721.00
26.942 730.00
27.2463 689.00
27.5505 721.00
27.8548 794.00
28.1591 2277.00
28.4633 3701.00
28.7676 786.00
29.0718 724.00
29.3761 684.00
29.6804 697.00
29.9846 677.00
30.2889 636.00
30.5931 715.00
30.8974 1097.00
31.2017 908.00
31.5059 2293.00
31.8102 2531.00
32.1144 690.00
32.4187 728.00
32.723 601.00
33.0272 588.00
33.3315 626.00
33.6357 595.00
33.94 594.00
34.2443 1865.00
34.5485 2339.00
34.8528 663.00
35.157 572.00
35.4613 2121.00
35.7656 746.00
36.0698 1194.00
36.3741 563.00
36.6783 480.00
36.9826 504.00
37.2869 528.00
37.5911 525.00
37.8954 539.00
38.1996 519.00
38.5039 541.00
38.8082 1412.00
39.1124 508.00
39.4167 443.00
39.7209 498.00
40.0252 525.00
40.3295 552.00
40.6337 524.00
40.938 2039.00
41.2422 809.00
41.5465 1125.00
41.8508 542.00
42.155 521.00
42.4593 495.00
42.7635 457.00
43.0678 443.00
43.3721 447.00
43.6763 472.00
43.9806 432.00
44.2849 462.00
44.5891 496.00
44.8934 491.00
45.1976 859.00
45.5019 580.00
45.8062 1200.00
46.1104 484.00
46.4147 429.00
46.7189 462.00
47.0232 457.00
47.3275 796.00
47.6317 469.00
47.936 599.00
48.2402 482.00
48.5445 450.00
48.8488 500.00
49.153 695.00
49.4573 1587.00
49.7615 965.00
50.0658 559.00
50.3701 2455.00
50.6743 1002.00
50.9786 1432.00
51.2828 574.00
51.5871 930.00
51.8914 543.00
52.1956 537.00
52.4999 440.00
52.8041 435.00
53.1084 474.00
53.4127 425.00
53.7169 464.00
54.0212 509.00
54.3254 991.00
54.6297 1161.00
54.934 576.00
55.2382 523.00
55.5425 938.00
55.8467 2045.00
56.151 1178.00
56.4553 885.00
56.7595 421.00
57.0638 437.00
57.368 609.00
57.6723 1313.00
57.9766 532.00
58.2808 1224.00
58.5851 1033.00
58.8893 587.00
59.1936 552.00
59.4979 456.00
59.8021 505.00
60.1064 1462.00
60.4106 1592.00
60.7149 608.00
61.0192 490.00
61.3234 505.00
61.6277 818.00
61.932 1036.00
62.2362 1087.00
62.5405 1029.00
62.8447 480.00
63.149 944.00
63.4533 1329.00
63.7575 487.00
64.0618 491.00
64.366 579.00
64.6703 1098.00
64.9745 550.00
65.2788 483.00
65.5831 576.00
65.8873 815.00
66.1916 1542.00
66.4959 715.00
66.8001 477.00
67.1044 463.00
67.4086 434.00
67.7129 483.00
68.0172 475.00
68.3214 439.00
68.6257 480.00
68.9299 475.00
69.2342 570.00
69.5385 765.00
69.8427 510.00
70.147 586.00
70.4512 508.00
70.7555 497.00
71.0598 512.00
71.364 577.00
71.6683 1311.00
71.9725 735.00
72.2768 568.00
72.5811 846.00
72.8853 653.00
73.1896 721.00
73.4938 484.00
73.7981 507.00
74.1024 542.00
74.4066 487.00
74.7109 537.00
75.0151 605.00
75.3194 692.00
75.6237 1055.00
75.9279 625.00
76.2322 504.00
76.5364 525.00
76.8407 686.00
77.145 719.00
77.4492 574.00
77.7535 689.00
78.0577 746.00
78.362 568.00
78.6663 678.00
78.9705 534.00
79.2748 568.00
79.579 661.00
79.8833 537.00
80.1876 468.00
80.4918 425.00
80.7961 536.00
81.1003 567.00
81.4046 484.00
81.7089 551.00
82.0131 737.00
82.3174 721.00
82.6217 563.00
82.9259 631.00
83.2302 715.00
83.5344 738.00
83.8387 860.00
84.143 678.00
84.4472 925.00
84.7515 1086.00
85.0557 629.00
85.36 612.00
85.6643 596.00
85.9685 516.00
86.2728 481.00
86.577 622.00
86.8813 627.00
87.1856 559.00
87.4898 547.00
87.7941 559.00
88.0983 908.00
88.4026 696.00
88.7069 854.00
89.0111 812.00
89.3154 766.00
89.6196 646.00
89.9239 660.00
90.2282 720.00
90.5324 913.00
90.8367 722.00
91.1409 537.00
91.4452 566.00
91.7495 520.00
92.0537 784.00
92.358 689.00
92.6622 513.00
92.9665 464.00
93.2708 480.00
93.575 579.00
93.8793 556.00
94.1835 532.00
94.4878 885.00
94.7921 782.00
95.0963 568.00
95.4006 706.00
95.7048 873.00
96.0091 729.00
96.3134 606.00
96.6176 595.00
96.9219 872.00
97.2261 1214.00
97.5304 969.00
97.8347 821.00
98.1389 711.00
98.4432 644.00
98.7474 980.00
99.0517 788.00
99.356 754.00
99.6602 709.00
99.9645 886.00
100.095 1215.00

File: PG_1748-1.xy
9.903433 2484.00
10.2077 2499.00
10.512 2339.00
10.8162 2289.00
11.1205 2241.00
11.4247 2180.00
11.729 2015.00
12.0333 2011.00
12.3375 1982.00
12.6418 1814.00
12.946 1882.00
13.2503 1737.00
13.5546 1728.00
13.8588 1703.00
14.1631 1777.00
14.4673 1672.00
14.7716 1640.00
15.0759 1618.00
15.3801 1668.00
15.6844 2175.00
15.9886 1602.00
16.2929 1551.00
16.5972 1559.00
16.9014 1405.00
17.2057 1433.00
17.5099 1542.00
17.8142 2082.00
18.1185 1413.00
18.4227 1342.00
18.727 1345.00
19.0312 1300.00
19.3355 1231.00
19.6398 1255.00
19.944 1350.00
20.2483 1461.00
20.5525 3188.00
20.8568 1391.00
21.1611 1194.00
21.4653 1190.00
21.7696 1277.00
22.0738 1872.00
22.3781 1165.00
22.6824 1229.00
22.9866 1201.00
23.2909 1164.00
23.5951 1102.00
23.8994 1186.00
24.2037 1485.00
24.5079 3633.00
24.8122 2313.00
25.1164 1327.00
25.4207 1130.00
25.725 1158.00
26.0292 1172.00
26.3335 1785.00
26.6378 1165.00
26.942 1009.00
27.2463 1004.00
27.5505 1093.00
27.8548 1352.00
28.1591 1790.00
28.4633 6167.00
28.7676 8602.00
29.0718 1794.00
29.3761 1270.00
29.6804 1140.00
29.9846 1125.00
30.2889 1083.00
30.5931 1112.00
30.8974 1174.00
31.2017 1920.00
31.5059 2115.00
31.8102 6094.00
32.1144 5541.00
32.4187 1520.00
32.723 1667.00
33.0272 1086.00
33.3315 1018.00
33.6357 1240.00
33.94 1024.00
34.2443 1249.00
34.5485 4487.00
34.8528 4516.00
35.157 1593.00
35.4613 1303.00
35.7656 4384.00
36.0698 1453.00
36.3741 2138.00
36.6783 944.00
36.9826 856.00
37.2869 815.00
37.5911 851.00
37.8954 785.00
38.1996 821.00
38.5039 809.00
38.8082 1022.00
39.1124 2329.00
39.4167 970.00
39.7209 820.00
40.0252 870.00
40.3295 877.00
40.6337 956.00
40.938 1117.00
41.2422 2853.00
41.5465 1804.00
41.8508 1620.00
42.155 959.00
42.4593 875.00
42.7635 734.00
43.0678 730.00
43.3721 758.00
43.6763 716.00
43.9806 736.00
44.2849 792.00
44.5891 739.00
44.8934 758.00
45.1976 1030.00
45.5019 1377.00
45.8062 1260.00
46.1104 1789.00
46.4147 819.00
46.7189 743.00
47.0232 728.00
47.3275 751.00
47.6317 1245.00
47.936 801.00
48.2402 910.00
48.5445 796.00
48.8488 832.00
49.153 1068.00
49.4573 1177.00
49.7615 3112.00
50.0658 1694.00
50.3701 1131.00
50.6743 4417.00
50.9786 2112.00
51.2828 2060.00
51.5871 1391.00
51.8914 1469.00
52.1956 944.00
52.4999 785.00
52.8041 753.00
53.1084 712.00
53.4127 724.00
53.7169 701.00
54.0212 819.00
54.3254 967.00
54.6297 2150.00
54.934 1562.00
55.2382 1050.00
55.5425 1054.00
55.8467 2342.00
56.151 3016.00
56.4553 2059.00
56.7595 1464.00
57.0638 841.00
57.368 918.00
57.6723 1444.00
57.9766 1634.00
58.2808 1121.00
58.5851 1813.00
58.8893 1652.00
59.1936 1041.00
59.4979 880.00
59.8021 821.00
60.1064 910.00
60.4106 2274.00
60.7149 2139.00
61.0192 1007.00
61.3234 1058.00
61.6277 847.00
61.932 1504.00
62.2362 1548.00
62.5405 2159.00
62.8447 1325.00
63.149 971.00
63.4533 2069.00
63.7575 1517.00
64.0618 859.00
64.366 787.00
64.6703 955.00
64.9745 1413.00
65.2788 846.00
65.5831 829.00
65.8873 990.00
66.1916 1428.00
66.4959 2051.00
66.8001 993.00
67.1044 711.00
67.4086 699.00
67.7129 647.00
68.0172 707.00
68.3214 651.00
68.6257 740.00
68.9299 748.00
69.2342 765.00
69.5385 989.00
69.8427 1014.00
70.147 791.00
70.4512 850.00
70.7555 831.00
71.0598 780.00
71.364 773.00
71.6683 1061.00
71.9725 1659.00
72.2768 979.00
72.5811 1008.00
72.8853 1133.00
73.1896 1048.00
73.4938 950.00
73.7981 749.00
74.1024 735.00
74.4066 714.00
74.7109 855.00
75.0151 758.00
75.3194 862.00
75.6237 1062.00
75.9279 1380.00
76.2322 977.00
76.5364 758.00
76.8407 764.00
77.145 1034.00
77.4492 951.00
77.7535 796.00
78.0577 982.00
78.362 965.00
78.6663 849.00
78.9705 835.00
79.2748 798.00
79.579 989.00
79.8833 994.00
80.1876 744.00
80.4918 691.00
80.7961 653.00
81.1003 749.00
81.4046 796.00
81.7089 779.00
82.0131 850.00
82.3174 1132.00
82.6217 913.00
82.9259 833.00
83.2302 973.00
83.5344 1062.00
83.8387 1142.00
84.143 1215.00
84.4472 969.00
84.7515 1178.00
85.0557 1129.00
85.36 889.00
85.6643 1046.00
85.9685 881.00
86.2728 746.00
86.577 717.00
86.8813 982.00
87.1856 806.00
87.4898 743.00
87.7941 772.00
88.0983 867.00
88.4026 1047.00
88.7069 900.00
89.0111 1157.00
89.3154 1285.00
89.6196 1037.00
89.9239 889.00
90.2282 997.00
90.5324 1102.00
90.8367 1124.00
91.1409 877.00
91.4452 824.00
91.7495 788.00
92.0537 822.00
92.358 797.00
92.6622 739.00
92.9665 706.00
93.2708 718.00
93.575 712.00
93.8793 833.00
94.1835 704.00
94.4878 808.00
94.7921 873.00
95.0963 819.00
95.4006 804.00
95.7048 905.00
96.0091 1155.00
96.3134 998.00
96.6176 829.00
96.9219 1027.00
97.2261 1019.00
97.5304 1288.00
97.8347 1305.00
98.1389 919.00
98.4432 864.00
98.7474 920.00
99.0517 1025.00
99.356 976.00
99.6602 1102.00
99.9645 1067.00
100.095 1132.00

File: PG_1750-1.xy
9.903433 2640.00
10.2077 2519.00
10.512 2384.00
10.8162 2377.00
11.1205 2327.00
11.4247 2179.00
11.729 2144.00
12.0333 2008.00
12.3375 1971.00
12.6418 1895.00
12.946 1842.00
13.2503 1759.00
13.5546 1786.00
13.8588 1773.00
14.1631 1688.00
14.4673 1712.00
14.7716 1694.00
15.0759 1552.00
15.3801 1569.00
15.6844 1666.00
15.9886 1531.00
16.2929 1528.00
16.5972 1491.00
16.9014 1580.00
17.2057 1547.00
17.5099 1598.00
17.8142 1962.00
18.1185 1431.00
18.4227 1371.00
18.727 1409.00
19.0312 1414.00
19.3355 1390.00
19.6398 1326.00
19.944 1334.00
20.2483 1350.00
20.5525 1547.00
20.8568 2448.00
21.1611 1309.00
21.4653 1247.00
21.7696 1303.00
22.0738 1246.00
22.3781 1130.00
22.6824 1262.00
22.9866 1190.00
23.2909 1176.00
23.5951 1186.00
23.8994 1273.00
24.2037 1514.00
24.5079 3083.00
24.8122 2081.00
25.1164 1307.00
25.4207 1069.00
25.725 1118.00
26.0292 1059.00
26.3335 1100.00
26.6378 1063.00
26.942 1115.00
27.2463 1120.00
27.5505 1145.00
27.8548 1311.00
28.1591 1653.00
28.4633 5391.00
28.7676 7561.00
29.0718 2339.00
29.3761 10213.00
29.6804 2118.00
29.9846 1395.00
30.2889 1302.00
30.5931 1189.00
30.8974 1222.00
31.2017 1313.00
31.5059 1670.00
31.8102 5614.00
32.1144 4322.00
32.4187 1353.00
32.723 1109.00
33.0272 1017.00
33.3315 1047.00
33.6357 1123.00
33.94 2136.00
34.2443 2022.00
34.5485 3848.00
34.8528 3528.00
35.157 1538.00
35.4613 1260.00
35.7656 3806.00
36.0698 1654.00
36.3741 2034.00
36.6783 1009.00
36.9826 953.00
37.2869 938.00
37.5911 909.00
37.8954 932.00
38.1996 1100.00
38.5039 961.00
38.8082 1034.00
39.1124 2107.00
39.4167 1081.00
39.7209 913.00
40.0252 1259.00
40.3295 1083.00
40.6337 1028.00
40.938 1128.00
41.2422 2616.00
41.5465 1457.00
41.8508 1494.00
42.155 1003.00
42.4593 831.00
42.7635 891.00
43.0678 856.00
43.3721 900.00
43.6763 1472.00
43.9806 1013.00
44.2849 866.00
44.5891 859.00
44.8934 829.00
45.1976 1029.00
45.5019 1225.00
45.8062 1086.00
46.1104 1635.00
46.4147 911.00
46.7189 816.00
47.0232 966.00
47.3275 1025.00
47.6317 876.00
47.936 893.00
48.2402 917.00
48.5445 1459.00
48.8488 6781.00
49.153 1167.00
49.4573 1262.00
49.7615 2848.00
50.0658 1651.00
50.3701 1466.00
50.6743 3795.00
50.9786 1945.00
51.2828 1920.00
51.5871 1128.00
51.8914 1556.00
52.1956 894.00
52.4999 863.00
52.8041 825.00
53.1084 865.00
53.4127 1359.00
53.7169 935.00
54.0212 913.00
54.3254 1011.00
54.6297 1982.00
54.934 1570.00
55.2382 1066.00
55.5425 1052.00
55.8467 2325.00
56.151 2656.00
56.4553 2524.00
56.7595 1574.00
57.0638 923.00
57.368 1095.00
57.6723 2062.00
57.9766 4014.00
58.2808 1288.00
58.5851 1775.00
58.8893 1479.00
59.1936 1414.00
59.4979 1320.00
59.8021 940.00
60.1064 977.00
60.4106 2132.00
60.7149 2719.00
61.0192 1063.00
61.3234 887.00
61.6277 996.00
61.932 1748.00
62.2362 1563.00
62.5405 1864.00
62.8447 1320.00
63.149 1128.00
63.4533 2084.00
63.7575 1473.00
64.0618 899.00
64.366 866.00
64.6703 1282.00
64.9745 1604.00
65.2788 857.00
65.5831 898.00
65.8873 1030.00
66.1916 1552.00
66.4959 1731.00
66.8001 1044.00
67.1044 820.00
67.4086 810.00
67.7129 787.00
68.0172 827.00
68.3214 886.00
68.6257 776.00
68.9299 842.00
69.2342 816.00
69.5385 1039.00
69.8427 1010.00
70.147 1030.00
70.4512 900.00
70.7555 831.00
71.0598 925.00
71.364 1274.00
71.6683 1293.00
71.9725 1581.00
72.2768 1053.00
72.5811 1515.00
72.8853 1143.00
73.1896 1056.00
73.4938 1033.00
73.7981 1056.00
74.1024 1041.00
74.4066 875.00
74.7109 832.00
75.0151 968.00
75.3194 1235.00
75.6237 1087.00
75.9279 1374.00
76.2322 1029.00
76.5364 881.00
76.8407 886.00
77.145 1069.00
77.4492 1165.00
77.7535 1134.00
78.0577 1110.00
78.362 1096.00
78.6663 1225.00
78.9705 1343.00
79.2748 884.00
79.579 1111.00
79.8833 1075.00
80.1876 822.00
80.4918 869.00
80.7961 863.00
81.1003 1056.00
81.4046 1136.00
81.7089 841.00
82.0131 960.00
82.3174 1158.00
82.6217 1024.00
82.9259 897.00
83.2302 1027.00
83.5344 1178.00
83.8387 1351.00
84.143 1224.00
84.4472 1050.00
84.7515 1328.00
85.0557 1313.00
85.36 963.00
85.6643 1108.00
85.9685 998.00
86.2728 829.00
86.577 871.00
86.8813 1069.00
87.1856 1004.00
87.4898 977.00
87.7941 904.00
88.0983 922.00
88.4026 1074.00
88.7069 1098.00
89.0111 1213.00
89.3154 1339.00
89.6196 1219.00
89.9239 1078.00
90.2282 1044.00
90.5324 1142.00
90.8367 1362.00
91.1409 1180.00
91.4452 952.00
91.7495 951.00
92.0537 1126.00
92.358 1033.00
92.6622 888.00
92.9665 826.00
93.2708 961.00
93.575 902.00
93.8793 878.00
94.1835 920.00
94.4878 971.00
94.7921 1078.00
95.0963 905.00
95.4006 974.00
95.7048 1279.00
96.0091 1286.00
96.3134 1085.00
96.6176 951.00
96.9219 1116.00
97.2261 1274.00
97.5304 1426.00
97.8347 1415.00
98.1389 1514.00
98.4432 1165.00
98.7474 1018.00
99.0517 1154.00
99.356 1262.00
99.6602 1294.00
99.9645 1181.00
100.095 1194.00

File: PG_1751-1.xy
9.903433 2477.00
10.2077 2344.00
10.512 2268.00
10.8162 2182.00
11.1205 2064.00
11.4247 1981.00
11.729 1958.00
12.0333 1846.00
12.3375 1702.00
12.6418 1677.00
12.946 1589.00
13.2503 1655.00
13.5546 1578.00
13.8588 1475.00
14.1631 1502.00
14.4673 1418.00
14.7716 1448.00
15.0759 1453.00
15.3801 1341.00
15.6844 1375.00
15.9886 1317.00
16.2929 1251.00
16.5972 1266.00
16.9014 1238.00
17.2057 1280.00
17.5099 1302.00
17.8142 1557.00
18.1185 1185.00
18.4227 1120.00
18.727 1140.00
19.0312 1046.00
19.3355 1031.00
19.6398 1014.00
19.944 1001.00
20.2483 999.00
20.5525 964.00
20.8568 969.00
21.1611 951.00
21.4653 955.00
21.7696 907.00
22.0738 862.00
22.3781 891.00
22.6824 860.00
22.9866 869.00
23.2909 846.00
23.5951 841.00
23.8994 848.00
24.2037 1026.00
24.5079 2043.00
24.8122 1760.00
25.1164 859.00
25.4207 758.00
25.725 835.00
26.0292 753.00
26.3335 737.00
26.6378 728.00
26.942 710.00
27.2463 695.00
27.5505 714.00
27.8548 837.00
28.1591 1049.00
28.4633 5034.00
28.7676 4044.00
29.0718 891.00
29.3761 773.00
29.6804 743.00
29.9846 651.00
30.2889 662.00
30.5931 696.00
30.8974 687.00
31.2017 760.00
31.5059 1001.00
31.8102 5596.00
32.1144 3678.00
32.4187 757.00
32.723 597.00
33.0272 612.00
33.3315 605.00
33.6357 578.00
33.94 643.00
34.2443 844.00
34.5485 3441.00
34.8528 2994.00
35.157 805.00
35.4613 848.00
35.7656 2930.00
36.0698 937.00
36.3741 2441.00
36.6783 1676.00
36.9826 595.00
37.2869 550.00
37.5911 480.00
37.8954 555.00
38.1996 484.00
38.5039 503.00
38.8082 670.00
39.1124 1351.00
39.4167 608.00
39.7209 476.00
40.0252 532.00
40.3295 536.00
40.6337 541.00
40.938 702.00
41.2422 1884.00
41.5465 962.00
41.8508 919.00
42.155 552.00
42.4593 469.00
42.7635 434.00
43.0678 412.00
43.3721 464.00
43.6763 472.00
43.9806 454.00
44.2849 428.00
44.5891 474.00
44.8934 469.00
45.1976 732.00
45.5019 661.00
45.8062 699.00
46.1104 1019.00
46.4147 479.00
46.7189 438.00
47.0232 412.00
47.3275 449.00
47.6317 687.00
47.936 828.00
48.2402 440.00
48.5445 449.00
48.8488 483.00
49.153 509.00
49.4573 829.00
49.7615 2274.00
50.0658 823.00
50.3701 758.00
50.6743 2847.00
50.9786 1358.00
51.2828 1111.00
51.5871 718.00
51.8914 863.00
52.1956 474.00
52.4999 455.00
52.8041 406.00
53.1084 444.00
53.4127 427.00
53.7169 410.00
54.0212 464.00
54.3254 679.00
54.6297 1715.00
54.934 719.00
55.2382 649.00
55.5425 688.00
55.8467 2007.00
56.151 1642.00
56.4553 1471.00
56.7595 1686.00
57.0638 739.00
57.368 555.00
57.6723 1182.00
57.9766 894.00
58.2808 768.00
58.5851 1185.00
58.8893 995.00
59.1936 509.00
59.4979 483.00
59.8021 462.00
60.1064 682.00
60.4106 1633.00
60.7149 1274.00
61.0192 568.00
61.3234 521.00
61.6277 645.00
61.932 1192.00
62.2362 844.00
62.5405 1420.00
62.8447 964.00
63.149 1601.00
63.4533 1719.00
63.7575 779.00
64.0618 556.00
64.366 465.00
64.6703 764.00
64.9745 831.00
65.2788 524.00
65.5831 549.00
65.8873 796.00
66.1916 1275.00
66.4959 1330.00
66.8001 610.00
67.1044 463.00
67.4086 497.00
67.7129 485.00
68.0172 811.00
68.3214 881.00
68.6257 429.00
68.9299 491.00
69.2342 766.00
69.5385 952.00
69.8427 609.00
70.147 542.00
70.4512 494.00
70.7555 541.00
71.0598 465.00
71.364 538.00
71.6683 1005.00
71.9725 1045.00
72.2768 561.00
72.5811 638.00
72.8853 748.00
73.1896 745.00
73.4938 586.00
73.7981 463.00
74.1024 487.00
74.4066 487.00
74.7109 438.00
75.0151 533.00
75.3194 708.00
75.6237 776.00
75.9279 939.00
76.2322 657.00
76.5364 454.00
76.8407 562.00
77.145 874.00
77.4492 655.00
77.7535 554.00
78.0577 697.00
78.362 657.00
78.6663 627.00
78.9705 558.00
79.2748 537.00
79.579 809.00
79.8833 660.00
80.1876 452.00
80.4918 459.00
80.7961 461.00
81.1003 538.00
81.4046 556.00
81.7089 600.00
82.0131 683.00
82.3174 767.00
82.6217 587.00
82.9259 604.00
83.2302 739.00
83.5344 789.00
83.8387 910.00
84.143 765.00
84.4472 771.00
84.7515 876.00
85.0557 819.00
85.36 653.00
85.6643 748.00
85.9685 603.00
86.2728 488.00
86.577 581.00
86.8813 732.00
87.1856 602.00
87.4898 525.00
87.7941 520.00
88.0983 651.00
88.4026 809.00
88.7069 762.00
89.0111 885.00
89.3154 967.00
89.6196 843.00
89.9239 790.00
90.2282 743.00
90.5324 905.00
90.8367 789.00
91.1409 593.00
91.4452 611.00
91.7495 628.00
92.0537 615.00
92.358 614.00
92.6622 555.00
92.9665 601.00
93.2708 578.00
93.575 536.00
93.8793 540.00
94.1835 541.00
94.4878 655.00
94.7921 692.00
95.0963 641.00
95.4006 899.00
95.7048 873.00
96.0091 879.00
96.3134 741.00
96.6176 670.00
96.9219 918.00
97.2261 948.00
97.5304 1155.00
97.8347 1101.00
98.1389 716.00
98.4432 622.00
98.7474 839.00
99.0517 869.00
99.356 823.00
99.6602 835.00
99.9645 970.00
100.095 992.00