Folder: alab-pipeline/data/xrd_creation/results (part 63)

File: NSC_156.xy
9.903433 2638.00
10.2077 2584.00
10.512 2451.00
10.8162 2439.00
11.1205 2361.00
11.4247 2260.00
11.729 2166.00
12.0333 2143.00
12.3375 2207.00
12.6418 2286.00
12.946 2177.00
13.2503 2843.00
13.5546 1915.00
13.8588 1982.00
14.1631 2805.00
14.4673 1740.00
14.7716 1731.00
15.0759 1714.00
15.3801 1654.00
15.6844 1681.00
15.9886 1708.00
16.2929 1640.00
16.5972 1674.00
16.9014 1530.00
17.2057 1568.00
17.5099 1535.00
17.8142 1652.00
18.1185 1688.00
18.4227 1448.00
18.727 1395.00
19.0312 1446.00
19.3355 1489.00
19.6398 2534.00
19.944 14969.00
20.2483 1777.00
20.5525 1445.00
20.8568 1403.00
21.1611 1306.00
21.4653 1357.00
21.7696 1311.00
22.0738 1437.00
22.3781 1665.00
22.6824 1203.00
22.9866 1219.00
23.2909 1737.00
23.5951 1220.00
23.8994 1187.00
24.2037 1113.00
24.5079 1149.00
24.8122 1091.00
25.1164 1104.00
25.4207 1051.00
25.725 1028.00
26.0292 1060.00
26.3335 1151.00
26.6378 1582.00
26.942 4481.00
27.2463 1114.00
27.5505 1044.00
27.8548 1739.00
28.1591 2636.00
28.4633 1283.00
28.7676 958.00
29.0718 887.00
29.3761 952.00
29.6804 1002.00
29.9846 849.00
30.2889 925.00
30.5931 1028.00
30.8974 1563.00
31.2017 933.00
31.5059 1703.00
31.8102 8264.00
32.1144 939.00
32.4187 761.00
32.723 814.00
33.0272 801.00
33.3315 912.00
33.6357 881.00
33.94 2026.00
34.2443 3435.00
34.5485 3426.00
34.8528 3108.00
35.157 995.00
35.4613 1168.00
35.7656 786.00
36.0698 798.00
36.3741 877.00
36.6783 691.00
36.9826 701.00
37.2869 662.00
37.5911 719.00
37.8954 642.00
38.1996 1303.00
38.5039 839.00
38.8082 627.00
39.1124 637.00
39.4167 716.00
39.7209 670.00
40.0252 777.00
40.3295 1488.00
40.6337 674.00
40.938 606.00
41.2422 605.00
41.5465 551.00
41.8508 647.00
42.155 1930.00
42.4593 802.00
42.7635 1311.00
43.0678 1163.00
43.3721 582.00
43.6763 558.00
43.9806 568.00
44.2849 587.00
44.5891 580.00
44.8934 668.00
45.1976 3838.00
45.5019 1068.00
45.8062 575.00
46.1104 602.00
46.4147 566.00
46.7189 638.00
47.0232 834.00
47.3275 839.00
47.6317 3975.00
47.936 820.00
48.2402 551.00
48.5445 552.00
48.8488 493.00
49.153 481.00
49.4573 511.00
49.7615 874.00
50.0658 967.00
50.3701 584.00
50.6743 495.00
50.9786 467.00
51.2828 624.00
51.5871 879.00
51.8914 1941.00
52.1956 3457.00
52.4999 723.00
52.8041 518.00
53.1084 510.00
53.4127 551.00
53.7169 758.00
54.0212 3504.00
54.3254 1035.00
54.6297 617.00
54.934 740.00
55.2382 761.00
55.5425 894.00
55.8467 526.00
56.151 396.00
56.4553 412.00
56.7595 481.00
57.0638 447.00
57.368 472.00
57.6723 450.00
57.9766 609.00
58.2808 839.00
58.5851 454.00
58.8893 428.00
59.1936 403.00
59.4979 528.00
59.8021 623.00
60.1064 3161.00
60.4106 1613.00
60.7149 491.00
61.0192 407.00
61.3234 447.00
61.6277 540.00
61.932 1913.00
62.2362 1244.00
62.5405 584.00
62.8447 591.00
63.149 480.00
63.4533 656.00
63.7575 641.00
64.0618 1094.00
64.366 781.00
64.6703 490.00
64.9745 756.00
65.2788 602.00
65.5831 1179.00
65.8873 970.00
66.1916 892.00
66.4959 676.00
66.8001 487.00
67.1044 599.00
67.4086 758.00
67.7129 1204.00
68.0172 920.00
68.3214 391.00
68.6257 379.00
68.9299 470.00
69.2342 1414.00
69.5385 575.00
69.8427 444.00
70.147 369.00
70.4512 398.00
70.7555 547.00
71.0598 404.00
71.364 515.00
71.6683 515.00
71.9725 437.00
72.2768 396.00
72.5811 542.00
72.8853 984.00
73.1896 480.00
73.4938 391.00
73.7981 355.00
74.1024 539.00
74.4066 474.00
74.7109 713.00
75.0151 641.00
75.3194 372.00
75.6237 355.00
75.9279 372.00
76.2322 1054.00
76.5364 502.00
76.8407 423.00
77.145 326.00
77.4492 408.00
77.7535 433.00
78.0577 752.00
78.362 657.00
78.6663 494.00
78.9705 588.00
79.2748 483.00
79.579 382.00
79.8833 368.00
80.1876 404.00
80.4918 383.00
80.7961 375.00
81.1003 482.00
81.4046 1131.00
81.7089 1135.00
82.0131 540.00
82.3174 373.00
82.6217 321.00
82.9259 580.00
83.2302 728.00
83.5344 488.00
83.8387 449.00
84.143 506.00
84.4472 542.00
84.7515 473.00
85.0557 362.00
85.36 349.00
85.6643 326.00
85.9685 301.00
86.2728 461.00
86.577 413.00
86.8813 363.00
87.1856 416.00
87.4898 435.00
87.7941 421.00
88.0983 791.00
88.4026 829.00
88.7069 581.00
89.0111 402.00
89.3154 333.00
89.6196 537.00
89.9239 635.00
90.2282 597.00
90.5324 580.00
90.8367 528.00
91.1409 575.00
91.4452 692.00
91.7495 769.00
92.0537 476.00
92.358 292.00
92.6622 338.00
92.9665 650.00
93.2708 688.00
93.575 571.00
93.8793 481.00
94.1835 398.00
94.4878 366.00
94.7921 569.00
95.0963 730.00
95.4006 482.00
95.7048 340.00
96.0091 364.00
96.3134 783.00
96.6176 650.00
96.9219 498.00
97.2261 466.00
97.5304 391.00
97.8347 347.00
98.1389 380.00
98.4432 330.00
98.7474 351.00
99.0517 291.00
99.356 339.00
99.6602 318.00
99.9645 347.00
100.095 418.00

File: NSC_157.xy
9.903433 3065.00
10.2077 2934.00
10.512 2810.00
10.8162 2707.00
11.1205 2694.00
11.4247 2565.00
11.729 2500.00
12.0333 2345.00
12.3375 2339.00
12.6418 2441.00
12.946 3203.00
13.2503 2367.00
13.5546 2263.00
13.8588 2227.00
14.1631 2217.00
14.4673 2137.00
14.7716 2088.00
15.0759 2072.00
15.3801 2138.00
15.6844 2158.00
15.9886 2270.00
16.2929 2418.00
16.5972 2479.00
16.9014 5162.00
17.2057 2426.00
17.5099 2541.00
17.8142 2005.00
18.1185 1941.00
18.4227 1988.00
18.727 2478.00
19.0312 2231.00
19.3355 2330.00
19.6398 4999.00
19.944 7509.00
20.2483 2070.00
20.5525 2583.00
20.8568 1909.00
21.1611 1816.00
21.4653 1780.00
21.7696 1806.00
22.0738 1733.00
22.3781 1678.00
22.6824 1844.00
22.9866 1798.00
23.2909 2130.00
23.5951 2216.00
23.8994 2007.00
24.2037 2073.00
24.5079 1578.00
24.8122 1681.00
25.1164 1744.00
25.4207 3007.00
25.725 1751.00
26.0292 1841.00
26.3335 1651.00
26.6378 1560.00
26.942 1528.00
27.2463 1736.00
27.5505 1563.00
27.8548 1560.00
28.1591 1764.00
28.4633 1580.00
28.7676 1951.00
29.0718 4924.00
29.3761 3414.00
29.6804 1772.00
29.9846 1588.00
30.2889 1827.00
30.5931 1530.00
30.8974 2471.00
31.2017 2375.00
31.5059 3027.00
31.8102 2294.00
32.1144 5500.00
32.4187 2033.00
32.723 2424.00
33.0272 3624.00
33.3315 1718.00
33.6357 3291.00
33.94 6867.00
34.2443 5117.00
34.5485 2568.00
34.8528 1697.00
35.157 1844.00
35.4613 1991.00
35.7656 1702.00
36.0698 1692.00
36.3741 1365.00
36.6783 1731.00
36.9826 1377.00
37.2869 1318.00
37.5911 1383.00
37.8954 1811.00
38.1996 1664.00
38.5039 1693.00
38.8082 2080.00
39.1124 1984.00
39.4167 1568.00
39.7209 1527.00
40.0252 2465.00
40.3295 1570.00
40.6337 1633.00
40.938 1222.00
41.2422 1123.00
41.5465 1233.00
41.8508 1429.00
42.155 1726.00
42.4593 1353.00
42.7635 1222.00
43.0678 1521.00
43.3721 1682.00
43.6763 1544.00
43.9806 1493.00
44.2849 1413.00
44.5891 1506.00
44.8934 1196.00
45.1976 1245.00
45.5019 1238.00
45.8062 1357.00
46.1104 1290.00
46.4147 1775.00
46.7189 3477.00
47.0232 2210.00
47.3275 1750.00
47.6317 1345.00
47.936 1347.00
48.2402 1657.00
48.5445 3872.00
48.8488 2459.00
49.153 1782.00
49.4573 2484.00
49.7615 1461.00
50.0658 1258.00
50.3701 1375.00
50.6743 1354.00
50.9786 1257.00
51.2828 1648.00
51.5871 1169.00
51.8914 1141.00
52.1956 1347.00
52.4999 1199.00
52.8041 1351.00
53.1084 1703.00
53.4127 1566.00
53.7169 1665.00
54.0212 1186.00
54.3254 1183.00
54.6297 1137.00
54.934 1116.00
55.2382 1138.00
55.5425 1099.00
55.8467 1316.00
56.151 1303.00
56.4553 1196.00
56.7595 1208.00
57.0638 1219.00
57.368 1333.00
57.6723 2146.00
57.9766 1526.00
58.2808 2397.00
58.5851 1300.00
58.8893 1780.00
59.1936 1313.00
59.4979 1174.00
59.8021 1126.00
60.1064 1175.00
60.4106 1437.00
60.7149 1740.00
61.0192 1331.00
61.3234 1815.00
61.6277 1420.00
61.932 1304.00
62.2362 1033.00
62.5405 1033.00
62.8447 972.00
63.149 1046.00
63.4533 1018.00
63.7575 1066.00
64.0618 1295.00
64.366 1234.00
64.6703 1224.00
64.9745 1408.00
65.2788 1240.00
65.5831 993.00
65.8873 1048.00
66.1916 873.00
66.4959 864.00
66.8001 1004.00
67.1044 1032.00
67.4086 1048.00
67.7129 847.00
68.0172 1046.00
68.3214 950.00
68.6257 899.00
68.9299 1100.00
69.2342 1067.00
69.5385 906.00
69.8427 1023.00
70.147 969.00
70.4512 876.00
70.7555 792.00
71.0598 1036.00
71.364 1044.00
71.6683 1097.00
71.9725 941.00
72.2768 1017.00
72.5811 1037.00
72.8853 900.00
73.1896 862.00
73.4938 912.00
73.7981 895.00
74.1024 794.00
74.4066 742.00
74.7109 798.00
75.0151 842.00
75.3194 840.00
75.6237 903.00
75.9279 797.00
76.2322 844.00
76.5364 837.00
76.8407 902.00
77.145 921.00
77.4492 919.00
77.7535 864.00
78.0577 980.00
78.362 1096.00
78.6663 1026.00
78.9705 917.00
79.2748 900.00
79.579 842.00
79.8833 766.00
80.1876 823.00
80.4918 788.00
80.7961 842.00
81.1003 1034.00
81.4046 942.00
81.7089 871.00
82.0131 788.00
82.3174 864.00
82.6217 899.00
82.9259 774.00
83.2302 937.00
83.5344 952.00
83.8387 901.00
84.143 828.00
84.4472 828.00
84.7515 867.00
85.0557 865.00
85.36 881.00
85.6643 825.00
85.9685 806.00
86.2728 860.00
86.577 856.00
86.8813 823.00
87.1856 925.00
87.4898 1084.00
87.7941 872.00
88.0983 753.00
88.4026 727.00
88.7069 726.00
89.0111 754.00
89.3154 821.00
89.6196 814.00
89.9239 765.00
90.2282 845.00
90.5324 804.00
90.8367 799.00
91.1409 879.00
91.4452 830.00
91.7495 825.00
92.0537 864.00
92.358 889.00
92.6622 742.00
92.9665 690.00
93.2708 743.00
93.575 822.00
93.8793 762.00
94.1835 792.00
94.4878 772.00
94.7921 711.00
95.0963 735.00
95.4006 830.00
95.7048 883.00
96.0091 821.00
96.3134 747.00
96.6176 916.00
96.9219 851.00
97.2261 904.00
97.5304 844.00
97.8347 793.00
98.1389 754.00
98.4432 787.00
98.7474 822.00
99.0517 758.00
99.356 756.00
99.6602 720.00
99.9645 792.00
100.095 732.00

File: NSC_158.xy
9.903433 2627.00
10.2077 2513.00
10.512 2566.00
10.8162 2342.00
11.1205 2176.00
11.4247 2096.00
11.729 2168.00
12.0333 2000.00
12.3375 2028.00
12.6418 1885.00
12.946 1825.00
13.2503 1801.00
13.5546 1678.00
13.8588 1632.00
14.1631 1574.00
14.4673 1568.00
14.7716 1476.00
15.0759 1519.00
15.3801 1510.00
15.6844 1536.00
15.9886 1393.00
16.2929 1400.00
16.5972 1375.00
16.9014 1418.00
17.2057 1435.00
17.5099 1361.00
17.8142 1334.00
18.1185 1305.00
18.4227 1322.00
18.727 1428.00
19.0312 1373.00
19.3355 1292.00
19.6398 1250.00
19.944 1355.00
20.2483 1568.00
20.5525 1734.00
20.8568 3643.00
21.1611 3721.00
21.4653 1355.00
21.7696 1346.00
22.0738 1345.00
22.3781 1267.00
22.6824 1291.00
22.9866 1339.00
23.2909 1814.00
23.5951 1485.00
23.8994 1232.00
24.2037 1681.00
24.5079 1274.00
24.8122 1152.00
25.1164 1291.00
25.4207 1176.00
25.725 1204.00
26.0292 1156.00
26.3335 1209.00
26.6378 1151.00
26.942 1201.00
27.2463 1202.00
27.5505 1101.00
27.8548 994.00
28.1591 1061.00
28.4633 1084.00
28.7676 979.00
29.0718 1061.00
29.3761 1195.00
29.6804 1367.00
29.9846 1059.00
30.2889 987.00
30.5931 1076.00
30.8974 1074.00
31.2017 1066.00
31.5059 1060.00
31.8102 1045.00
32.1144 994.00
32.4187 1121.00
32.723 1177.00
33.0272 1046.00
33.3315 1212.00
33.6357 1216.00
33.94 1496.00
34.2443 7587.00
34.5485 17489.00
34.8528 2601.00
35.157 1372.00
35.4613 1203.00
35.7656 1312.00
36.0698 2411.00
36.3741 1457.00
36.6783 1142.00
36.9826 1201.00
37.2869 1163.00
37.5911 1011.00
37.8954 988.00
38.1996 1034.00
38.5039 1158.00
38.8082 1022.00
39.1124 967.00
39.4167 972.00
39.7209 937.00
40.0252 933.00
40.3295 1004.00
40.6337 1072.00
40.938 983.00
41.2422 906.00
41.5465 928.00
41.8508 903.00
42.155 1103.00
42.4593 1633.00
42.7635 1391.00
43.0678 978.00
43.3721 898.00
43.6763 889.00
43.9806 914.00
44.2849 848.00
44.5891 893.00
44.8934 820.00
45.1976 808.00
45.5019 818.00
45.8062 883.00
46.1104 763.00
46.4147 791.00
46.7189 757.00
47.0232 785.00
47.3275 891.00
47.6317 857.00
47.936 919.00
48.2402 928.00
48.5445 826.00
48.8488 900.00
49.153 1574.00
49.4573 3701.00
49.7615 1783.00
50.0658 1067.00
50.3701 868.00
50.6743 833.00
50.9786 927.00
51.2828 865.00
51.5871 775.00
51.8914 859.00
52.1956 959.00
52.4999 988.00
52.8041 886.00
53.1084 832.00
53.4127 862.00
53.7169 923.00
54.0212 984.00
54.3254 1177.00
54.6297 947.00
54.934 871.00
55.2382 865.00
55.5425 1023.00
55.8467 1231.00
56.151 909.00
56.4553 891.00
56.7595 951.00
57.0638 896.00
57.368 847.00
57.6723 803.00
57.9766 836.00
58.2808 836.00
58.5851 743.00
58.8893 792.00
59.1936 843.00
59.4979 835.00
59.8021 888.00
60.1064 891.00
60.4106 914.00
60.7149 886.00
61.0192 1197.00
61.3234 2187.00
61.6277 4801.00
61.932 1943.00
62.2362 1197.00
62.5405 959.00
62.8447 885.00
63.149 887.00
63.4533 856.00
63.7575 810.00
64.0618 886.00
64.366 880.00
64.6703 937.00
64.9745 900.00
65.2788 979.00
65.5831 1065.00
65.8873 1242.00
66.1916 954.00
66.4959 872.00
66.8001 892.00
67.1044 787.00
67.4086 753.00
67.7129 773.00
68.0172 781.00
68.3214 809.00
68.6257 773.00
68.9299 729.00
69.2342 744.00
69.5385 699.00
69.8427 706.00
70.147 738.00
70.4512 661.00
70.7555 674.00
71.0598 660.00
71.364 689.00
71.6683 668.00
71.9725 771.00
72.2768 940.00
72.5811 1240.00
72.8853 753.00
73.1896 667.00
73.4938 677.00
73.7981 654.00
74.1024 661.00
74.4066 621.00
74.7109 607.00
75.0151 619.00
75.3194 645.00
75.6237 684.00
75.9279 686.00
76.2322 724.00
76.5364 722.00
76.8407 708.00
77.145 652.00
77.4492 644.00
77.7535 660.00
78.0577 592.00
78.362 645.00
78.6663 611.00
78.9705 635.00
79.2748 663.00
79.579 576.00
79.8833 616.00
80.1876 635.00
80.4918 624.00
80.7961 628.00
81.1003 598.00
81.4046 638.00
81.7089 635.00
82.0131 760.00
82.3174 939.00
82.6217 1599.00
82.9259 1381.00
83.2302 847.00
83.5344 747.00
83.8387 669.00
84.143 617.00
84.4472 598.00
84.7515 580.00
85.0557 539.00
85.36 603.00
85.6643 619.00
85.9685 605.00
86.2728 594.00
86.577 606.00
86.8813 590.00
87.1856 591.00
87.4898 617.00
87.7941 600.00
88.0983 570.00
88.4026 540.00
88.7069 564.00
89.0111 626.00
89.3154 545.00
89.6196 617.00
89.9239 560.00
90.2282 581.00
90.5324 529.00
90.8367 549.00
91.1409 539.00
91.4452 543.00
91.7495 527.00
92.0537 584.00
92.358 599.00
92.6622 783.00
92.9665 753.00
93.2708 578.00
93.575 588.00
93.8793 572.00
94.1835 531.00
94.4878 513.00
94.7921 513.00
95.0963 567.00
95.4006 544.00
95.7048 557.00
96.0091 611.00
96.3134 599.00
96.6176 586.00
96.9219 564.00
97.2261 577.00
97.5304 512.00
97.8347 628.00
98.1389 516.00
98.4432 535.00
98.7474 563.00
99.0517 557.00
99.356 596.00
99.6602 600.00
99.9645 528.00
100.095 611.00

File: NSC_159.xy
9.903433 2784.00
10.2077 2741.00
10.512 2599.00
10.8162 2600.00
11.1205 2488.00
11.4247 2386.00
11.729 2306.00
12.0333 2372.00
12.3375 2364.00
12.6418 2124.00
12.946 2118.00
13.2503 1957.00
13.5546 1990.00
13.8588 1963.00
14.1631 1972.00
14.4673 1910.00
14.7716 1813.00
15.0759 1830.00
15.3801 1910.00
15.6844 1778.00
15.9886 1771.00
16.2929 1799.00
16.5972 1736.00
16.9014 2064.00
17.2057 2447.00
17.5099 1788.00
17.8142 1684.00
18.1185 1649.00
18.4227 1705.00
18.727 1632.00
19.0312 1629.00
19.3355 1626.00
19.6398 1562.00
19.944 1599.00
20.2483 1502.00
20.5525 1798.00
20.8568 3430.00
21.1611 7470.00
21.4653 2946.00
21.7696 1566.00
22.0738 1513.00
22.3781 1503.00
22.6824 1372.00
22.9866 1481.00
23.2909 1440.00
23.5951 1372.00
23.8994 1407.00
24.2037 1391.00
24.5079 1397.00
24.8122 1532.00
25.1164 1856.00
25.4207 1577.00
25.725 1435.00
26.0292 1312.00
26.3335 1391.00
26.6378 1224.00
26.942 1507.00
27.2463 1379.00
27.5505 1266.00
27.8548 1306.00
28.1591 1268.00
28.4633 1295.00
28.7676 1304.00
29.0718 1371.00
29.3761 2008.00
29.6804 4071.00
29.9846 2591.00
30.2889 1931.00
30.5931 1617.00
30.8974 1550.00
31.2017 1342.00
31.5059 1331.00
31.8102 1586.00
32.1144 1326.00
32.4187 1231.00
32.723 1223.00
33.0272 1331.00
33.3315 1404.00
33.6357 1496.00
33.94 2326.00
34.2443 5340.00
34.5485 8191.00
34.8528 7256.00
35.157 4111.00
35.4613 1791.00
35.7656 1370.00
36.0698 1423.00
36.3741 1332.00
36.6783 1415.00
36.9826 1858.00
37.2869 3179.00
37.5911 1372.00
37.8954 1222.00
38.1996 1234.00
38.5039 1053.00
38.8082 1048.00
39.1124 1029.00
39.4167 1044.00
39.7209 1048.00
40.0252 1173.00
40.3295 1206.00
40.6337 1051.00
40.938 1008.00
41.2422 1035.00
41.5465 1065.00
41.8508 1039.00
42.155 948.00
42.4593 955.00
42.7635 1038.00
43.0678 1016.00
43.3721 1006.00
43.6763 1002.00
43.9806 908.00
44.2849 860.00
44.5891 881.00
44.8934 998.00
45.1976 854.00
45.5019 915.00
45.8062 1007.00
46.1104 1176.00
46.4147 959.00
46.7189 863.00
47.0232 834.00
47.3275 791.00
47.6317 814.00
47.936 1098.00
48.2402 1795.00
48.5445 1036.00
48.8488 1064.00
49.153 1182.00
49.4573 1287.00
49.7615 1383.00
50.0658 1107.00
50.3701 1074.00
50.6743 1084.00
50.9786 1086.00
51.2828 977.00
51.5871 924.00
51.8914 912.00
52.1956 1181.00
52.4999 1549.00
52.8041 1314.00
53.1084 854.00
53.4127 758.00
53.7169 763.00
54.0212 842.00
54.3254 810.00
54.6297 839.00
54.934 722.00
55.2382 663.00
55.5425 763.00
55.8467 776.00
56.151 732.00
56.4553 762.00
56.7595 806.00
57.0638 778.00
57.368 807.00
57.6723 806.00
57.9766 771.00
58.2808 773.00
58.5851 824.00
58.8893 759.00
59.1936 787.00
59.4979 849.00
59.8021 802.00
60.1064 914.00
60.4106 864.00
60.7149 884.00
61.0192 949.00
61.3234 1375.00
61.6277 1617.00
61.932 1630.00
62.2362 1605.00
62.5405 1200.00
62.8447 934.00
63.149 993.00
63.4533 1001.00
63.7575 804.00
64.0618 913.00
64.366 900.00
64.6703 994.00
64.9745 962.00
65.2788 1017.00
65.5831 1295.00
65.8873 1497.00
66.1916 1286.00
66.4959 854.00
66.8001 736.00
67.1044 717.00
67.4086 715.00
67.7129 709.00
68.0172 703.00
68.3214 706.00
68.6257 704.00
68.9299 777.00
69.2342 705.00
69.5385 679.00
69.8427 617.00
70.147 604.00
70.4512 533.00
70.7555 608.00
71.0598 599.00
71.364 611.00
71.6683 603.00
71.9725 660.00
72.2768 602.00
72.5811 683.00
72.8853 725.00
73.1896 767.00
73.4938 745.00
73.7981 748.00
74.1024 714.00
74.4066 627.00
74.7109 632.00
75.0151 568.00
75.3194 558.00
75.6237 612.00
75.9279 528.00
76.2322 557.00
76.5364 563.00
76.8407 553.00
77.145 515.00
77.4492 530.00
77.7535 495.00
78.0577 546.00
78.362 582.00
78.6663 536.00
78.9705 556.00
79.2748 563.00
79.579 522.00
79.8833 491.00
80.1876 519.00
80.4918 485.00
80.7961 493.00
81.1003 536.00
81.4046 575.00
81.7089 562.00
82.0131 597.00
82.3174 565.00
82.6217 600.00
82.9259 548.00
83.2302 595.00
83.5344 549.00
83.8387 539.00
84.143 552.00
84.4472 552.00
84.7515 562.00
85.0557 628.00
85.36 522.00
85.6643 551.00
85.9685 588.00
86.2728 625.00
86.577 487.00
86.8813 597.00
87.1856 587.00
87.4898 659.00
87.7941 638.00
88.0983 605.00
88.4026 562.00
88.7069 595.00
89.0111 541.00
89.3154 496.00
89.6196 440.00
89.9239 481.00
90.2282 470.00
90.5324 458.00
90.8367 459.00
91.1409 476.00
91.4452 500.00
91.7495 471.00
92.0537 467.00
92.358 432.00
92.6622 474.00
92.9665 474.00
93.2708 434.00
93.575 493.00
93.8793 410.00
94.1835 428.00
94.4878 465.00
94.7921 487.00
95.0963 474.00
95.4006 449.00
95.7048 502.00
96.0091 460.00
96.3134 513.00
96.6176 504.00
96.9219 453.00
97.2261 469.00
97.5304 500.00
97.8347 445.00
98.1389 448.00
98.4432 487.00
98.7474 475.00
99.0517 483.00
99.356 500.00
99.6602 490.00
99.9645 502.00
100.095 526.00

File: NSC_160.xy
9.903433 2617.00
10.2077 2532.00
10.512 2370.00
10.8162 2301.00
11.1205 2187.00
11.4247 2171.00
11.729 2014.00
12.0333 2045.00
12.3375 1898.00
12.6418 1917.00
12.946 1827.00
13.2503 1748.00
13.5546 1636.00
13.8588 1637.00
14.1631 1634.00
14.4673 1544.00
14.7716 1544.00
15.0759 1556.00
15.3801 1474.00
15.6844 1440.00
15.9886 1520.00
16.2929 1520.00
16.5972 1435.00
16.9014 1371.00
17.2057 1354.00
17.5099 1434.00
17.8142 1328.00
18.1185 1322.00
18.4227 1278.00
18.727 1317.00
19.0312 1295.00
19.3355 1178.00
19.6398 1195.00
19.944 1219.00
20.2483 1345.00
20.5525 4540.00
20.8568 5170.00
21.1611 9481.00
21.4653 1466.00
21.7696 1248.00
22.0738 1137.00
22.3781 1128.00
22.6824 1123.00
22.9866 1096.00
23.2909 1130.00
23.5951 1925.00
23.8994 1154.00
24.2037 1044.00
24.5079 992.00
24.8122 1011.00
25.1164 1306.00
25.4207 1305.00
25.725 982.00
26.0292 965.00
26.3335 955.00
26.6378 1289.00
26.942 1664.00
27.2463 942.00
27.5505 895.00
27.8548 914.00
28.1591 856.00
28.4633 892.00
28.7676 894.00
29.0718 889.00
29.3761 977.00
29.6804 1069.00
29.9846 1908.00
30.2889 8499.00
30.5931 1587.00
30.8974 981.00
31.2017 1027.00
31.5059 1036.00
31.8102 1945.00
32.1144 936.00
32.4187 978.00
32.723 1380.00
33.0272 6801.00
33.3315 2421.00
33.6357 1529.00
33.94 2261.00
34.2443 12458.00
34.5485 4289.00
34.8528 17090.00
35.157 2314.00
35.4613 1400.00
35.7656 1009.00
36.0698 1248.00
36.3741 2818.00
36.6783 1009.00
36.9826 1018.00
37.2869 2529.00
37.5911 1438.00
37.8954 894.00
38.1996 886.00
38.5039 772.00
38.8082 778.00
39.1124 754.00
39.4167 1143.00
39.7209 1285.00
40.0252 971.00
40.3295 1390.00
40.6337 833.00
40.938 692.00
41.2422 722.00
41.5465 799.00
41.8508 1229.00
42.155 1918.00
42.4593 734.00
42.7635 898.00
43.0678 1325.00
43.3721 745.00
43.6763 623.00
43.9806 625.00
44.2849 628.00
44.5891 590.00
44.8934 610.00
45.1976 709.00
45.5019 1514.00
45.8062 921.00
46.1104 1589.00
46.4147 2293.00
46.7189 756.00
47.0232 620.00
47.3275 680.00
47.6317 1157.00
47.936 766.00
48.2402 2252.00
48.5445 1241.00
48.8488 620.00
49.153 703.00
49.4573 681.00
49.7615 588.00
50.0658 814.00
50.3701 846.00
50.6743 921.00
50.9786 655.00
51.2828 773.00
51.5871 1370.00
51.8914 3018.00
52.1956 1356.00
52.4999 739.00
52.8041 576.00
53.1084 536.00
53.4127 586.00
53.7169 637.00
54.0212 1189.00
54.3254 907.00
54.6297 1032.00
54.934 889.00
55.2382 2258.00
55.5425 1024.00
55.8467 619.00
56.151 643.00
56.4553 784.00
56.7595 1217.00
57.0638 1961.00
57.368 3168.00
57.6723 1356.00
57.9766 730.00
58.2808 606.00
58.5851 552.00
58.8893 579.00
59.1936 613.00
59.4979 708.00
59.8021 675.00
60.1064 1140.00
60.4106 825.00
60.7149 599.00
61.0192 694.00
61.3234 1207.00
61.6277 4181.00
61.932 1693.00
62.2362 853.00
62.5405 1123.00
62.8447 2396.00
63.149 1885.00
63.4533 2243.00
63.7575 1847.00
64.0618 750.00
64.366 596.00
64.6703 713.00
64.9745 847.00
65.2788 829.00
65.5831 1456.00
65.8873 920.00
66.1916 619.00
66.4959 724.00
66.8001 674.00
67.1044 545.00
67.4086 639.00
67.7129 862.00
68.0172 1213.00
68.3214 2164.00
68.6257 1688.00
68.9299 1206.00
69.2342 915.00
69.5385 569.00
69.8427 512.00
70.147 465.00
70.4512 484.00
70.7555 527.00
71.0598 487.00
71.364 547.00
71.6683 770.00
71.9725 1297.00
72.2768 853.00
72.5811 565.00
72.8853 540.00
73.1896 646.00
73.4938 1202.00
73.7981 762.00
74.1024 448.00
74.4066 433.00
74.7109 439.00
75.0151 443.00
75.3194 478.00
75.6237 592.00
75.9279 607.00
76.2322 576.00
76.5364 562.00
76.8407 577.00
77.145 530.00
77.4492 511.00
77.7535 544.00
78.0577 479.00
78.362 492.00
78.6663 499.00
78.9705 528.00
79.2748 480.00
79.579 396.00
79.8833 469.00
80.1876 477.00
80.4918 405.00
80.7961 525.00
81.1003 624.00
81.4046 763.00
81.7089 681.00
82.0131 498.00
82.3174 486.00
82.6217 460.00
82.9259 522.00
83.2302 446.00
83.5344 386.00
83.8387 394.00
84.143 444.00
84.4472 404.00
84.7515 511.00
85.0557 449.00
85.36 419.00
85.6643 474.00
85.9685 742.00
86.2728 874.00
86.577 994.00
86.8813 1122.00
87.1856 762.00
87.4898 441.00
87.7941 458.00
88.0983 453.00
88.4026 435.00
88.7069 412.00
89.0111 431.00
89.3154 437.00
89.6196 546.00
89.9239 457.00
90.2282 467.00
90.5324 433.00
90.8367 407.00
91.1409 391.00
91.4452 440.00
91.7495 628.00
92.0537 624.00
92.358 545.00
92.6622 477.00
92.9665 429.00
93.2708 485.00
93.575 565.00
93.8793 915.00
94.1835 1141.00
94.4878 850.00
94.7921 564.00
95.0963 465.00
95.4006 582.00
95.7048 584.00
96.0091 585.00
96.3134 585.00
96.6176 458.00
96.9219 462.00
97.2261 427.00
97.5304 418.00
97.8347 446.00
98.1389 527.00
98.4432 704.00
98.7474 712.00
99.0517 552.00
99.356 467.00
99.6602 389.00
99.9645 451.00
100.095 403.00