Folder: alab-pipeline/data/xrd_creation/results (part 84)

File: PG_1622-1.xy
10.0094 2751.00
10.3137 2636.00
10.618 2545.00
10.9222 2489.00
11.2265 2646.00
11.5307 4860.00
11.835 5051.00
12.1393 2257.00
12.4435 1999.00
12.7478 1984.00
13.052 1913.00
13.3563 1885.00
13.6606 1870.00
13.9648 1762.00
14.2691 1706.00
14.5733 1773.00
14.8776 1723.00
15.1819 1710.00
15.4861 1641.00
15.7904 1653.00
16.0946 1623.00
16.3989 1902.00
16.7032 1574.00
17.0074 1514.00
17.3117 1582.00
17.6159 1562.00
17.9202 1532.00
18.2245 1484.00
18.5287 1487.00
18.833 1579.00
19.1372 1483.00
19.4415 1587.00
19.7458 1547.00
20.05 2621.00
20.3543 1977.00
20.6585 5176.00
20.9628 4809.00
21.2671 1761.00
21.5713 3737.00
21.8756 1471.00
22.1798 1513.00
22.4841 1488.00
22.7884 1474.00
23.0926 1587.00
23.3969 1888.00
23.7011 2004.00
24.0054 1308.00
24.3097 1384.00
24.6139 1425.00
24.9182 1365.00
25.2224 1601.00
25.5267 2311.00
25.831 4179.00
26.1352 40097.00
26.4395 8357.00
26.7438 2421.00
27.048 1743.00
27.3523 1624.00
27.6565 1524.00
27.9608 1416.00
28.2651 1587.00
28.5693 5928.00
28.8736 1387.00
29.1778 1289.00
29.4821 1329.00
29.7864 1871.00
30.0906 1289.00
30.3949 1227.00
30.6991 1718.00
31.0034 2327.00
31.3077 1257.00
31.6119 1274.00
31.9162 2430.00
32.2204 2119.00
32.5247 1174.00
32.829 1396.00
33.1332 2499.00
33.4375 1104.00
33.7417 1046.00
34.046 1095.00
34.3503 2012.00
34.6545 1161.00
34.9588 1421.00
35.263 1378.00
35.5673 1139.00
35.8716 1439.00
36.1758 4768.00
36.4801 2268.00
36.7843 1396.00
37.0886 3956.00
37.3929 1592.00
37.6971 1261.00
38.0014 1883.00
38.3056 14909.00
38.6099 2042.00
38.9142 3933.00
39.2184 1360.00
39.5227 2037.00
39.8269 7544.00
40.1312 1531.00
40.4355 1172.00
40.7397 1530.00
41.044 992.00
41.3482 1111.00
41.6525 1277.00
41.9568 5438.00
42.261 3880.00
42.5653 1274.00
42.8695 1028.00
43.1738 933.00
43.4781 989.00
43.7823 1037.00
44.0866 1651.00
44.3909 874.00
44.6951 923.00
44.9994 1108.00
45.3036 1543.00
45.6079 897.00
45.9122 844.00
46.2164 833.00
46.5207 792.00
46.8249 821.00
47.1292 927.00
47.4335 1090.00
47.7377 922.00
48.042 909.00
48.3462 1344.00
48.6505 3409.00
48.9548 8778.00
49.259 1555.00
49.5633 945.00
49.8675 836.00
50.1718 1009.00
50.4761 1401.00
50.7803 902.00
51.0846 785.00
51.3888 794.00
51.6931 957.00
51.9974 931.00
52.3016 857.00
52.6059 875.00
52.9101 980.00
53.2144 2814.00
53.5187 2632.00
53.8229 2190.00
54.1272 860.00
54.4314 885.00
54.7357 1022.00
55.04 830.00
55.3442 793.00
55.6485 870.00
55.9527 879.00
56.257 927.00
56.5613 1722.00
56.8655 1021.00
57.1698 896.00
57.474 792.00
57.7783 918.00
58.0826 1002.00
58.3868 1052.00
58.6911 1705.00
58.9953 4896.00
59.2996 4672.00
59.6039 1196.00
59.9081 1341.00
60.2124 1568.00
60.5166 911.00
60.8209 805.00
61.1252 907.00
61.4294 1208.00
61.7337 1371.00
62.0379 2198.00
62.3422 981.00
62.6465 1509.00
62.9507 1015.00
63.255 856.00
63.5592 904.00
63.8635 943.00
64.1678 871.00
64.472 825.00
64.7763 863.00
65.0806 984.00
65.3848 1073.00
65.6891 1543.00
65.9933 6150.00
66.2976 7072.00
66.6019 2430.00
66.9061 1312.00
67.2104 3437.00
67.5146 2755.00
67.8189 1033.00
68.1232 916.00
68.4274 904.00
68.7317 984.00
69.0359 1521.00
69.3402 875.00
69.6445 942.00
69.9487 1137.00
70.253 4006.00
70.5572 1693.00
70.8615 881.00
71.1658 827.00
71.47 925.00
71.7743 840.00
72.0785 844.00
72.3828 819.00
72.6871 1018.00
72.9913 797.00
73.2956 820.00
73.5998 935.00
73.9041 1636.00
74.2084 2015.00
74.5126 923.00
74.8169 859.00
75.1211 854.00
75.4254 833.00
75.7297 768.00
76.0339 926.00
76.3382 999.00
76.6424 1101.00
76.9467 855.00
77.251 934.00
77.5552 2133.00
77.8595 2293.00
78.1637 1258.00
78.468 1023.00
78.7723 1565.00
79.0765 976.00
79.3808 805.00
79.685 987.00
79.9893 1007.00
80.2936 2433.00
80.5978 1450.00
80.9021 829.00
81.2063 759.00
81.5106 825.00
81.8149 895.00
82.1191 841.00
82.4234 1045.00
82.7277 908.00
83.0319 839.00
83.3362 734.00
83.6404 708.00
83.9447 640.00
84.249 647.00
84.5532 650.00
84.8575 752.00
85.1617 974.00
85.466 964.00
85.7703 721.00
86.0745 648.00
86.3788 698.00
86.683 675.00
86.9873 676.00
87.2916 701.00
87.5958 688.00
87.9001 686.00
88.2043 734.00
88.5086 750.00
88.8129 1573.00
89.1171 1218.00
89.4214 768.00
89.7256 1086.00
90.0299 1127.00
90.3342 752.00
90.6384 697.00
90.9427 796.00
91.2469 890.00
91.5512 750.00
91.8555 706.00
92.1597 767.00
92.464 1581.00
92.7682 1269.00
93.0725 850.00
93.3768 1221.00
93.681 995.00
93.9853 689.00
94.2895 718.00
94.5938 729.00
94.8981 708.00
95.2023 680.00
95.5066 749.00
95.8108 1179.00
96.1151 962.00
96.4194 748.00
96.7236 825.00
97.0279 1121.00
97.3321 1061.00
97.6364 774.00
97.9407 745.00
98.2449 721.00
98.5492 720.00
98.8534 782.00
99.1577 939.00
99.462 2067.00
99.7662 2046.00
99.9944 1655.00

File: PG_1734-1.xy
9.903433 2446.00
10.2077 2442.00
10.512 2371.00
10.8162 2247.00
11.1205 2152.00
11.4247 1968.00
11.729 1961.00
12.0333 1888.00
12.3375 1793.00
12.6418 1676.00
12.946 1670.00
13.2503 1561.00
13.5546 1517.00
13.8588 1491.00
14.1631 1432.00
14.4673 1445.00
14.7716 1363.00
15.0759 1331.00
15.3801 1379.00
15.6844 1339.00
15.9886 1247.00
16.2929 1197.00
16.5972 1331.00
16.9014 1181.00
17.2057 1236.00
17.5099 1162.00
17.8142 1110.00
18.1185 1025.00
18.4227 1010.00
18.727 943.00
19.0312 990.00
19.3355 920.00
19.6398 1008.00
19.944 974.00
20.2483 927.00
20.5525 903.00
20.8568 907.00
21.1611 882.00
21.4653 860.00
21.7696 788.00
22.0738 809.00
22.3781 774.00
22.6824 792.00
22.9866 738.00
23.2909 797.00
23.5951 928.00
23.8994 750.00
24.2037 830.00
24.5079 798.00
24.8122 700.00
25.1164 713.00
25.4207 696.00
25.725 639.00
26.0292 652.00
26.3335 717.00
26.6378 647.00
26.942 647.00
27.2463 653.00
27.5505 620.00
27.8548 710.00
28.1591 973.00
28.4633 794.00
28.7676 676.00
29.0718 632.00
29.3761 570.00
29.6804 560.00
29.9846 577.00
30.2889 513.00
30.5931 546.00
30.8974 546.00
31.2017 600.00
31.5059 881.00
31.8102 619.00
32.1144 562.00
32.4187 497.00
32.723 490.00
33.0272 516.00
33.3315 505.00
33.6357 494.00
33.94 481.00
34.2443 650.00
34.5485 599.00
34.8528 465.00
35.157 440.00
35.4613 601.00
35.7656 473.00
36.0698 452.00
36.3741 438.00
36.6783 401.00
36.9826 390.00
37.2869 401.00
37.5911 417.00
37.8954 429.00
38.1996 388.00
38.5039 389.00
38.8082 446.00
39.1124 419.00
39.4167 379.00
39.7209 348.00
40.0252 341.00
40.3295 314.00
40.6337 365.00
40.938 418.00
41.2422 354.00
41.5465 378.00
41.8508 335.00
42.155 359.00
42.4593 333.00
42.7635 353.00
43.0678 340.00
43.3721 346.00
43.6763 342.00
43.9806 315.00
44.2849 294.00
44.5891 294.00
44.8934 312.00
45.1976 351.00
45.5019 329.00
45.8062 311.00
46.1104 335.00
46.4147 319.00
46.7189 306.00
47.0232 269.00
47.3275 306.00
47.6317 279.00
47.936 288.00
48.2402 311.00
48.5445 302.00
48.8488 279.00
49.153 325.00
49.4573 363.00
49.7615 295.00
50.0658 305.00
50.3701 464.00
50.6743 298.00
50.9786 302.00
51.2828 261.00
51.5871 292.00
51.8914 257.00
52.1956 288.00
52.4999 277.00
52.8041 230.00
53.1084 274.00
53.4127 242.00
53.7169 235.00
54.0212 247.00
54.3254 361.00
54.6297 275.00
54.934 230.00
55.2382 278.00
55.5425 303.00
55.8467 342.00
56.151 289.00
56.4553 267.00
56.7595 298.00
57.0638 244.00
57.368 286.00
57.6723 285.00
57.9766 258.00
58.2808 281.00
58.5851 239.00
58.8893 223.00
59.1936 235.00
59.4979 203.00
59.8021 235.00
60.1064 300.00
60.4106 295.00
60.7149 220.00
61.0192 223.00
61.3234 246.00
61.6277 291.00
61.932 216.00
62.2362 273.00
62.5405 218.00
62.8447 237.00
63.149 263.00
63.4533 229.00
63.7575 195.00
64.0618 231.00
64.366 194.00
64.6703 221.00
64.9745 186.00
65.2788 214.00
65.5831 194.00
65.8873 222.00
66.1916 267.00
66.4959 227.00
66.8001 210.00
67.1044 229.00
67.4086 187.00
67.7129 189.00
68.0172 209.00
68.3214 177.00
68.6257 174.00
68.9299 196.00
69.2342 229.00
69.5385 222.00
69.8427 170.00
70.147 209.00
70.4512 214.00
70.7555 199.00
71.0598 204.00
71.364 215.00
71.6683 249.00
71.9725 239.00
72.2768 188.00
72.5811 183.00
72.8853 189.00
73.1896 247.00
73.4938 183.00
73.7981 220.00
74.1024 214.00
74.4066 207.00
74.7109 201.00
75.0151 229.00
75.3194 246.00
75.6237 220.00
75.9279 233.00
76.2322 214.00
76.5364 216.00
76.8407 230.00
77.145 229.00
77.4492 257.00
77.7535 227.00
78.0577 233.00
78.362 215.00
78.6663 241.00
78.9705 196.00
79.2748 230.00
79.579 250.00
79.8833 237.00
80.1876 215.00
80.4918 214.00
80.7961 234.00
81.1003 207.00
81.4046 234.00
81.7089 230.00
82.0131 222.00
82.3174 242.00
82.6217 238.00
82.9259 220.00
83.2302 224.00
83.5344 237.00
83.8387 268.00
84.143 229.00
84.4472 223.00
84.7515 270.00
85.0557 227.00
85.36 221.00
85.6643 239.00
85.9685 242.00
86.2728 208.00
86.577 204.00
86.8813 228.00
87.1856 220.00
87.4898 218.00
87.7941 183.00
88.0983 212.00
88.4026 221.00
88.7069 225.00
89.0111 204.00
89.3154 222.00
89.6196 188.00
89.9239 218.00
90.2282 210.00
90.5324 202.00
90.8367 211.00
91.1409 203.00
91.4452 193.00
91.7495 201.00
92.0537 183.00
92.358 193.00
92.6622 231.00
92.9665 244.00
93.2708 204.00
93.575 191.00
93.8793 183.00
94.1835 205.00
94.4878 228.00
94.7921 198.00
95.0963 201.00
95.4006 169.00
95.7048 214.00
96.0091 186.00
96.3134 210.00
96.6176 191.00
96.9219 206.00
97.2261 236.00
97.5304 228.00
97.8347 212.00
98.1389 193.00
98.4432 197.00
98.7474 177.00
99.0517 224.00
99.356 214.00
99.6602 196.00
99.9645 241.00
100.095 194.00

File: PG_1735-1.xy
9.903433 2773.00
10.2077 2600.00
10.512 2556.00
10.8162 2503.00
11.1205 2404.00
11.4247 2348.00
11.729 2299.00
12.0333 2172.00
12.3375 2227.00
12.6418 2171.00
12.946 2201.00
13.2503 2025.00
13.5546 1908.00
13.8588 2047.00
14.1631 1870.00
14.4673 1918.00
14.7716 1879.00
15.0759 1842.00
15.3801 1871.00
15.6844 1704.00
15.9886 1757.00
16.2929 1803.00
16.5972 1779.00
16.9014 1686.00
17.2057 1790.00
17.5099 1899.00
17.8142 3068.00
18.1185 1672.00
18.4227 1620.00
18.727 1573.00
19.0312 1556.00
19.3355 1512.00
19.6398 1512.00
19.944 1531.00
20.2483 1448.00
20.5525 1498.00
20.8568 1489.00
21.1611 1538.00
21.4653 1442.00
21.7696 1407.00
22.0738 1430.00
22.3781 1363.00
22.6824 1492.00
22.9866 1470.00
23.2909 1410.00
23.5951 1477.00
23.8994 1530.00
24.2037 1807.00
24.5079 6439.00
24.8122 3662.00
25.1164 1849.00
25.4207 1401.00
25.725 1357.00
26.0292 1283.00
26.3335 1407.00
26.6378 1304.00
26.942 1365.00
27.2463 1378.00
27.5505 1394.00
27.8548 1759.00
28.1591 2456.00
28.4633 8758.00
28.7676 17366.00
29.0718 2810.00
29.3761 1873.00
29.6804 1579.00
29.9846 1493.00
30.2889 1629.00
30.5931 1602.00
30.8974 1677.00
31.2017 1858.00
31.5059 2577.00
31.8102 9071.00
32.1144 10706.00
32.4187 2218.00
32.723 1585.00
33.0272 1369.00
33.3315 1480.00
33.6357 1435.00
33.94 1444.00
34.2443 1763.00
34.5485 6097.00
34.8528 7447.00
35.157 2335.00
35.4613 1952.00
35.7656 6978.00
36.0698 2219.00
36.3741 3377.00
36.6783 1456.00
36.9826 1142.00
37.2869 1148.00
37.5911 1081.00
37.8954 1139.00
38.1996 1230.00
38.5039 1228.00
38.8082 1367.00
39.1124 3797.00
39.4167 1377.00
39.7209 1285.00
40.0252 1208.00
40.3295 1290.00
40.6337 1281.00
40.938 1558.00
41.2422 4619.00
41.5465 2292.00
41.8508 2530.00
42.155 1416.00
42.4593 1097.00
42.7635 1001.00
43.0678 1019.00
43.3721 1000.00
43.6763 955.00
43.9806 930.00
44.2849 989.00
44.5891 987.00
44.8934 1082.00
45.1976 1312.00
45.5019 2036.00
45.8062 1379.00
46.1104 2840.00
46.4147 1217.00
46.7189 1029.00
47.0232 965.00
47.3275 948.00
47.6317 1029.00
47.936 923.00
48.2402 961.00
48.5445 1124.00
48.8488 1022.00
49.153 1107.00
49.4573 1651.00
49.7615 4395.00
50.0658 2806.00
50.3701 1599.00
50.6743 6691.00
50.9786 3179.00
51.2828 3518.00
51.5871 1499.00
51.8914 2194.00
52.1956 1165.00
52.4999 1042.00
52.8041 943.00
53.1084 957.00
53.4127 968.00
53.7169 1081.00
54.0212 1081.00
54.3254 1265.00
54.6297 3028.00
54.934 2544.00
55.2382 1489.00
55.5425 1415.00
55.8467 3048.00
56.151 4971.00
56.4553 3026.00
56.7595 2260.00
57.0638 1165.00
57.368 1201.00
57.6723 2013.00
57.9766 2573.00
58.2808 1455.00
58.5851 2783.00
58.8893 2470.00
59.1936 1343.00
59.4979 1151.00
59.8021 1067.00
60.1064 1200.00
60.4106 3465.00
60.7149 3334.00
61.0192 1477.00
61.3234 1131.00
61.6277 1176.00
61.932 2360.00
62.2362 2256.00
62.5405 2812.00
62.8447 1954.00
63.149 1405.00
63.4533 2889.00
63.7575 2261.00
64.0618 1128.00
64.366 1040.00
64.6703 1296.00
64.9745 2070.00
65.2788 1160.00
65.5831 1082.00
65.8873 1348.00
66.1916 1992.00
66.4959 2891.00
66.8001 1491.00
67.1044 949.00
67.4086 947.00
67.7129 908.00
68.0172 886.00
68.3214 910.00
68.6257 856.00
68.9299 889.00
69.2342 922.00
69.5385 1324.00
69.8427 1378.00
70.147 1044.00
70.4512 1055.00
70.7555 960.00
71.0598 979.00
71.364 948.00
71.6683 1445.00
71.9725 2441.00
72.2768 1280.00
72.5811 1235.00
72.8853 1474.00
73.1896 1303.00
73.4938 1261.00
73.7981 916.00
74.1024 937.00
74.4066 963.00
74.7109 933.00
75.0151 961.00
75.3194 1161.00
75.6237 1386.00
75.9279 1936.00
76.2322 1204.00
76.5364 1006.00
76.8407 923.00
77.145 1461.00
77.4492 1396.00
77.7535 1046.00
78.0577 1286.00
78.362 1321.00
78.6663 1133.00
78.9705 1177.00
79.2748 1072.00
79.579 1318.00
79.8833 1358.00
80.1876 936.00
80.4918 850.00
80.7961 856.00
81.1003 1006.00
81.4046 1073.00
81.7089 960.00
82.0131 1142.00
82.3174 1660.00
82.6217 1344.00
82.9259 1083.00
83.2302 1254.00
83.5344 1406.00
83.8387 1558.00
84.143 1658.00
84.4472 1333.00
84.7515 1699.00
85.0557 1551.00
85.36 1097.00
85.6643 1352.00
85.9685 1243.00
86.2728 934.00
86.577 916.00
86.8813 1329.00
87.1856 1114.00
87.4898 1001.00
87.7941 978.00
88.0983 1104.00
88.4026 1372.00
88.7069 1218.00
89.0111 1629.00
89.3154 1775.00
89.6196 1416.00
89.9239 1127.00
90.2282 1335.00
90.5324 1559.00
90.8367 1503.00
91.1409 1127.00
91.4452 1040.00
91.7495 1066.00
92.0537 1015.00
92.358 1072.00
92.6622 965.00
92.9665 913.00
93.2708 848.00
93.575 859.00
93.8793 994.00
94.1835 950.00
94.4878 1087.00
94.7921 1194.00
95.0963 1133.00
95.4006 1006.00
95.7048 1227.00
96.0091 1493.00
96.3134 1361.00
96.6176 1045.00
96.9219 1248.00
97.2261 1452.00
97.5304 1886.00
97.8347 1916.00
98.1389 1346.00
98.4432 1186.00
98.7474 1101.00
99.0517 1335.00
99.356 1352.00
99.6602 1523.00
99.9645 1484.00
100.095 1459.00

File: PG_1738-1.xy
9.903433 2523.00
10.2077 2423.00
10.512 2302.00
10.8162 2220.00
11.1205 2161.00
11.4247 2071.00
11.729 1952.00
12.0333 1933.00
12.3375 1892.00
12.6418 1809.00
12.946 1824.00
13.2503 1763.00
13.5546 1690.00
13.8588 1615.00
14.1631 1581.00
14.4673 1500.00
14.7716 1530.00
15.0759 1454.00
15.3801 1472.00
15.6844 1472.00
15.9886 1436.00
16.2929 1444.00
16.5972 1434.00
16.9014 1412.00
17.2057 1449.00
17.5099 1453.00
17.8142 1547.00
18.1185 1393.00
18.4227 1316.00
18.727 1310.00
19.0312 1268.00
19.3355 1254.00
19.6398 1156.00
19.944 1207.00
20.2483 1217.00
20.5525 1106.00
20.8568 1099.00
21.1611 1166.00
21.4653 1128.00
21.7696 1129.00
22.0738 1212.00
22.3781 1275.00
22.6824 2378.00
22.9866 1440.00
23.2909 1109.00
23.5951 1105.00
23.8994 1101.00
24.2037 1362.00
24.5079 1857.00
24.8122 1834.00
25.1164 1134.00
25.4207 987.00
25.725 1071.00
26.0292 1021.00
26.3335 950.00
26.6378 932.00
26.942 940.00
27.2463 979.00
27.5505 1037.00
27.8548 1146.00
28.1591 1663.00
28.4633 7234.00
28.7676 3437.00
29.0718 2164.00
29.3761 1194.00
29.6804 963.00
29.9846 983.00
30.2889 916.00
30.5931 915.00
30.8974 896.00
31.2017 993.00
31.5059 1411.00
31.8102 5149.00
32.1144 2070.00
32.4187 1014.00
32.723 940.00
33.0272 944.00
33.3315 837.00
33.6357 811.00
33.94 911.00
34.2443 1063.00
34.5485 2901.00
34.8528 2626.00
35.157 1033.00
35.4613 1100.00
35.7656 2760.00
36.0698 1075.00
36.3741 1251.00
36.6783 1848.00
36.9826 1076.00
37.2869 1146.00
37.5911 792.00
37.8954 729.00
38.1996 712.00
38.5039 736.00
38.8082 881.00
39.1124 1345.00
39.4167 788.00
39.7209 697.00
40.0252 789.00
40.3295 773.00
40.6337 775.00
40.938 926.00
41.2422 1851.00
41.5465 1169.00
41.8508 1123.00
42.155 747.00
42.4593 693.00
42.7635 795.00
43.0678 720.00
43.3721 687.00
43.6763 681.00
43.9806 668.00
44.2849 703.00
44.5891 795.00
44.8934 751.00
45.1976 1181.00
45.5019 928.00
45.8062 925.00
46.1104 1430.00
46.4147 1291.00
46.7189 700.00
47.0232 659.00
47.3275 672.00
47.6317 710.00
47.936 679.00
48.2402 719.00
48.5445 752.00
48.8488 728.00
49.153 809.00
49.4573 1124.00
49.7615 2595.00
50.0658 1471.00
50.3701 1021.00
50.6743 3193.00
50.9786 2137.00
51.2828 1503.00
51.5871 1021.00
51.8914 1076.00
52.1956 724.00
52.4999 716.00
52.8041 750.00
53.1084 731.00
53.4127 720.00
53.7169 719.00
54.0212 766.00
54.3254 906.00
54.6297 1822.00
54.934 1149.00
55.2382 1535.00
55.5425 1504.00
55.8467 2312.00
56.151 1744.00
56.4553 1992.00
56.7595 1127.00
57.0638 807.00
57.368 835.00
57.6723 1396.00
57.9766 1104.00
58.2808 982.00
58.5851 1403.00
58.8893 1406.00
59.1936 877.00
59.4979 778.00
59.8021 815.00
60.1064 971.00
60.4106 1759.00
60.7149 1341.00
61.0192 859.00
61.3234 782.00
61.6277 850.00
61.932 1359.00
62.2362 1057.00
62.5405 1585.00
62.8447 887.00
63.149 963.00
63.4533 1810.00
63.7575 1293.00
64.0618 868.00
64.366 804.00
64.6703 979.00
64.9745 1041.00
65.2788 821.00
65.5831 865.00
65.8873 991.00
66.1916 1377.00
66.4959 1391.00
66.8001 859.00
67.1044 807.00
67.4086 755.00
67.7129 690.00
68.0172 717.00
68.3214 708.00
68.6257 710.00
68.9299 670.00
69.2342 724.00
69.5385 1004.00
69.8427 834.00
70.147 818.00
70.4512 1026.00
70.7555 840.00
71.0598 897.00
71.364 962.00
71.6683 1134.00
71.9725 1228.00
72.2768 846.00
72.5811 871.00
72.8853 921.00
73.1896 943.00
73.4938 818.00
73.7981 744.00
74.1024 714.00
74.4066 757.00
74.7109 727.00
75.0151 748.00
75.3194 953.00
75.6237 1009.00
75.9279 1076.00
76.2322 773.00
76.5364 698.00
76.8407 764.00
77.145 976.00
77.4492 876.00
77.7535 993.00
78.0577 1013.00
78.362 930.00
78.6663 949.00
78.9705 941.00
79.2748 905.00
79.579 1078.00
79.8833 945.00
80.1876 831.00
80.4918 800.00
80.7961 730.00
81.1003 772.00
81.4046 871.00
81.7089 844.00
82.0131 880.00
82.3174 1117.00
82.6217 905.00
82.9259 879.00
83.2302 971.00
83.5344 937.00
83.8387 1103.00
84.143 1012.00
84.4472 910.00
84.7515 1240.00
85.0557 1046.00
85.36 778.00
85.6643 1024.00
85.9685 889.00
86.2728 845.00
86.577 777.00
86.8813 902.00
87.1856 816.00
87.4898 783.00
87.7941 819.00
88.0983 888.00
88.4026 972.00
88.7069 939.00
89.0111 1107.00
89.3154 1124.00
89.6196 1015.00
89.9239 902.00
90.2282 952.00
90.5324 1145.00
90.8367 1052.00
91.1409 886.00
91.4452 799.00
91.7495 817.00
92.0537 816.00
92.358 882.00
92.6622 808.00
92.9665 773.00
93.2708 791.00
93.575 815.00
93.8793 865.00
94.1835 816.00
94.4878 930.00
94.7921 948.00
95.0963 876.00
95.4006 883.00
95.7048 996.00
96.0091 1089.00
96.3134 971.00
96.6176 894.00
96.9219 1056.00
97.2261 1117.00
97.5304 1293.00
97.8347 1235.00
98.1389 1060.00
98.4432 945.00
98.7474 993.00
99.0517 1076.00
99.356 1034.00
99.6602 1144.00
99.9645 1143.00
100.095 1181.00

File: PG_1739-1.xy
9.903433 2488.00
10.2077 2469.00
10.512 2229.00
10.8162 2152.00
11.1205 2079.00
11.4247 1926.00
11.729 1944.00
12.0333 1814.00
12.3375 1896.00
12.6418 1843.00
12.946 1767.00
13.2503 1699.00
13.5546 1596.00
13.8588 1631.00
14.1631 1546.00
14.4673 1589.00
14.7716 1539.00
15.0759 1441.00
15.3801 1473.00
15.6844 1433.00
15.9886 1447.00
16.2929 1418.00
16.5972 1363.00
16.9014 1393.00
17.2057 1361.00
17.5099 1448.00
17.8142 1476.00
18.1185 1320.00
18.4227 1245.00
18.727 1257.00
19.0312 1208.00
19.3355 1199.00
19.6398 1219.00
19.944 1165.00
20.2483 1244.00
20.5525 1286.00
20.8568 1164.00
21.1611 1194.00
21.4653 1121.00
21.7696 1111.00
22.0738 1133.00
22.3781 1122.00
22.6824 1094.00
22.9866 1098.00
23.2909 1141.00
23.5951 1118.00
23.8994 1153.00
24.2037 1740.00
24.5079 1720.00
24.8122 1795.00
25.1164 1077.00
25.4207 1080.00
25.725 1075.00
26.0292 976.00
26.3335 986.00
26.6378 1066.00
26.942 980.00
27.2463 965.00
27.5505 1105.00
27.8548 1202.00
28.1591 1903.00
28.4633 8204.00
28.7676 2015.00
29.0718 1189.00
29.3761 1007.00
29.6804 968.00
29.9846 959.00
30.2889 937.00
30.5931 932.00
30.8974 975.00
31.2017 1147.00
31.5059 2079.00
31.8102 7110.00
32.1144 1565.00
32.4187 1058.00
32.723 892.00
33.0272 957.00
33.3315 974.00
33.6357 958.00
33.94 1024.00
34.2443 1631.00
34.5485 3113.00
34.8528 2538.00
35.157 1058.00
35.4613 1672.00
35.7656 2356.00
36.0698 1341.00
36.3741 1215.00
36.6783 874.00
36.9826 926.00
37.2869 1827.00
37.5911 1188.00
37.8954 892.00
38.1996 861.00
38.5039 878.00
38.8082 1362.00
39.1124 1293.00
39.4167 895.00
39.7209 895.00
40.0252 864.00
40.3295 945.00
40.6337 946.00
40.938 1512.00
41.2422 1811.00
41.5465 1369.00
41.8508 1208.00
42.155 905.00
42.4593 803.00
42.7635 856.00
43.0678 956.00
43.3721 3236.00
43.6763 1176.00
43.9806 853.00
44.2849 854.00
44.5891 893.00
44.8934 901.00
45.1976 1268.00
45.5019 1008.00
45.8062 1485.00
46.1104 1143.00
46.4147 850.00
46.7189 902.00
47.0232 802.00
47.3275 849.00
47.6317 851.00
47.936 834.00
48.2402 868.00
48.5445 855.00
48.8488 914.00
49.153 1010.00
49.4573 1469.00
49.7615 2726.00
50.0658 1122.00
50.3701 1604.00
50.6743 3071.00
50.9786 2298.00
51.2828 1202.00
51.5871 1329.00
51.8914 1053.00
52.1956 893.00
52.4999 902.00
52.8041 940.00
53.1084 851.00
53.4127 944.00
53.7169 896.00
54.0212 964.00
54.3254 1384.00
54.6297 2053.00
54.934 1070.00
55.2382 1114.00
55.5425 1355.00
55.8467 2940.00
56.151 1796.00
56.4553 1979.00
56.7595 1073.00
57.0638 976.00
57.368 1180.00
57.6723 1969.00
57.9766 1230.00
58.2808 1478.00
58.5851 1672.00
58.8893 1408.00
59.1936 1011.00
59.4979 991.00
59.8021 1022.00
60.1064 1393.00
60.4106 2343.00
60.7149 1518.00
61.0192 1090.00
61.3234 1044.00
61.6277 1350.00
61.932 1729.00
62.2362 1562.00
62.5405 1892.00
62.8447 1824.00
63.149 2325.00
63.4533 2147.00
63.7575 1162.00
64.0618 1102.00
64.366 1115.00
64.6703 1399.00
64.9745 1261.00
65.2788 1038.00
65.5831 1123.00
65.8873 1422.00
66.1916 2121.00
66.4959 1639.00
66.8001 1078.00
67.1044 966.00
67.4086 983.00
67.7129 979.00
68.0172 1000.00
68.3214 955.00
68.6257 949.00
68.9299 1006.00
69.2342 1012.00
69.5385 1390.00
69.8427 1112.00
70.147 1109.00
70.4512 1030.00
70.7555 1037.00
71.0598 1082.00
71.364 1111.00
71.6683 1687.00
71.9725 1427.00
72.2768 1100.00
72.5811 1306.00
72.8853 1268.00
73.1896 1351.00
73.4938 1166.00
73.7981 1030.00
74.1024 1119.00
74.4066 1067.00
74.7109 1008.00
75.0151 1198.00
75.3194 1541.00
75.6237 1958.00
75.9279 1578.00
76.2322 1135.00
76.5364 1122.00
76.8407 1200.00
77.145 1360.00
77.4492 1191.00
77.7535 1138.00
78.0577 1371.00
78.362 1324.00
78.6663 1229.00
78.9705 1223.00
79.2748 1336.00
79.579 1893.00
79.8833 1345.00
80.1876 1114.00
80.4918 1118.00
80.7961 1145.00
81.1003 1162.00
81.4046 1141.00
81.7089 1160.00
82.0131 1378.00
82.3174 1423.00
82.6217 1197.00
82.9259 1219.00
83.2302 1474.00
83.5344 1458.00
83.8387 1613.00
84.143 1445.00
84.4472 1455.00
84.7515 1690.00
85.0557 1434.00
85.36 1283.00
85.6643 1385.00
85.9685 1278.00
86.2728 1106.00
86.577 1248.00
86.8813 1358.00
87.1856 1134.00
87.4898 1173.00
87.7941 1239.00
88.0983 1463.00
88.4026 1431.00
88.7069 1449.00
89.0111 1576.00
89.3154 1641.00
89.6196 1367.00
89.9239 1313.00
90.2282 1423.00
90.5324 1567.00
90.8367 1487.00
91.1409 1260.00
91.4452 1303.00
91.7495 1275.00
92.0537 1312.00
92.358 1267.00
92.6622 1187.00
92.9665 1210.00
93.2708 1193.00
93.575 1186.00
93.8793 1270.00
94.1835 1200.00
94.4878 1549.00
94.7921 1455.00
95.0963 1474.00
95.4006 1518.00
95.7048 1548.00
96.0091 1599.00
96.3134 1412.00
96.6176 1398.00
96.9219 1601.00
97.2261 1795.00
97.5304 1837.00
97.8347 1743.00
98.1389 1510.00
98.4432 1337.00
98.7474 1426.00
99.0517 1459.00
99.356 1543.00
99.6602 1583.00
99.9645 1691.00
100.095 1740.00