Folder: alab-pipeline/data/xrd_creation/results (part 97)

File: PG_2140-1.xy
9.903433 2473.00
10.2077 2421.00
10.512 2264.00
10.8162 2172.00
11.1205 2184.00
11.4247 2062.00
11.729 2016.00
12.0333 1970.00
12.3375 1892.00
12.6418 1776.00
12.946 1754.00
13.2503 1700.00
13.5546 1670.00
13.8588 1521.00
14.1631 1568.00
14.4673 1520.00
14.7716 1624.00
15.0759 1570.00
15.3801 2380.00
15.6844 2223.00
15.9886 5760.00
16.2929 1771.00
16.5972 1492.00
16.9014 1428.00
17.2057 1345.00
17.5099 1403.00
17.8142 1519.00
18.1185 1400.00
18.4227 1257.00
18.727 1273.00
19.0312 1231.00
19.3355 1203.00
19.6398 1140.00
19.944 1179.00
20.2483 1166.00
20.5525 1153.00
20.8568 1140.00
21.1611 1150.00
21.4653 1060.00
21.7696 1077.00
22.0738 1028.00
22.3781 1021.00
22.6824 1043.00
22.9866 988.00
23.2909 1039.00
23.5951 982.00
23.8994 902.00
24.2037 996.00
24.5079 954.00
24.8122 973.00
25.1164 986.00
25.4207 882.00
25.725 943.00
26.0292 941.00
26.3335 871.00
26.6378 1045.00
26.942 1141.00
27.2463 1502.00
27.5505 5142.00
27.8548 2073.00
28.1591 4712.00
28.4633 4396.00
28.7676 4171.00
29.0718 4361.00
29.3761 6535.00
29.6804 1934.00
29.9846 1094.00
30.2889 1169.00
30.5931 4929.00
30.8974 1272.00
31.2017 997.00
31.5059 962.00
31.8102 1705.00
32.1144 3063.00
32.4187 1197.00
32.723 1118.00
33.0272 1265.00
33.3315 788.00
33.6357 763.00
33.94 758.00
34.2443 843.00
34.5485 878.00
34.8528 766.00
35.157 815.00
35.4613 767.00
35.7656 1242.00
36.0698 2319.00
36.3741 1359.00
36.6783 762.00
36.9826 709.00
37.2869 612.00
37.5911 665.00
37.8954 649.00
38.1996 1203.00
38.5039 686.00
38.8082 611.00
39.1124 701.00
39.4167 1059.00
39.7209 4351.00
40.0252 1884.00
40.3295 820.00
40.6337 714.00
40.938 631.00
41.2422 626.00
41.5465 624.00
41.8508 625.00
42.155 737.00
42.4593 1241.00
42.7635 901.00
43.0678 744.00
43.3721 651.00
43.6763 583.00
43.9806 600.00
44.2849 604.00
44.5891 673.00
44.8934 707.00
45.1976 919.00
45.5019 1251.00
45.8062 844.00
46.1104 768.00
46.4147 858.00
46.7189 739.00
47.0232 749.00
47.3275 1229.00
47.6317 935.00
47.936 812.00
48.2402 1197.00
48.5445 2734.00
48.8488 4951.00
49.153 3069.00
49.4573 1528.00
49.7615 968.00
50.0658 879.00
50.3701 938.00
50.6743 665.00
50.9786 857.00
51.2828 747.00
51.5871 598.00
51.8914 548.00
52.1956 540.00
52.4999 598.00
52.8041 560.00
53.1084 814.00
53.4127 1689.00
53.7169 977.00
54.0212 736.00
54.3254 818.00
54.6297 876.00
54.934 1106.00
55.2382 1239.00
55.5425 1808.00
55.8467 1098.00
56.151 993.00
56.4553 1276.00
56.7595 918.00
57.0638 624.00
57.368 571.00
57.6723 578.00
57.9766 761.00
58.2808 751.00
58.5851 652.00
58.8893 740.00
59.1936 884.00
59.4979 827.00
59.8021 887.00
60.1064 1210.00
60.4106 1201.00
60.7149 952.00
61.0192 676.00
61.3234 547.00
61.6277 570.00
61.932 507.00
62.2362 486.00
62.5405 506.00
62.8447 526.00
63.149 704.00
63.4533 938.00
63.7575 624.00
64.0618 877.00
64.366 1194.00
64.6703 755.00
64.9745 590.00
65.2788 754.00
65.5831 596.00
65.8873 502.00
66.1916 550.00
66.4959 607.00
66.8001 655.00
67.1044 527.00
67.4086 434.00
67.7129 453.00
68.0172 430.00
68.3214 435.00
68.6257 501.00
68.9299 525.00
69.2342 564.00
69.5385 628.00
69.8427 935.00
70.147 918.00
70.4512 575.00
70.7555 510.00
71.0598 647.00
71.364 589.00
71.6683 504.00
71.9725 458.00
72.2768 451.00
72.5811 537.00
72.8853 620.00
73.1896 650.00
73.4938 638.00
73.7981 595.00
74.1024 517.00
74.4066 544.00
74.7109 526.00
75.0151 499.00
75.3194 537.00
75.6237 573.00
75.9279 779.00
76.2322 981.00
76.5364 948.00
76.8407 821.00
77.145 797.00
77.4492 1036.00
77.7535 1298.00
78.0577 1154.00
78.362 903.00
78.6663 908.00
78.9705 770.00
79.2748 573.00
79.579 564.00
79.8833 634.00
80.1876 588.00
80.4918 510.00
80.7961 468.00
81.1003 518.00
81.4046 531.00
81.7089 500.00
82.0131 519.00
82.3174 639.00
82.6217 734.00
82.9259 545.00
83.2302 458.00
83.5344 455.00
83.8387 452.00
84.143 486.00
84.4472 495.00
84.7515 574.00
85.0557 611.00
85.36 635.00
85.6643 548.00
85.9685 506.00
86.2728 582.00
86.577 546.00
86.8813 516.00
87.1856 651.00
87.4898 605.00
87.7941 491.00
88.0983 500.00
88.4026 510.00
88.7069 670.00
89.0111 803.00
89.3154 761.00
89.6196 585.00
89.9239 526.00
90.2282 629.00
90.5324 653.00
90.8367 654.00
91.1409 648.00
91.4452 618.00
91.7495 605.00
92.0537 589.00
92.358 540.00
92.6622 510.00
92.9665 513.00
93.2708 532.00
93.575 509.00
93.8793 521.00
94.1835 470.00
94.4878 488.00
94.7921 474.00
95.0963 542.00
95.4006 549.00
95.7048 693.00
96.0091 767.00
96.3134 625.00
96.6176 614.00
96.9219 676.00
97.2261 659.00
97.5304 581.00
97.8347 554.00
98.1389 513.00
98.4432 492.00
98.7474 531.00
99.0517 478.00
99.356 470.00
99.6602 453.00
99.9645 482.00
100.095 454.00

File: PG_2141-1.xy
9.903433 2647.00
10.2077 2444.00
10.512 2487.00
10.8162 2314.00
11.1205 2365.00
11.4247 2203.00
11.729 2155.00
12.0333 2144.00
12.3375 1994.00
12.6418 1936.00
12.946 2003.00
13.2503 1841.00
13.5546 1844.00
13.8588 2144.00
14.1631 2180.00
14.4673 1785.00
14.7716 1760.00
15.0759 1690.00
15.3801 1976.00
15.6844 2976.00
15.9886 7603.00
16.2929 2032.00
16.5972 1681.00
16.9014 1577.00
17.2057 1461.00
17.5099 1561.00
17.8142 1409.00
18.1185 1418.00
18.4227 1387.00
18.727 1315.00
19.0312 1360.00
19.3355 1330.00
19.6398 1281.00
19.944 1334.00
20.2483 1294.00
20.5525 1272.00
20.8568 1250.00
21.1611 1198.00
21.4653 1175.00
21.7696 1126.00
22.0738 1115.00
22.3781 1097.00
22.6824 1077.00
22.9866 1048.00
23.2909 1066.00
23.5951 1118.00
23.8994 1063.00
24.2037 1010.00
24.5079 963.00
24.8122 989.00
25.1164 1003.00
25.4207 1002.00
25.725 1080.00
26.0292 973.00
26.3335 983.00
26.6378 1034.00
26.942 1094.00
27.2463 1613.00
27.5505 6008.00
27.8548 5769.00
28.1591 6938.00
28.4633 3763.00
28.7676 1674.00
29.0718 990.00
29.3761 967.00
29.6804 973.00
29.9846 893.00
30.2889 811.00
30.5931 796.00
30.8974 907.00
31.2017 826.00
31.5059 896.00
31.8102 1628.00
32.1144 1462.00
32.4187 7236.00
32.723 883.00
33.0272 795.00
33.3315 733.00
33.6357 638.00
33.94 667.00
34.2443 726.00
34.5485 662.00
34.8528 657.00
35.157 781.00
35.4613 1461.00
35.7656 714.00
36.0698 695.00
36.3741 941.00
36.6783 616.00
36.9826 632.00
37.2869 585.00
37.5911 562.00
37.8954 540.00
38.1996 610.00
38.5039 632.00
38.8082 586.00
39.1124 692.00
39.4167 1058.00
39.7209 4664.00
40.0252 2041.00
40.3295 777.00
40.6337 611.00
40.938 554.00
41.2422 551.00
41.5465 562.00
41.8508 566.00
42.155 622.00
42.4593 1427.00
42.7635 825.00
43.0678 513.00
43.3721 512.00
43.6763 557.00
43.9806 500.00
44.2849 486.00
44.5891 559.00
44.8934 504.00
45.1976 492.00
45.5019 552.00
45.8062 568.00
46.1104 976.00
46.4147 4505.00
46.7189 653.00
47.0232 606.00
47.3275 1225.00
47.6317 819.00
47.936 661.00
48.2402 1013.00
48.5445 2522.00
48.8488 3386.00
49.153 2135.00
49.4573 761.00
49.7615 592.00
50.0658 749.00
50.3701 886.00
50.6743 530.00
50.9786 548.00
51.2828 440.00
51.5871 446.00
51.8914 440.00
52.1956 449.00
52.4999 419.00
52.8041 415.00
53.1084 451.00
53.4127 465.00
53.7169 446.00
54.0212 468.00
54.3254 538.00
54.6297 912.00
54.934 3584.00
55.2382 758.00
55.5425 1447.00
55.8467 773.00
56.151 568.00
56.4553 842.00
56.7595 749.00
57.0638 548.00
57.368 919.00
57.6723 910.00
57.9766 612.00
58.2808 604.00
58.5851 443.00
58.8893 591.00
59.1936 700.00
59.4979 871.00
59.8021 431.00
60.1064 407.00
60.4106 406.00
60.7149 383.00
61.0192 403.00
61.3234 368.00
61.6277 344.00
61.932 349.00
62.2362 347.00
62.5405 371.00
62.8447 346.00
63.149 368.00
63.4533 389.00
63.7575 425.00
64.0618 709.00
64.366 1683.00
64.6703 639.00
64.9745 482.00
65.2788 574.00
65.5831 528.00
65.8873 404.00
66.1916 464.00
66.4959 405.00
66.8001 353.00
67.1044 422.00
67.4086 733.00
67.7129 438.00
68.0172 351.00
68.3214 338.00
68.6257 370.00
68.9299 433.00
69.2342 564.00
69.5385 464.00
69.8427 825.00
70.147 791.00
70.4512 477.00
70.7555 383.00
71.0598 494.00
71.364 471.00
71.6683 371.00
71.9725 416.00
72.2768 378.00
72.5811 379.00
72.8853 405.00
73.1896 423.00
73.4938 353.00
73.7981 418.00
74.1024 471.00
74.4066 914.00
74.7109 481.00
75.0151 319.00
75.3194 372.00
75.6237 359.00
75.9279 502.00
76.2322 715.00
76.5364 2051.00
76.8407 1083.00
77.145 666.00
77.4492 877.00
77.7535 1094.00
78.0577 786.00
78.362 585.00
78.6663 522.00
78.9705 478.00
79.2748 381.00
79.579 341.00
79.8833 297.00
80.1876 286.00
80.4918 317.00
80.7961 357.00
81.1003 328.00
81.4046 316.00
81.7089 348.00
82.0131 347.00
82.3174 433.00
82.6217 634.00
82.9259 519.00
83.2302 348.00
83.5344 298.00
83.8387 287.00
84.143 287.00
84.4472 329.00
84.7515 366.00
85.0557 366.00
85.36 818.00
85.6643 803.00
85.9685 335.00
86.2728 319.00
86.577 332.00
86.8813 343.00
87.1856 402.00
87.4898 310.00
87.7941 298.00
88.0983 298.00
88.4026 342.00
88.7069 494.00
89.0111 598.00
89.3154 492.00
89.6196 403.00
89.9239 424.00
90.2282 433.00
90.5324 509.00
90.8367 483.00
91.1409 452.00
91.4452 1006.00
91.7495 758.00
92.0537 723.00
92.358 530.00
92.6622 333.00
92.9665 326.00
93.2708 301.00
93.575 319.00
93.8793 349.00
94.1835 315.00
94.4878 303.00
94.7921 338.00
95.0963 354.00
95.4006 470.00
95.7048 603.00
96.0091 620.00
96.3134 522.00
96.6176 461.00
96.9219 489.00
97.2261 451.00
97.5304 387.00
97.8347 334.00
98.1389 321.00
98.4432 299.00
98.7474 356.00
99.0517 315.00
99.356 292.00
99.6602 296.00
99.9645 324.00
100.095 357.00

File: PG_2143-1.xy
9.903433 2689.00
10.2077 2686.00
10.512 2569.00
10.8162 2498.00
11.1205 2497.00
11.4247 2433.00
11.729 2221.00
12.0333 2294.00
12.3375 2157.00
12.6418 2133.00
12.946 2039.00
13.2503 1956.00
13.5546 1960.00
13.8588 1922.00
14.1631 1844.00
14.4673 1926.00
14.7716 1877.00
15.0759 1940.00
15.3801 2193.00
15.6844 4185.00
15.9886 11995.00
16.2929 2586.00
16.5972 1894.00
16.9014 1757.00
17.2057 1735.00
17.5099 1596.00
17.8142 1538.00
18.1185 1545.00
18.4227 1515.00
18.727 1535.00
19.0312 1425.00
19.3355 1405.00
19.6398 1412.00
19.944 1382.00
20.2483 1377.00
20.5525 1361.00
20.8568 1265.00
21.1611 1359.00
21.4653 1267.00
21.7696 1238.00
22.0738 1275.00
22.3781 1203.00
22.6824 1177.00
22.9866 1232.00
23.2909 1196.00
23.5951 1177.00
23.8994 1141.00
24.2037 1147.00
24.5079 1070.00
24.8122 1113.00
25.1164 1106.00
25.4207 1049.00
25.725 988.00
26.0292 1009.00
26.3335 1036.00
26.6378 1085.00
26.942 1202.00
27.2463 1871.00
27.5505 8190.00
27.8548 2878.00
28.1591 6774.00
28.4633 4860.00
28.7676 1428.00
29.0718 1035.00
29.3761 924.00
29.6804 914.00
29.9846 883.00
30.2889 886.00
30.5931 850.00
30.8974 869.00
31.2017 866.00
31.5059 903.00
31.8102 2032.00
32.1144 1380.00
32.4187 781.00
32.723 725.00
33.0272 760.00
33.3315 683.00
33.6357 642.00
33.94 674.00
34.2443 644.00
34.5485 623.00
34.8528 658.00
35.157 622.00
35.4613 614.00
35.7656 688.00
36.0698 733.00
36.3741 1239.00
36.6783 666.00
36.9826 558.00
37.2869 607.00
37.5911 588.00
37.8954 540.00
38.1996 571.00
38.5039 593.00
38.8082 660.00
39.1124 757.00
39.4167 1375.00
39.7209 6519.00
40.0252 2692.00
40.3295 865.00
40.6337 651.00
40.938 615.00
41.2422 612.00
41.5465 563.00
41.8508 610.00
42.155 672.00
42.4593 1521.00
42.7635 970.00
43.0678 576.00
43.3721 467.00
43.6763 541.00
43.9806 520.00
44.2849 505.00
44.5891 509.00
44.8934 507.00
45.1976 435.00
45.5019 525.00
45.8062 508.00
46.1104 461.00
46.4147 512.00
46.7189 526.00
47.0232 626.00
47.3275 1475.00
47.6317 1005.00
47.936 668.00
48.2402 1247.00
48.5445 3245.00
48.8488 4835.00
49.153 3152.00
49.4573 1017.00
49.7615 677.00
50.0658 886.00
50.3701 1057.00
50.6743 504.00
50.9786 467.00
51.2828 445.00
51.5871 472.00
51.8914 388.00
52.1956 401.00
52.4999 401.00
52.8041 394.00
53.1084 390.00
53.4127 413.00
53.7169 424.00
54.0212 428.00
54.3254 388.00
54.6297 432.00
54.934 473.00
55.2382 669.00
55.5425 1896.00
55.8467 1010.00
56.151 616.00
56.4553 912.00
56.7595 833.00
57.0638 472.00
57.368 400.00
57.6723 414.00
57.9766 599.00
58.2808 644.00
58.5851 465.00
58.8893 592.00
59.1936 671.00
59.4979 439.00
59.8021 351.00
60.1064 328.00
60.4106 356.00
60.7149 318.00
61.0192 367.00
61.3234 318.00
61.6277 345.00
61.932 322.00
62.2362 357.00
62.5405 337.00
62.8447 333.00
63.149 359.00
63.4533 402.00
63.7575 474.00
64.0618 894.00
64.366 1403.00
64.6703 729.00
64.9745 534.00
65.2788 768.00
65.5831 602.00
65.8873 476.00
66.1916 514.00
66.4959 447.00
66.8001 361.00
67.1044 348.00
67.4086 302.00
67.7129 286.00
68.0172 400.00
68.3214 364.00
68.6257 336.00
68.9299 307.00
69.2342 360.00
69.5385 519.00
69.8427 1011.00
70.147 1007.00
70.4512 556.00
70.7555 445.00
71.0598 568.00
71.364 556.00
71.6683 362.00
71.9725 352.00
72.2768 326.00
72.5811 377.00
72.8853 394.00
73.1896 425.00
73.4938 334.00
73.7981 372.00
74.1024 309.00
74.4066 298.00
74.7109 278.00
75.0151 333.00
75.3194 375.00
75.6237 403.00
75.9279 618.00
76.2322 788.00
76.5364 814.00
76.8407 792.00
77.145 719.00
77.4492 1135.00
77.7535 1464.00
78.0577 1034.00
78.362 591.00
78.6663 646.00
78.9705 520.00
79.2748 434.00
79.579 348.00
79.8833 366.00
80.1876 315.00
80.4918 328.00
80.7961 315.00
81.1003 312.00
81.4046 312.00
81.7089 323.00
82.0131 324.00
82.3174 474.00
82.6217 601.00
82.9259 471.00
83.2302 351.00
83.5344 318.00
83.8387 326.00
84.143 303.00
84.4472 297.00
84.7515 324.00
85.0557 360.00
85.36 392.00
85.6643 331.00
85.9685 327.00
86.2728 336.00
86.577 267.00
86.8813 295.00
87.1856 286.00
87.4898 275.00
87.7941 310.00
88.0983 298.00
88.4026 335.00
88.7069 563.00
89.0111 736.00
89.3154 602.00
89.6196 385.00
89.9239 416.00
90.2282 489.00
90.5324 598.00
90.8367 539.00
91.1409 418.00
91.4452 385.00
91.7495 377.00
92.0537 366.00
92.358 330.00
92.6622 313.00
92.9665 340.00
93.2708 275.00
93.575 322.00
93.8793 294.00
94.1835 314.00
94.4878 288.00
94.7921 297.00
95.0963 331.00
95.4006 431.00
95.7048 695.00
96.0091 694.00
96.3134 625.00
96.6176 552.00
96.9219 619.00
97.2261 556.00
97.5304 444.00
97.8347 326.00
98.1389 326.00
98.4432 363.00
98.7474 332.00
99.0517 306.00
99.356 322.00
99.6602 297.00
99.9645 318.00
100.095 290.00

File: PG_2144-1.xy
9.903433 2543.00
10.2077 2404.00
10.512 2420.00
10.8162 2241.00
11.1205 2144.00
11.4247 2079.00
11.729 2029.00
12.0333 1897.00
12.3375 1860.00
12.6418 1886.00
12.946 1797.00
13.2503 1754.00
13.5546 1744.00
13.8588 1638.00
14.1631 1604.00
14.4673 1628.00
14.7716 1637.00
15.0759 1643.00
15.3801 1720.00
15.6844 2383.00
15.9886 5188.00
16.2929 1800.00
16.5972 1550.00
16.9014 1487.00
17.2057 1337.00
17.5099 1372.00
17.8142 1331.00
18.1185 1335.00
18.4227 1346.00
18.727 1339.00
19.0312 1273.00
19.3355 1211.00
19.6398 1169.00
19.944 1144.00
20.2483 1192.00
20.5525 1127.00
20.8568 1129.00
21.1611 1098.00
21.4653 1065.00
21.7696 1010.00
22.0738 995.00
22.3781 1095.00
22.6824 1019.00
22.9866 978.00
23.2909 967.00
23.5951 990.00
23.8994 956.00
24.2037 961.00
24.5079 927.00
24.8122 982.00
25.1164 952.00
25.4207 910.00
25.725 880.00
26.0292 967.00
26.3335 1215.00
26.6378 1911.00
26.942 8323.00
27.2463 1716.00
27.5505 4310.00
27.8548 1797.00
28.1591 3675.00
28.4633 2646.00
28.7676 1059.00
29.0718 831.00
29.3761 819.00
29.6804 839.00
29.9846 725.00
30.2889 784.00
30.5931 733.00
30.8974 717.00
31.2017 797.00
31.5059 828.00
31.8102 1317.00
32.1144 956.00
32.4187 671.00
32.723 681.00
33.0272 684.00
33.3315 656.00
33.6357 802.00
33.94 1516.00
34.2443 6220.00
34.5485 935.00
34.8528 712.00
35.157 667.00
35.4613 591.00
35.7656 635.00
36.0698 686.00
36.3741 879.00
36.6783 615.00
36.9826 589.00
37.2869 581.00
37.5911 610.00
37.8954 690.00
38.1996 1904.00
38.5039 857.00
38.8082 647.00
39.1124 750.00
39.4167 1192.00
39.7209 3594.00
40.0252 1584.00
40.3295 675.00
40.6337 527.00
40.938 517.00
41.2422 486.00
41.5465 527.00
41.8508 489.00
42.155 597.00
42.4593 1044.00
42.7635 712.00
43.0678 618.00
43.3721 462.00
43.6763 469.00
43.9806 506.00
44.2849 462.00
44.5891 457.00
44.8934 425.00
45.1976 413.00
45.5019 462.00
45.8062 459.00
46.1104 464.00
46.4147 464.00
46.7189 463.00
47.0232 477.00
47.3275 966.00
47.6317 689.00
47.936 578.00
48.2402 936.00
48.5445 1958.00
48.8488 2801.00
49.153 1848.00
49.4573 684.00
49.7615 586.00
50.0658 663.00
50.3701 761.00
50.6743 480.00
50.9786 511.00
51.2828 455.00
51.5871 607.00
51.8914 1547.00
52.1956 4089.00
52.4999 713.00
52.8041 498.00
53.1084 459.00
53.4127 415.00
53.7169 398.00
54.0212 456.00
54.3254 433.00
54.6297 498.00
54.934 915.00
55.2382 1124.00
55.5425 1270.00
55.8467 731.00
56.151 532.00
56.4553 690.00
56.7595 658.00
57.0638 432.00
57.368 402.00
57.6723 441.00
57.9766 734.00
58.2808 880.00
58.5851 439.00
58.8893 470.00
59.1936 522.00
59.4979 373.00
59.8021 354.00
60.1064 335.00
60.4106 346.00
60.7149 334.00
61.0192 350.00
61.3234 359.00
61.6277 370.00
61.932 515.00
62.2362 1165.00
62.5405 466.00
62.8447 409.00
63.149 371.00
63.4533 398.00
63.7575 416.00
64.0618 688.00
64.366 912.00
64.6703 631.00
64.9745 1486.00
65.2788 872.00
65.5831 573.00
65.8873 550.00
66.1916 1594.00
66.4959 876.00
66.8001 387.00
67.1044 360.00
67.4086 338.00
67.7129 349.00
68.0172 314.00
68.3214 346.00
68.6257 322.00
68.9299 350.00
69.2342 360.00
69.5385 420.00
69.8427 736.00
70.147 699.00
70.4512 432.00
70.7555 384.00
71.0598 471.00
71.364 610.00
71.6683 673.00
71.9725 380.00
72.2768 333.00
72.5811 321.00
72.8853 401.00
73.1896 394.00
73.4938 348.00
73.7981 308.00
74.1024 302.00
74.4066 312.00
74.7109 307.00
75.0151 313.00
75.3194 325.00
75.6237 329.00
75.9279 480.00
76.2322 564.00
76.5364 637.00
76.8407 557.00
77.145 582.00
77.4492 744.00
77.7535 930.00
78.0577 662.00
78.362 515.00
78.6663 544.00
78.9705 1395.00
79.2748 579.00
79.579 380.00
79.8833 321.00
80.1876 301.00
80.4918 327.00
80.7961 346.00
81.1003 365.00
81.4046 584.00
81.7089 457.00
82.0131 324.00
82.3174 380.00
82.6217 470.00
82.9259 414.00
83.2302 312.00
83.5344 336.00
83.8387 551.00
84.143 587.00
84.4472 363.00
84.7515 313.00
85.0557 332.00
85.36 328.00
85.6643 313.00
85.9685 330.00
86.2728 296.00
86.577 313.00
86.8813 333.00
87.1856 349.00
87.4898 604.00
87.7941 461.00
88.0983 349.00
88.4026 363.00
88.7069 460.00
89.0111 575.00
89.3154 471.00
89.6196 466.00
89.9239 765.00
90.2282 767.00
90.5324 575.00
90.8367 576.00
91.1409 1087.00
91.4452 750.00
91.7495 424.00
92.0537 361.00
92.358 342.00
92.6622 317.00
92.9665 356.00
93.2708 346.00
93.575 557.00
93.8793 444.00
94.1835 336.00
94.4878 288.00
94.7921 309.00
95.0963 330.00
95.4006 419.00
95.7048 489.00
96.0091 575.00
96.3134 645.00
96.6176 577.00
96.9219 512.00
97.2261 472.00
97.5304 389.00
97.8347 352.00
98.1389 331.00
98.4432 327.00
98.7474 312.00
99.0517 306.00
99.356 260.00
99.6602 275.00
99.9645 308.00
100.095 281.00

File: PG_2145-1.xy
9.903433 2652.00
10.2077 2627.00
10.512 2445.00
10.8162 2406.00
11.1205 2372.00
11.4247 2282.00
11.729 2154.00
12.0333 2044.00
12.3375 2055.00
12.6418 1979.00
12.946 1858.00
13.2503 1883.00
13.5546 1884.00
13.8588 1807.00
14.1631 1855.00
14.4673 1907.00
14.7716 1861.00
15.0759 1886.00
15.3801 1994.00
15.6844 2884.00
15.9886 8471.00
16.2929 2188.00
16.5972 1824.00
16.9014 1685.00
17.2057 1706.00
17.5099 1557.00
17.8142 1581.00
18.1185 1462.00
18.4227 1574.00
18.727 1526.00
19.0312 1498.00
19.3355 1464.00
19.6398 1477.00
19.944 1543.00
20.2483 1455.00
20.5525 1441.00
20.8568 1488.00
21.1611 1371.00
21.4653 1416.00
21.7696 1328.00
22.0738 1373.00
22.3781 1385.00
22.6824 1322.00
22.9866 1306.00
23.2909 1351.00
23.5951 1270.00
23.8994 1260.00
24.2037 1240.00
24.5079 1254.00
24.8122 1257.00
25.1164 1508.00
25.4207 4322.00
25.725 2713.00
26.0292 3045.00
26.3335 1567.00
26.6378 1267.00
26.942 1391.00
27.2463 1883.00
27.5505 6566.00
27.8548 2753.00
28.1591 5468.00
28.4633 4548.00
28.7676 1521.00
29.0718 1274.00
29.3761 1241.00
29.6804 1147.00
29.9846 1714.00
30.2889 1081.00
30.5931 1095.00
30.8974 1089.00
31.2017 1131.00
31.5059 1289.00
31.8102 2342.00
32.1144 1627.00
32.4187 1072.00
32.723 1064.00
33.0272 923.00
33.3315 946.00
33.6357 900.00
33.94 933.00
34.2443 990.00
34.5485 922.00
34.8528 1163.00
35.157 1113.00
35.4613 1491.00
35.7656 1336.00
36.0698 1288.00
36.3741 2011.00
36.6783 2255.00
36.9826 1989.00
37.2869 1016.00
37.5911 956.00
37.8954 978.00
38.1996 889.00
38.5039 909.00
38.8082 938.00
39.1124 1061.00
39.4167 1481.00
39.7209 5658.00
40.0252 2876.00
40.3295 1173.00
40.6337 969.00
40.938 909.00
41.2422 949.00
41.5465 1150.00
41.8508 1065.00
42.155 1018.00
42.4593 1688.00
42.7635 1296.00
43.0678 946.00
43.3721 961.00
43.6763 882.00
43.9806 956.00
44.2849 1768.00
44.5891 1953.00
44.8934 1069.00
45.1976 996.00
45.5019 1032.00
45.8062 1368.00
46.1104 1182.00
46.4147 914.00
46.7189 1021.00
47.0232 1310.00
47.3275 1812.00
47.6317 1528.00
47.936 1991.00
48.2402 1792.00
48.5445 3066.00
48.8488 4416.00
49.153 3302.00
49.4573 1339.00
49.7615 1025.00
50.0658 1329.00
50.3701 2107.00
50.6743 1285.00
50.9786 930.00
51.2828 814.00
51.5871 728.00
51.8914 849.00
52.1956 866.00
52.4999 803.00
52.8041 765.00
53.1084 779.00
53.4127 812.00
53.7169 786.00
54.0212 755.00
54.3254 754.00
54.6297 719.00
54.934 820.00
55.2382 986.00
55.5425 2055.00
55.8467 1272.00
56.151 948.00
56.4553 1250.00
56.7595 1273.00
57.0638 956.00
57.368 909.00
57.6723 975.00
57.9766 1066.00
58.2808 1082.00
58.5851 837.00
58.8893 1011.00
59.1936 1256.00
59.4979 930.00
59.8021 895.00
60.1064 967.00
60.4106 802.00
60.7149 787.00
61.0192 748.00
61.3234 739.00
61.6277 730.00
61.932 744.00
62.2362 711.00
62.5405 683.00
62.8447 755.00
63.149 892.00
63.4533 777.00
63.7575 917.00
64.0618 1316.00
64.366 1774.00
64.6703 1082.00
64.9745 880.00
65.2788 1171.00
65.5831 1098.00
65.8873 927.00
66.1916 899.00
66.4959 903.00
66.8001 729.00
67.1044 715.00
67.4086 678.00
67.7129 685.00
68.0172 716.00
68.3214 728.00
68.6257 717.00
68.9299 647.00
69.2342 690.00
69.5385 826.00
69.8427 1238.00
70.147 1296.00
70.4512 900.00
70.7555 807.00
71.0598 922.00
71.364 928.00
71.6683 799.00
71.9725 728.00
72.2768 906.00
72.5811 876.00
72.8853 850.00
73.1896 901.00
73.4938 803.00
73.7981 877.00
74.1024 1039.00
74.4066 934.00
74.7109 908.00
75.0151 850.00
75.3194 865.00
75.6237 916.00
75.9279 1034.00
76.2322 1235.00
76.5364 1229.00
76.8407 1113.00
77.145 1067.00
77.4492 1489.00
77.7535 1796.00
78.0577 1364.00
78.362 1020.00
78.6663 925.00
78.9705 904.00
79.2748 731.00
79.579 708.00
79.8833 720.00
80.1876 702.00
80.4918 753.00
80.7961 742.00
81.1003 714.00
81.4046 718.00
81.7089 736.00
82.0131 862.00
82.3174 922.00
82.6217 1033.00
82.9259 878.00
83.2302 799.00
83.5344 816.00
83.8387 800.00
84.143 752.00
84.4472 769.00
84.7515 685.00
85.0557 738.00
85.36 787.00
85.6643 798.00
85.9685 722.00
86.2728 712.00
86.577 691.00
86.8813 667.00
87.1856 674.00
87.4898 723.00
87.7941 723.00
88.0983 714.00
88.4026 738.00
88.7069 949.00
89.0111 1107.00
89.3154 951.00
89.6196 814.00
89.9239 765.00
90.2282 893.00
90.5324 877.00
90.8367 866.00
91.1409 733.00
91.4452 779.00
91.7495 892.00
92.0537 803.00
92.358 765.00
92.6622 726.00
92.9665 711.00
93.2708 719.00
93.575 689.00
93.8793 727.00
94.1835 798.00
94.4878 789.00
94.7921 797.00
95.0963 923.00
95.4006 907.00
95.7048 1055.00
96.0091 1081.00
96.3134 994.00
96.6176 945.00
96.9219 960.00
97.2261 1005.00
97.5304 929.00
97.8347 794.00
98.1389 716.00
98.4432 729.00
98.7474 730.00
99.0517 780.00
99.356 772.00
99.6602 765.00
99.9645 662.00
100.095 731.00