Folder: alab-pipeline/data/xrd_creation/results (part 101)

File: PG_2245-1.xy
9.903433 3058.00
10.2077 2973.00
10.512 2776.00
10.8162 2804.00
11.1205 2791.00
11.4247 2651.00
11.729 2589.00
12.0333 2504.00
12.3375 2479.00
12.6418 2408.00
12.946 2596.00
13.2503 2544.00
13.5546 2461.00
13.8588 2526.00
14.1631 2443.00
14.4673 2498.00
14.7716 2385.00
15.0759 2364.00
15.3801 2412.00
15.6844 2401.00
15.9886 2295.00
16.2929 2326.00
16.5972 2263.00
16.9014 2351.00
17.2057 2222.00
17.5099 2196.00
17.8142 2303.00
18.1185 2306.00
18.4227 2297.00
18.727 2300.00
19.0312 2313.00
19.3355 2124.00
19.6398 2098.00
19.944 2137.00
20.2483 2168.00
20.5525 2755.00
20.8568 2377.00
21.1611 2326.00
21.4653 2758.00
21.7696 2499.00
22.0738 2098.00
22.3781 2169.00
22.6824 2199.00
22.9866 2127.00
23.2909 2132.00
23.5951 2216.00
23.8994 2171.00
24.2037 2148.00
24.5079 2151.00
24.8122 2432.00
25.1164 3516.00
25.4207 23594.00
25.725 8331.00
26.0292 13005.00
26.3335 4167.00
26.6378 2394.00
26.942 2154.00
27.2463 2073.00
27.5505 2050.00
27.8548 1993.00
28.1591 1941.00
28.4633 1986.00
28.7676 2010.00
29.0718 1872.00
29.3761 2002.00
29.6804 2479.00
29.9846 5753.00
30.2889 2000.00
30.5931 2000.00
30.8974 3406.00
31.2017 2045.00
31.5059 2496.00
31.8102 4905.00
32.1144 4636.00
32.4187 1889.00
32.723 1786.00
33.0272 1843.00
33.3315 1810.00
33.6357 1830.00
33.94 1882.00
34.2443 2007.00
34.5485 2411.00
34.8528 3319.00
35.157 2654.00
35.4613 5288.00
35.7656 3154.00
36.0698 2710.00
36.3741 5981.00
36.6783 8475.00
36.9826 7935.00
37.2869 3088.00
37.5911 2029.00
37.8954 1857.00
38.1996 1787.00
38.5039 1737.00
38.8082 1893.00
39.1124 1823.00
39.4167 1735.00
39.7209 1826.00
40.0252 2350.00
40.3295 2111.00
40.6337 1817.00
40.938 1724.00
41.2422 1923.00
41.5465 3452.00
41.8508 2623.00
42.155 1901.00
42.4593 1832.00
42.7635 1810.00
43.0678 2088.00
43.3721 2226.00
43.6763 2006.00
43.9806 2354.00
44.2849 7384.00
44.5891 6562.00
44.8934 2371.00
45.1976 2254.00
45.5019 2439.00
45.8062 4373.00
46.1104 3568.00
46.4147 2041.00
46.7189 2747.00
47.0232 4256.00
47.3275 2548.00
47.6317 2790.00
47.936 7386.00
48.2402 3336.00
48.5445 1882.00
48.8488 1778.00
49.153 1998.00
49.4573 1958.00
49.7615 1915.00
50.0658 3215.00
50.3701 6232.00
50.6743 3914.00
50.9786 2150.00
51.2828 1812.00
51.5871 1831.00
51.8914 2231.00
52.1956 1988.00
52.4999 1653.00
52.8041 1626.00
53.1084 1736.00
53.4127 1979.00
53.7169 1681.00
54.0212 1685.00
54.3254 1508.00
54.6297 1590.00
54.934 1576.00
55.2382 1838.00
55.5425 1768.00
55.8467 1684.00
56.151 1533.00
56.4553 1642.00
56.7595 1776.00
57.0638 2249.00
57.368 2202.00
57.6723 2908.00
57.9766 2362.00
58.2808 1887.00
58.5851 1957.00
58.8893 2178.00
59.1936 3231.00
59.4979 2174.00
59.8021 2171.00
60.1064 3069.00
60.4106 1935.00
60.7149 1669.00
61.0192 1688.00
61.3234 1648.00
61.6277 1678.00
61.932 1770.00
62.2362 1543.00
62.5405 1606.00
62.8447 1946.00
63.149 2167.00
63.4533 1724.00
63.7575 1829.00
64.0618 2372.00
64.366 2595.00
64.6703 1738.00
64.9745 1613.00
65.2788 1771.00
65.5831 2252.00
65.8873 2531.00
66.1916 2043.00
66.4959 1998.00
66.8001 1829.00
67.1044 1699.00
67.4086 1600.00
67.7129 1539.00
68.0172 1498.00
68.3214 1599.00
68.6257 1491.00
68.9299 1439.00
69.2342 1535.00
69.5385 1433.00
69.8427 1490.00
70.147 1429.00
70.4512 1480.00
70.7555 1581.00
71.0598 1551.00
71.364 1507.00
71.6683 1575.00
71.9725 1706.00
72.2768 2880.00
72.5811 2124.00
72.8853 1742.00
73.1896 2138.00
73.4938 1970.00
73.7981 2719.00
74.1024 3441.00
74.4066 2537.00
74.7109 2561.00
75.0151 2254.00
75.3194 2501.00
75.6237 2354.00
75.9279 1949.00
76.2322 2412.00
76.5364 2094.00
76.8407 1730.00
77.145 1653.00
77.4492 1804.00
77.7535 2205.00
78.0577 2153.00
78.362 1715.00
78.6663 1570.00
78.9705 1504.00
79.2748 1462.00
79.579 1483.00
79.8833 1535.00
80.1876 1673.00
80.4918 1861.00
80.7961 1686.00
81.1003 1597.00
81.4046 1541.00
81.7089 1697.00
82.0131 1832.00
82.3174 2207.00
82.6217 1885.00
82.9259 1656.00
83.2302 1996.00
83.5344 2067.00
83.8387 1728.00
84.143 1648.00
84.4472 1836.00
84.7515 1649.00
85.0557 1662.00
85.36 1843.00
85.6643 1795.00
85.9685 1591.00
86.2728 1636.00
86.577 1610.00
86.8813 1467.00
87.1856 1516.00
87.4898 1640.00
87.7941 1563.00
88.0983 1587.00
88.4026 1544.00
88.7069 1519.00
89.0111 1529.00
89.3154 1502.00
89.6196 1540.00
89.9239 1656.00
90.2282 1692.00
90.5324 1374.00
90.8367 1482.00
91.1409 1519.00
91.4452 1483.00
91.7495 1700.00
92.0537 1793.00
92.358 1577.00
92.6622 1449.00
92.9665 1518.00
93.2708 1438.00
93.575 1550.00
93.8793 1683.00
94.1835 1826.00
94.4878 1661.00
94.7921 1861.00
95.0963 2270.00
95.4006 1968.00
95.7048 1783.00
96.0091 1650.00
96.3134 1680.00
96.6176 1629.00
96.9219 1585.00
97.2261 1848.00
97.5304 2015.00
97.8347 1729.00
98.1389 1534.00
98.4432 1501.00
98.7474 1465.00
99.0517 1545.00
99.356 1656.00
99.6602 1663.00
99.9645 1600.00
100.095 1589.00

File: PG_2246-1.xy
9.903433 2513.00
10.2077 2291.00
10.512 2425.00
10.8162 2218.00
11.1205 2106.00
11.4247 2126.00
11.729 1965.00
12.0333 1981.00
12.3375 1899.00
12.6418 1820.00
12.946 1829.00
13.2503 1732.00
13.5546 1711.00
13.8588 1678.00
14.1631 1605.00
14.4673 1578.00
14.7716 1584.00
15.0759 1429.00
15.3801 1501.00
15.6844 1450.00
15.9886 1441.00
16.2929 1384.00
16.5972 1434.00
16.9014 1415.00
17.2057 1348.00
17.5099 1374.00
17.8142 1237.00
18.1185 1276.00
18.4227 1252.00
18.727 1227.00
19.0312 1173.00
19.3355 1156.00
19.6398 1128.00
19.944 1100.00
20.2483 1051.00
20.5525 1109.00
20.8568 1047.00
21.1611 1066.00
21.4653 1219.00
21.7696 1612.00
22.0738 1024.00
22.3781 1005.00
22.6824 926.00
22.9866 987.00
23.2909 915.00
23.5951 1001.00
23.8994 1035.00
24.2037 919.00
24.5079 866.00
24.8122 1084.00
25.1164 1261.00
25.4207 4011.00
25.725 15489.00
26.0292 1300.00
26.3335 938.00
26.6378 885.00
26.942 773.00
27.2463 787.00
27.5505 830.00
27.8548 838.00
28.1591 783.00
28.4633 714.00
28.7676 681.00
29.0718 705.00
29.3761 706.00
29.6804 830.00
29.9846 753.00
30.2889 650.00
30.5931 640.00
30.8974 1793.00
31.2017 727.00
31.5059 626.00
31.8102 733.00
32.1144 3409.00
32.4187 682.00
32.723 567.00
33.0272 545.00
33.3315 530.00
33.6357 531.00
33.94 532.00
34.2443 635.00
34.5485 856.00
34.8528 521.00
35.157 561.00
35.4613 508.00
35.7656 470.00
36.0698 507.00
36.3741 1395.00
36.6783 577.00
36.9826 619.00
37.2869 2804.00
37.5911 630.00
37.8954 894.00
38.1996 4197.00
38.5039 638.00
38.8082 1359.00
39.1124 679.00
39.4167 509.00
39.7209 477.00
40.0252 631.00
40.3295 615.00
40.6337 437.00
40.938 402.00
41.2422 424.00
41.5465 409.00
41.8508 403.00
42.155 416.00
42.4593 400.00
42.7635 395.00
43.0678 457.00
43.3721 400.00
43.6763 418.00
43.9806 428.00
44.2849 387.00
44.5891 379.00
44.8934 404.00
45.1976 330.00
45.5019 370.00
45.8062 356.00
46.1104 355.00
46.4147 343.00
46.7189 353.00
47.0232 347.00
47.3275 395.00
47.6317 401.00
47.936 553.00
48.2402 2645.00
48.5445 2142.00
48.8488 458.00
49.153 598.00
49.4573 363.00
49.7615 337.00
50.0658 406.00
50.3701 329.00
50.6743 433.00
50.9786 370.00
51.2828 333.00
51.5871 307.00
51.8914 297.00
52.1956 323.00
52.4999 349.00
52.8041 364.00
53.1084 319.00
53.4127 331.00
53.7169 436.00
54.0212 941.00
54.3254 2929.00
54.6297 540.00
54.934 453.00
55.2382 1394.00
55.5425 2391.00
55.8467 360.00
56.151 335.00
56.4553 348.00
56.7595 349.00
57.0638 506.00
57.368 320.00
57.6723 332.00
57.9766 453.00
58.2808 313.00
58.5851 378.00
58.8893 345.00
59.1936 372.00
59.4979 330.00
59.8021 301.00
60.1064 465.00
60.4106 310.00
60.7149 303.00
61.0192 294.00
61.3234 369.00
61.6277 408.00
61.932 329.00
62.2362 430.00
62.5405 757.00
62.8447 1139.00
63.149 2227.00
63.4533 402.00
63.7575 315.00
64.0618 295.00
64.366 265.00
64.6703 279.00
64.9745 250.00
65.2788 306.00
65.5831 316.00
65.8873 323.00
66.1916 260.00
66.4959 284.00
66.8001 231.00
67.1044 267.00
67.4086 324.00
67.7129 284.00
68.0172 257.00
68.3214 265.00
68.6257 312.00
68.9299 819.00
69.2342 1043.00
69.5385 314.00
69.8427 316.00
70.147 298.00
70.4512 804.00
70.7555 1194.00
71.0598 304.00
71.364 212.00
71.6683 221.00
71.9725 207.00
72.2768 320.00
72.5811 304.00
72.8853 239.00
73.1896 229.00
73.4938 258.00
73.7981 245.00
74.1024 320.00
74.4066 352.00
74.7109 283.00
75.0151 337.00
75.3194 2652.00
75.6237 717.00
75.9279 323.00
76.2322 706.00
76.5364 551.00
76.8407 237.00
77.145 211.00
77.4492 248.00
77.7535 247.00
78.0577 214.00
78.362 232.00
78.6663 220.00
78.9705 222.00
79.2748 194.00
79.579 236.00
79.8833 220.00
80.1876 225.00
80.4918 249.00
80.7961 199.00
81.1003 267.00
81.4046 257.00
81.7089 201.00
82.0131 273.00
82.3174 326.00
82.6217 400.00
82.9259 1335.00
83.2302 722.00
83.5344 404.00
83.8387 237.00
84.143 222.00
84.4472 215.00
84.7515 209.00
85.0557 221.00
85.36 234.00
85.6643 217.00
85.9685 210.00
86.2728 210.00
86.577 224.00
86.8813 204.00
87.1856 189.00
87.4898 218.00
87.7941 187.00
88.0983 214.00
88.4026 211.00
88.7069 222.00
89.0111 197.00
89.3154 189.00
89.6196 212.00
89.9239 202.00
90.2282 208.00
90.5324 191.00
90.8367 198.00
91.1409 179.00
91.4452 209.00
91.7495 191.00
92.0537 221.00
92.358 216.00
92.6622 281.00
92.9665 237.00
93.2708 248.00
93.575 297.00
93.8793 261.00
94.1835 267.00
94.4878 648.00
94.7921 414.00
95.0963 267.00
95.4006 799.00
95.7048 599.00
96.0091 267.00
96.3134 219.00
96.6176 215.00
96.9219 218.00
97.2261 213.00
97.5304 211.00
97.8347 213.00
98.1389 204.00
98.4432 391.00
98.7474 344.00
99.0517 308.00
99.356 265.00
99.6602 242.00
99.9645 358.00
100.095 439.00

File: PG_2247-1.xy
9.903433 2784.00
10.2077 2683.00
10.512 2598.00
10.8162 2582.00
11.1205 2447.00
11.4247 2360.00
11.729 2265.00
12.0333 2181.00
12.3375 2454.00
12.6418 3078.00
12.946 2208.00
13.2503 1919.00
13.5546 1984.00
13.8588 2241.00
14.1631 4119.00
14.4673 2141.00
14.7716 1810.00
15.0759 1818.00
15.3801 1791.00
15.6844 1865.00
15.9886 1694.00
16.2929 1651.00
16.5972 1644.00
16.9014 1597.00
17.2057 1626.00
17.5099 1580.00
17.8142 1615.00
18.1185 1492.00
18.4227 1412.00
18.727 1593.00
19.0312 1823.00
19.3355 1498.00
19.6398 1297.00
19.944 1327.00
20.2483 1383.00
20.5525 1314.00
20.8568 1282.00
21.1611 1278.00
21.4653 1460.00
21.7696 2310.00
22.0738 1284.00
22.3781 1253.00
22.6824 1229.00
22.9866 1317.00
23.2909 1204.00
23.5951 1998.00
23.8994 1356.00
24.2037 1218.00
24.5079 1420.00
24.8122 1542.00
25.1164 1213.00
25.4207 1139.00
25.725 1113.00
26.0292 1178.00
26.3335 1268.00
26.6378 1947.00
26.942 1504.00
27.2463 1257.00
27.5505 1209.00
27.8548 1656.00
28.1591 2458.00
28.4633 1949.00
28.7676 4111.00
29.0718 1371.00
29.3761 1397.00
29.6804 1690.00
29.9846 1194.00
30.2889 1193.00
30.5931 1497.00
30.8974 2609.00
31.2017 2022.00
31.5059 1189.00
31.8102 1036.00
32.1144 3062.00
32.4187 1041.00
32.723 981.00
33.0272 1212.00
33.3315 2578.00
33.6357 1076.00
33.94 874.00
34.2443 902.00
34.5485 1531.00
34.8528 872.00
35.157 870.00
35.4613 822.00
35.7656 906.00
36.0698 917.00
36.3741 1375.00
36.6783 1727.00
36.9826 1049.00
37.2869 1736.00
37.5911 1106.00
37.8954 884.00
38.1996 847.00
38.5039 804.00
38.8082 726.00
39.1124 826.00
39.4167 815.00
39.7209 982.00
40.0252 1143.00
40.3295 1014.00
40.6337 804.00
40.938 891.00
41.2422 1451.00
41.5465 1517.00
41.8508 909.00
42.155 999.00
42.4593 1702.00
42.7635 924.00
43.0678 796.00
43.3721 672.00
43.6763 723.00
43.9806 707.00
44.2849 794.00
44.5891 918.00
44.8934 755.00
45.1976 731.00
45.5019 725.00
45.8062 723.00
46.1104 882.00
46.4147 766.00
46.7189 675.00
47.0232 665.00
47.3275 703.00
47.6317 692.00
47.936 725.00
48.2402 682.00
48.5445 699.00
48.8488 753.00
49.153 1112.00
49.4573 765.00
49.7615 720.00
50.0658 1018.00
50.3701 837.00
50.6743 788.00
50.9786 1727.00
51.2828 699.00
51.5871 646.00
51.8914 669.00
52.1956 711.00
52.4999 686.00
52.8041 644.00
53.1084 787.00
53.4127 645.00
53.7169 658.00
54.0212 817.00
54.3254 1912.00
54.6297 906.00
54.934 775.00
55.2382 801.00
55.5425 949.00
55.8467 942.00
56.151 866.00
56.4553 713.00
56.7595 791.00
57.0638 997.00
57.368 756.00
57.6723 784.00
57.9766 801.00
58.2808 717.00
58.5851 773.00
58.8893 806.00
59.1936 745.00
59.4979 730.00
59.8021 664.00
60.1064 939.00
60.4106 858.00
60.7149 1163.00
61.0192 826.00
61.3234 820.00
61.6277 752.00
61.932 786.00
62.2362 951.00
62.5405 722.00
62.8447 759.00
63.149 642.00
63.4533 1008.00
63.7575 733.00
64.0618 685.00
64.366 674.00
64.6703 625.00
64.9745 777.00
65.2788 935.00
65.5831 1020.00
65.8873 764.00
66.1916 672.00
66.4959 635.00
66.8001 586.00
67.1044 746.00
67.4086 797.00
67.7129 667.00
68.0172 793.00
68.3214 735.00
68.6257 659.00
68.9299 631.00
69.2342 543.00
69.5385 585.00
69.8427 684.00
70.147 654.00
70.4512 690.00
70.7555 692.00
71.0598 854.00
71.364 678.00
71.6683 577.00
71.9725 731.00
72.2768 633.00
72.5811 605.00
72.8853 576.00
73.1896 624.00
73.4938 609.00
73.7981 604.00
74.1024 617.00
74.4066 610.00
74.7109 605.00
75.0151 576.00
75.3194 575.00
75.6237 583.00
75.9279 592.00
76.2322 564.00
76.5364 627.00
76.8407 596.00
77.145 616.00
77.4492 591.00
77.7535 577.00
78.0577 606.00
78.362 612.00
78.6663 600.00
78.9705 540.00
79.2748 568.00
79.579 517.00
79.8833 487.00
80.1876 509.00
80.4918 611.00
80.7961 574.00
81.1003 548.00
81.4046 563.00
81.7089 574.00
82.0131 581.00
82.3174 609.00
82.6217 658.00
82.9259 601.00
83.2302 572.00
83.5344 585.00
83.8387 614.00
84.143 617.00
84.4472 585.00
84.7515 600.00
85.0557 603.00
85.36 600.00
85.6643 533.00
85.9685 613.00
86.2728 611.00
86.577 643.00
86.8813 618.00
87.1856 560.00
87.4898 547.00
87.7941 588.00
88.0983 570.00
88.4026 560.00
88.7069 518.00
89.0111 564.00
89.3154 600.00
89.6196 597.00
89.9239 637.00
90.2282 608.00
90.5324 544.00
90.8367 548.00
91.1409 521.00
91.4452 541.00
91.7495 548.00
92.0537 558.00
92.358 564.00
92.6622 584.00
92.9665 557.00
93.2708 586.00
93.575 618.00
93.8793 640.00
94.1835 607.00
94.4878 545.00
94.7921 503.00
95.0963 541.00
95.4006 563.00
95.7048 556.00
96.0091 575.00
96.3134 529.00
96.6176 543.00
96.9219 570.00
97.2261 636.00
97.5304 559.00
97.8347 564.00
98.1389 589.00
98.4432 512.00
98.7474 531.00
99.0517 585.00
99.356 564.00
99.6602 553.00
99.9645 572.00
100.095 504.00

File: PG_2248-1.xy
9.903433 2471.00
10.2077 2366.00
10.512 2346.00
10.8162 2208.00
11.1205 2131.00
11.4247 2097.00
11.729 1979.00
12.0333 1988.00
12.3375 1865.00
12.6418 1829.00
12.946 1764.00
13.2503 1694.00
13.5546 1799.00
13.8588 2131.00
14.1631 3798.00
14.4673 1731.00
14.7716 1596.00
15.0759 1604.00
15.3801 1560.00
15.6844 1651.00
15.9886 1485.00
16.2929 1427.00
16.5972 1445.00
16.9014 1414.00
17.2057 1318.00
17.5099 1306.00
17.8142 1292.00
18.1185 1270.00
18.4227 1242.00
18.727 1375.00
19.0312 1384.00
19.3355 1151.00
19.6398 1212.00
19.944 1214.00
20.2483 1116.00
20.5525 1167.00
20.8568 1086.00
21.1611 1089.00
21.4653 1219.00
21.7696 1141.00
22.0738 1056.00
22.3781 998.00
22.6824 1056.00
22.9866 1043.00
23.2909 1197.00
23.5951 1938.00
23.8994 1025.00
24.2037 969.00
24.5079 1031.00
24.8122 943.00
25.1164 961.00
25.4207 881.00
25.725 909.00
26.0292 1008.00
26.3335 1129.00
26.6378 979.00
26.942 1039.00
27.2463 848.00
27.5505 848.00
27.8548 1433.00
28.1591 1200.00
28.4633 1855.00
28.7676 4293.00
29.0718 955.00
29.3761 945.00
29.6804 1115.00
29.9846 798.00
30.2889 1018.00
30.5931 957.00
30.8974 2018.00
31.2017 1979.00
31.5059 849.00
31.8102 790.00
32.1144 1196.00
32.4187 707.00
32.723 753.00
33.0272 686.00
33.3315 686.00
33.6357 692.00
33.94 665.00
34.2443 728.00
34.5485 965.00
34.8528 752.00
35.157 670.00
35.4613 621.00
35.7656 675.00
36.0698 599.00
36.3741 769.00
36.6783 637.00
36.9826 684.00
37.2869 743.00
37.5911 608.00
37.8954 662.00
38.1996 578.00
38.5039 570.00
38.8082 550.00
39.1124 563.00
39.4167 645.00
39.7209 819.00
40.0252 643.00
40.3295 614.00
40.6337 660.00
40.938 776.00
41.2422 2022.00
41.5465 674.00
41.8508 623.00
42.155 608.00
42.4593 1513.00
42.7635 661.00
43.0678 643.00
43.3721 576.00
43.6763 555.00
43.9806 556.00
44.2849 506.00
44.5891 643.00
44.8934 805.00
45.1976 527.00
45.5019 533.00
45.8062 502.00
46.1104 566.00
46.4147 732.00
46.7189 530.00
47.0232 486.00
47.3275 539.00
47.6317 499.00
47.936 505.00
48.2402 499.00
48.5445 510.00
48.8488 628.00
49.153 850.00
49.4573 581.00
49.7615 604.00
50.0658 470.00
50.3701 526.00
50.6743 511.00
50.9786 1995.00
51.2828 568.00
51.5871 542.00
51.8914 506.00
52.1956 632.00
52.4999 540.00
52.8041 472.00
53.1084 803.00
53.4127 508.00
53.7169 527.00
54.0212 500.00
54.3254 530.00
54.6297 526.00
54.934 473.00
55.2382 490.00
55.5425 640.00
55.8467 617.00
56.151 536.00
56.4553 529.00
56.7595 703.00
57.0638 806.00
57.368 672.00
57.6723 458.00
57.9766 482.00
58.2808 447.00
58.5851 522.00
58.8893 574.00
59.1936 606.00
59.4979 484.00
59.8021 479.00
60.1064 542.00
60.4106 775.00
60.7149 1303.00
61.0192 659.00
61.3234 559.00
61.6277 632.00
61.932 658.00
62.2362 756.00
62.5405 635.00
62.8447 607.00
63.149 476.00
63.4533 597.00
63.7575 494.00
64.0618 480.00
64.366 588.00
64.6703 532.00
64.9745 478.00
65.2788 519.00
65.5831 588.00
65.8873 478.00
66.1916 588.00
66.4959 497.00
66.8001 484.00
67.1044 533.00
67.4086 1152.00
67.7129 582.00
68.0172 594.00
68.3214 902.00
68.6257 623.00
68.9299 637.00
69.2342 513.00
69.5385 513.00
69.8427 512.00
70.147 525.00
70.4512 476.00
70.7555 407.00
71.0598 523.00
71.364 463.00
71.6683 466.00
71.9725 438.00
72.2768 490.00
72.5811 462.00
72.8853 416.00
73.1896 456.00
73.4938 504.00
73.7981 457.00
74.1024 429.00
74.4066 530.00
74.7109 509.00
75.0151 500.00
75.3194 461.00
75.6237 409.00
75.9279 459.00
76.2322 469.00
76.5364 505.00
76.8407 573.00
77.145 505.00
77.4492 491.00
77.7535 481.00
78.0577 501.00
78.362 542.00
78.6663 490.00
78.9705 385.00
79.2748 453.00
79.579 408.00
79.8833 442.00
80.1876 470.00
80.4918 451.00
80.7961 486.00
81.1003 431.00
81.4046 426.00
81.7089 457.00
82.0131 482.00
82.3174 447.00
82.6217 454.00
82.9259 418.00
83.2302 441.00
83.5344 440.00
83.8387 491.00
84.143 522.00
84.4472 498.00
84.7515 458.00
85.0557 478.00
85.36 442.00
85.6643 453.00
85.9685 455.00
86.2728 567.00
86.577 534.00
86.8813 466.00
87.1856 557.00
87.4898 496.00
87.7941 455.00
88.0983 506.00
88.4026 524.00
88.7069 461.00
89.0111 457.00
89.3154 410.00
89.6196 412.00
89.9239 441.00
90.2282 424.00
90.5324 428.00
90.8367 453.00
91.1409 470.00
91.4452 445.00
91.7495 436.00
92.0537 421.00
92.358 465.00
92.6622 484.00
92.9665 426.00
93.2708 434.00
93.575 480.00
93.8793 452.00
94.1835 449.00
94.4878 393.00
94.7921 503.00
95.0963 479.00
95.4006 445.00
95.7048 433.00
96.0091 512.00
96.3134 501.00
96.6176 452.00
96.9219 540.00
97.2261 539.00
97.5304 507.00
97.8347 491.00
98.1389 396.00
98.4432 501.00
98.7474 457.00
99.0517 452.00
99.356 452.00
99.6602 429.00
99.9645 478.00
100.095 435.00

File: PG_2249-1.xy
9.903433 2482.00
10.2077 2386.00
10.512 2206.00
10.8162 2135.00
11.1205 2161.00
11.4247 2049.00
11.729 1815.00
12.0333 1889.00
12.3375 1774.00
12.6418 1966.00
12.946 1676.00
13.2503 1648.00
13.5546 1825.00
13.8588 1635.00
14.1631 1499.00
14.4673 1571.00
14.7716 1925.00
15.0759 1469.00
15.3801 1341.00
15.6844 1325.00
15.9886 1353.00
16.2929 1280.00
16.5972 1272.00
16.9014 1280.00
17.2057 1328.00
17.5099 1206.00
17.8142 1188.00
18.1185 1219.00
18.4227 1146.00
18.727 1083.00
19.0312 1138.00
19.3355 1142.00
19.6398 1123.00
19.944 1560.00
20.2483 1571.00
20.5525 1076.00
20.8568 1186.00
21.1611 2422.00
21.4653 3026.00
21.7696 1496.00
22.0738 1031.00
22.3781 1127.00
22.6824 1465.00
22.9866 1804.00
23.2909 5105.00
23.5951 4449.00
23.8994 13517.00
24.2037 2191.00
24.5079 4201.00
24.8122 4828.00
25.1164 2302.00
25.4207 1013.00
25.725 964.00
26.0292 1016.00
26.3335 1251.00
26.6378 1345.00
26.942 4169.00
27.2463 930.00
27.5505 950.00
27.8548 1403.00
28.1591 772.00
28.4633 771.00
28.7676 1322.00
29.0718 3068.00
29.3761 1505.00
29.6804 820.00
29.9846 840.00
30.2889 808.00
30.5931 834.00
30.8974 2622.00
31.2017 741.00
31.5059 644.00
31.8102 701.00
32.1144 1148.00
32.4187 702.00
32.723 943.00
33.0272 1037.00
33.3315 3512.00
33.6357 5777.00
33.94 3378.00
34.2443 3728.00
34.5485 7081.00
34.8528 1130.00
35.157 716.00
35.4613 756.00
35.7656 1546.00
36.0698 994.00
36.3741 765.00
36.6783 659.00
36.9826 874.00
37.2869 716.00
37.5911 623.00
37.8954 1348.00
38.1996 562.00
38.5039 882.00
38.8082 579.00
39.1124 593.00
39.4167 573.00
39.7209 1143.00
40.0252 631.00
40.3295 494.00
40.6337 569.00
40.938 742.00
41.2422 1138.00
41.5465 912.00
41.8508 2308.00
42.155 2099.00
42.4593 1018.00
42.7635 550.00
43.0678 632.00
43.3721 615.00
43.6763 490.00
43.9806 610.00
44.2849 535.00
44.5891 1203.00
44.8934 812.00
45.1976 1263.00
45.5019 1003.00
45.8062 1236.00
46.1104 905.00
46.4147 768.00
46.7189 487.00
47.0232 491.00
47.3275 666.00
47.6317 2207.00
47.936 795.00
48.2402 730.00
48.5445 2119.00
48.8488 709.00
49.153 827.00
49.4573 553.00
49.7615 656.00
50.0658 1598.00
50.3701 3281.00
50.6743 2363.00
50.9786 2112.00
51.2828 886.00
51.5871 948.00
51.8914 628.00
52.1956 582.00
52.4999 655.00
52.8041 783.00
53.1084 646.00
53.4127 902.00
53.7169 1963.00
54.0212 1072.00
54.3254 1628.00
54.6297 1642.00
54.934 1467.00
55.2382 1724.00
55.5425 1394.00
55.8467 2131.00
56.151 3770.00
56.4553 1724.00
56.7595 627.00
57.0638 567.00
57.368 466.00
57.6723 574.00
57.9766 825.00
58.2808 610.00
58.5851 509.00
58.8893 507.00
59.1936 709.00
59.4979 882.00
59.8021 796.00
60.1064 1002.00
60.4106 1374.00
60.7149 1195.00
61.0192 853.00
61.3234 1188.00
61.6277 1451.00
61.932 1333.00
62.2362 1472.00
62.5405 2302.00
62.8447 1007.00
63.149 812.00
63.4533 901.00
63.7575 1326.00
64.0618 554.00
64.366 438.00
64.6703 402.00
64.9745 494.00
65.2788 476.00
65.5831 486.00
65.8873 490.00
66.1916 495.00
66.4959 627.00
66.8001 905.00
67.1044 812.00
67.4086 860.00
67.7129 829.00
68.0172 842.00
68.3214 758.00
68.6257 439.00
68.9299 485.00
69.2342 543.00
69.5385 455.00
69.8427 533.00
70.147 732.00
70.4512 585.00
70.7555 615.00
71.0598 645.00
71.364 730.00
71.6683 752.00
71.9725 815.00
72.2768 1126.00
72.5811 623.00
72.8853 669.00
73.1896 569.00
73.4938 584.00
73.7981 648.00
74.1024 635.00
74.4066 496.00
74.7109 463.00
75.0151 514.00
75.3194 636.00
75.6237 709.00
75.9279 900.00
76.2322 826.00
76.5364 1231.00
76.8407 1374.00
77.145 1606.00
77.4492 942.00
77.7535 496.00
78.0577 529.00
78.362 458.00
78.6663 573.00
78.9705 622.00
79.2748 482.00
79.579 425.00
79.8833 486.00
80.1876 511.00
80.4918 587.00
80.7961 528.00
81.1003 679.00
81.4046 767.00
81.7089 846.00
82.0131 960.00
82.3174 680.00
82.6217 670.00
82.9259 642.00
83.2302 702.00
83.5344 863.00
83.8387 979.00
84.143 684.00
84.4472 570.00
84.7515 664.00
85.0557 684.00
85.36 652.00
85.6643 538.00
85.9685 643.00
86.2728 1021.00
86.577 1097.00
86.8813 688.00
87.1856 656.00
87.4898 1071.00
87.7941 951.00
88.0983 758.00
88.4026 742.00
88.7069 780.00
89.0111 564.00
89.3154 469.00
89.6196 434.00
89.9239 494.00
90.2282 505.00
90.5324 517.00
90.8367 514.00
91.1409 514.00
91.4452 540.00
91.7495 495.00
92.0537 700.00
92.358 673.00
92.6622 556.00
92.9665 425.00
93.2708 462.00
93.575 450.00
93.8793 531.00
94.1835 497.00
94.4878 463.00
94.7921 495.00
95.0963 488.00
95.4006 489.00
95.7048 600.00
96.0091 602.00
96.3134 685.00
96.6176 646.00
96.9219 562.00
97.2261 567.00
97.5304 518.00
97.8347 500.00
98.1389 491.00
98.4432 448.00
98.7474 391.00
99.0517 371.00
99.356 428.00
99.6602 434.00
99.9645 425.00
100.095 414.00