Folder: alab-pipeline/data/xrd_creation/results (part 36)

File: NSC_5.xy
9.903433 3092.00
10.2077 2982.00
10.512 2929.00
10.8162 2951.00
11.1205 2811.00
11.4247 2681.00
11.729 2637.00
12.0333 2544.00
12.3375 2470.00
12.6418 2327.00
12.946 2348.00
13.2503 2407.00
13.5546 2200.00
13.8588 2366.00
14.1631 3093.00
14.4673 3354.00
14.7716 2344.00
15.0759 2278.00
15.3801 2189.00
15.6844 2180.00
15.9886 2192.00
16.2929 2167.00
16.5972 2132.00
16.9014 2123.00
17.2057 2132.00
17.5099 2232.00
17.8142 2042.00
18.1185 2086.00
18.4227 2071.00
18.727 2003.00
19.0312 2018.00
19.3355 2106.00
19.6398 4088.00
19.944 4922.00
20.2483 2870.00
20.5525 12286.00
20.8568 2334.00
21.1611 2019.00
21.4653 2038.00
21.7696 2009.00
22.0738 2135.00
22.3781 1993.00
22.6824 1912.00
22.9866 1904.00
23.2909 2096.00
23.5951 6173.00
23.8994 3698.00
24.2037 2026.00
24.5079 2159.00
24.8122 2056.00
25.1164 1765.00
25.4207 1795.00
25.725 1726.00
26.0292 1752.00
26.3335 1773.00
26.6378 1747.00
26.942 1699.00
27.2463 1740.00
27.5505 1762.00
27.8548 1747.00
28.1591 1822.00
28.4633 7859.00
28.7676 2755.00
29.0718 1719.00
29.3761 1586.00
29.6804 1610.00
29.9846 1682.00
30.2889 1631.00
30.5931 1676.00
30.8974 1875.00
31.2017 2713.00
31.5059 11320.00
31.8102 3937.00
32.1144 1837.00
32.4187 1661.00
32.723 1591.00
33.0272 1687.00
33.3315 1521.00
33.6357 1728.00
33.94 1834.00
34.2443 1669.00
34.5485 2054.00
34.8528 1818.00
35.157 3110.00
35.4613 2700.00
35.7656 4906.00
36.0698 1667.00
36.3741 1572.00
36.6783 1505.00
36.9826 1405.00
37.2869 1426.00
37.5911 1396.00
37.8954 1395.00
38.1996 1393.00
38.5039 1410.00
38.8082 1434.00
39.1124 1517.00
39.4167 1393.00
39.7209 1762.00
40.0252 1600.00
40.3295 1393.00
40.6337 1360.00
40.938 1593.00
41.2422 1834.00
41.5465 2102.00
41.8508 1670.00
42.155 1579.00
42.4593 1404.00
42.7635 1408.00
43.0678 2455.00
43.3721 1604.00
43.6763 1370.00
43.9806 1515.00
44.2849 1291.00
44.5891 1458.00
44.8934 2142.00
45.1976 2812.00
45.5019 1469.00
45.8062 1589.00
46.1104 2704.00
46.4147 1535.00
46.7189 2131.00
47.0232 1487.00
47.3275 1290.00
47.6317 1598.00
47.936 2622.00
48.2402 3185.00
48.5445 1587.00
48.8488 1730.00
49.153 1531.00
49.4573 1569.00
49.7615 1605.00
50.0658 1348.00
50.3701 1658.00
50.6743 1704.00
50.9786 1794.00
51.2828 2607.00
51.5871 2647.00
51.8914 1892.00
52.1956 1471.00
52.4999 1341.00
52.8041 1380.00
53.1084 1282.00
53.4127 1297.00
53.7169 1351.00
54.0212 1410.00
54.3254 2466.00
54.6297 1545.00
54.934 1520.00
55.2382 2874.00
55.5425 4108.00
55.8467 2040.00
56.151 1466.00
56.4553 1473.00
56.7595 1537.00
57.0638 1439.00
57.368 1403.00
57.6723 1377.00
57.9766 1547.00
58.2808 1902.00
58.5851 1811.00
58.8893 1346.00
59.1936 1307.00
59.4979 1407.00
59.8021 2066.00
60.1064 2252.00
60.4106 1609.00
60.7149 1497.00
61.0192 2608.00
61.3234 1852.00
61.6277 1540.00
61.932 1549.00
62.2362 2007.00
62.5405 1841.00
62.8447 1434.00
63.149 1725.00
63.4533 1860.00
63.7575 1908.00
64.0618 1696.00
64.366 1304.00
64.6703 1382.00
64.9745 1413.00
65.2788 1494.00
65.5831 1415.00
65.8873 1538.00
66.1916 2046.00
66.4959 1482.00
66.8001 1230.00
67.1044 1443.00
67.4086 1512.00
67.7129 1648.00
68.0172 1412.00
68.3214 1256.00
68.6257 1284.00
68.9299 1576.00
69.2342 1394.00
69.5385 1186.00
69.8427 1305.00
70.147 1301.00
70.4512 1285.00
70.7555 1492.00
71.0598 1889.00
71.364 1554.00
71.6683 1252.00
71.9725 1302.00
72.2768 1317.00
72.5811 1198.00
72.8853 1215.00
73.1896 1251.00
73.4938 1501.00
73.7981 1615.00
74.1024 1432.00
74.4066 1299.00
74.7109 1466.00
75.0151 1736.00
75.3194 1610.00
75.6237 1485.00
75.9279 1239.00
76.2322 1248.00
76.5364 1302.00
76.8407 1323.00
77.145 1316.00
77.4492 1276.00
77.7535 1311.00
78.0577 1188.00
78.362 1442.00
78.6663 1636.00
78.9705 1502.00
79.2748 1394.00
79.579 1289.00
79.8833 1283.00
80.1876 1215.00
80.4918 1299.00
80.7961 1578.00
81.1003 1479.00
81.4046 1222.00
81.7089 1218.00
82.0131 1180.00
82.3174 1247.00
82.6217 1287.00
82.9259 1283.00
83.2302 1625.00
83.5344 1592.00
83.8387 1316.00
84.143 1314.00
84.4472 1448.00
84.7515 1489.00
85.0557 1412.00
85.36 1419.00
85.6643 1343.00
85.9685 1436.00
86.2728 1338.00
86.577 1275.00
86.8813 1311.00
87.1856 1172.00
87.4898 1285.00
87.7941 1313.00
88.0983 1324.00
88.4026 1334.00
88.7069 1346.00
89.0111 1447.00
89.3154 1772.00
89.6196 1439.00
89.9239 1344.00
90.2282 1264.00
90.5324 1242.00
90.8367 1222.00
91.1409 1276.00
91.4452 1445.00
91.7495 1370.00
92.0537 1233.00
92.358 1266.00
92.6622 1232.00
92.9665 1202.00
93.2708 1285.00
93.575 1269.00
93.8793 1377.00
94.1835 1374.00
94.4878 1220.00
94.7921 1456.00
95.0963 1417.00
95.4006 1337.00
95.7048 1436.00
96.0091 1498.00
96.3134 1510.00
96.6176 1389.00
96.9219 1300.00
97.2261 1334.00
97.5304 1204.00
97.8347 1234.00
98.1389 1121.00
98.4432 1220.00
98.7474 1400.00
99.0517 1366.00
99.356 1374.00
99.6602 1429.00
99.9645 1535.00
100.095 1419.00

File: NSC_6.xy
9.903433 3142.00
10.2077 2936.00
10.512 2786.00
10.8162 2758.00
11.1205 2635.00
11.4247 2577.00
11.729 2614.00
12.0333 2441.00
12.3375 2411.00
12.6418 2484.00
12.946 2328.00
13.2503 2305.00
13.5546 2263.00
13.8588 2399.00
14.1631 3652.00
14.4673 2327.00
14.7716 2271.00
15.0759 2165.00
15.3801 2171.00
15.6844 2174.00
15.9886 2254.00
16.2929 2132.00
16.5972 2151.00
16.9014 2158.00
17.2057 2203.00
17.5099 2131.00
17.8142 2130.00
18.1185 2090.00
18.4227 2089.00
18.727 2070.00
19.0312 2237.00
19.3355 2624.00
19.6398 7315.00
19.944 2882.00
20.2483 5460.00
20.5525 4081.00
20.8568 2244.00
21.1611 2055.00
21.4653 2027.00
21.7696 2033.00
22.0738 2080.00
22.3781 2046.00
22.6824 2121.00
22.9866 1999.00
23.2909 2890.00
23.5951 10850.00
23.8994 2257.00
24.2037 2443.00
24.5079 2258.00
24.8122 2151.00
25.1164 1923.00
25.4207 1828.00
25.725 1846.00
26.0292 1844.00
26.3335 1894.00
26.6378 1982.00
26.942 1813.00
27.2463 1757.00
27.5505 1838.00
27.8548 2055.00
28.1591 3049.00
28.4633 9157.00
28.7676 2265.00
29.0718 1822.00
29.3761 1732.00
29.6804 1712.00
29.9846 1675.00
30.2889 1754.00
30.5931 1849.00
30.8974 2117.00
31.2017 6848.00
31.5059 4955.00
31.8102 3839.00
32.1144 1864.00
32.4187 1729.00
32.723 1646.00
33.0272 2004.00
33.3315 1965.00
33.6357 1893.00
33.94 1754.00
34.2443 2149.00
34.5485 2161.00
34.8528 2255.00
35.157 3342.00
35.4613 5177.00
35.7656 2319.00
36.0698 1695.00
36.3741 1535.00
36.6783 1524.00
36.9826 1465.00
37.2869 1442.00
37.5911 1542.00
37.8954 1479.00
38.1996 1469.00
38.5039 1426.00
38.8082 1832.00
39.1124 1552.00
39.4167 1546.00
39.7209 1804.00
40.0252 1426.00
40.3295 1396.00
40.6337 1432.00
40.938 1991.00
41.2422 2288.00
41.5465 1905.00
41.8508 1582.00
42.155 1543.00
42.4593 1369.00
42.7635 1562.00
43.0678 2257.00
43.3721 1430.00
43.6763 1677.00
43.9806 1489.00
44.2849 1443.00
44.5891 1548.00
44.8934 2934.00
45.1976 1850.00
45.5019 1602.00
45.8062 2008.00
46.1104 2065.00
46.4147 1763.00
46.7189 1841.00
47.0232 1397.00
47.3275 1462.00
47.6317 1891.00
47.936 3849.00
48.2402 1839.00
48.5445 1767.00
48.8488 1512.00
49.153 1554.00
49.4573 2099.00
49.7615 1670.00
50.0658 1529.00
50.3701 2283.00
50.6743 1963.00
50.9786 2080.00
51.2828 3121.00
51.5871 2014.00
51.8914 1578.00
52.1956 1316.00
52.4999 1324.00
52.8041 1339.00
53.1084 1336.00
53.4127 1298.00
53.7169 1449.00
54.0212 1845.00
54.3254 2202.00
54.6297 1523.00
54.934 2044.00
55.2382 3176.00
55.5425 3155.00
55.8467 1884.00
56.151 1733.00
56.4553 1521.00
56.7595 1507.00
57.0638 1495.00
57.368 1535.00
57.6723 1548.00
57.9766 1684.00
58.2808 1859.00
58.5851 1652.00
58.8893 1483.00
59.1936 1359.00
59.4979 1489.00
59.8021 2386.00
60.1064 2112.00
60.4106 1573.00
60.7149 1851.00
61.0192 2266.00
61.3234 1642.00
61.6277 1568.00
61.932 1700.00
62.2362 1911.00
62.5405 1673.00
62.8447 1678.00
63.149 1966.00
63.4533 2022.00
63.7575 1832.00
64.0618 1407.00
64.366 1413.00
64.6703 1374.00
64.9745 1447.00
65.2788 1392.00
65.5831 1494.00
65.8873 1900.00
66.1916 1762.00
66.4959 1361.00
66.8001 1309.00
67.1044 1490.00
67.4086 1474.00
67.7129 1497.00
68.0172 1320.00
68.3214 1424.00
68.6257 1524.00
68.9299 1345.00
69.2342 1287.00
69.5385 1302.00
69.8427 1299.00
70.147 1198.00
70.4512 1320.00
70.7555 1594.00
71.0598 1687.00
71.364 1398.00
71.6683 1322.00
71.9725 1258.00
72.2768 1229.00
72.5811 1227.00
72.8853 1234.00
73.1896 1313.00
73.4938 1500.00
73.7981 1432.00
74.1024 1273.00
74.4066 1265.00
74.7109 1658.00
75.0151 1768.00
75.3194 1554.00
75.6237 1381.00
75.9279 1234.00
76.2322 1199.00
76.5364 1293.00
76.8407 1320.00
77.145 1329.00
77.4492 1241.00
77.7535 1235.00
78.0577 1340.00
78.362 1528.00
78.6663 1513.00
78.9705 1440.00
79.2748 1336.00
79.579 1298.00
79.8833 1225.00
80.1876 1244.00
80.4918 1301.00
80.7961 1399.00
81.1003 1257.00
81.4046 1207.00
81.7089 1198.00
82.0131 1170.00
82.3174 1253.00
82.6217 1302.00
82.9259 1350.00
83.2302 1539.00
83.5344 1434.00
83.8387 1300.00
84.143 1260.00
84.4472 1426.00
84.7515 1462.00
85.0557 1379.00
85.36 1316.00
85.6643 1283.00
85.9685 1325.00
86.2728 1303.00
86.577 1321.00
86.8813 1161.00
87.1856 1267.00
87.4898 1248.00
87.7941 1358.00
88.0983 1386.00
88.4026 1379.00
88.7069 1418.00
89.0111 1577.00
89.3154 1565.00
89.6196 1400.00
89.9239 1341.00
90.2282 1220.00
90.5324 1190.00
90.8367 1205.00
91.1409 1377.00
91.4452 1303.00
91.7495 1207.00
92.0537 1277.00
92.358 1247.00
92.6622 1250.00
92.9665 1193.00
93.2708 1195.00
93.575 1389.00
93.8793 1380.00
94.1835 1281.00
94.4878 1337.00
94.7921 1400.00
95.0963 1350.00
95.4006 1338.00
95.7048 1387.00
96.0091 1402.00
96.3134 1381.00
96.6176 1329.00
96.9219 1315.00
97.2261 1258.00
97.5304 1200.00
97.8347 1240.00
98.1389 1148.00
98.4432 1366.00
98.7474 1419.00
99.0517 1372.00
99.356 1483.00
99.6602 1404.00
99.9645 1330.00
100.095 1442.00

File: NSC_8.xy
9.903433 2861.00
10.2077 2789.00
10.512 2649.00
10.8162 2702.00
11.1205 2574.00
11.4247 2425.00
11.729 2426.00
12.0333 2323.00
12.3375 2317.00
12.6418 2188.00
12.946 2281.00
13.2503 2090.00
13.5546 2028.00
13.8588 2058.00
14.1631 2025.00
14.4673 2132.00
14.7716 2153.00
15.0759 1965.00
15.3801 1955.00
15.6844 1924.00
15.9886 1899.00
16.2929 1923.00
16.5972 1896.00
16.9014 1931.00
17.2057 1942.00
17.5099 1907.00
17.8142 1914.00
18.1185 1828.00
18.4227 1696.00
18.727 1671.00
19.0312 1631.00
19.3355 1663.00
19.6398 1639.00
19.944 1603.00
20.2483 1629.00
20.5525 1729.00
20.8568 1643.00
21.1611 1625.00
21.4653 1749.00
21.7696 1626.00
22.0738 1572.00
22.3781 2068.00
22.6824 1558.00
22.9866 1522.00
23.2909 1576.00
23.5951 1752.00
23.8994 2279.00
24.2037 2097.00
24.5079 2131.00
24.8122 1558.00
25.1164 1518.00
25.4207 1895.00
25.725 1497.00
26.0292 1429.00
26.3335 1378.00
26.6378 1440.00
26.942 1466.00
27.2463 1431.00
27.5505 1607.00
27.8548 2318.00
28.1591 8702.00
28.4633 2112.00
28.7676 1583.00
29.0718 1607.00
29.3761 1622.00
29.6804 1564.00
29.9846 1870.00
30.2889 1480.00
30.5931 1440.00
30.8974 1480.00
31.2017 2430.00
31.5059 5481.00
31.8102 1528.00
32.1144 1240.00
32.4187 1301.00
32.723 1369.00
33.0272 1333.00
33.3315 1242.00
33.6357 1412.00
33.94 2005.00
34.2443 2667.00
34.5485 1905.00
34.8528 1448.00
35.157 3887.00
35.4613 1546.00
35.7656 1327.00
36.0698 1097.00
36.3741 1111.00
36.6783 1113.00
36.9826 1557.00
37.2869 1156.00
37.5911 1266.00
37.8954 1514.00
38.1996 1099.00
38.5039 1506.00
38.8082 1104.00
39.1124 963.00
39.4167 1032.00
39.7209 1034.00
40.0252 1127.00
40.3295 1069.00
40.6337 1843.00
40.938 1370.00
41.2422 1509.00
41.5465 1464.00
41.8508 972.00
42.155 913.00
42.4593 916.00
42.7635 844.00
43.0678 1064.00
43.3721 1799.00
43.6763 966.00
43.9806 911.00
44.2849 910.00
44.5891 1048.00
44.8934 1379.00
45.1976 960.00
45.5019 1396.00
45.8062 962.00
46.1104 923.00
46.4147 960.00
46.7189 911.00
47.0232 854.00
47.3275 815.00
47.6317 948.00
47.936 912.00
48.2402 1004.00
48.5445 920.00
48.8488 1128.00
49.153 2059.00
49.4573 1497.00
49.7615 1147.00
50.0658 2700.00
50.3701 1716.00
50.6743 1697.00
50.9786 945.00
51.2828 1169.00
51.5871 918.00
51.8914 866.00
52.1956 915.00
52.4999 1300.00
52.8041 832.00
53.1084 851.00
53.4127 881.00
53.7169 960.00
54.0212 1634.00
54.3254 1028.00
54.6297 988.00
54.934 854.00
55.2382 1707.00
55.5425 1737.00
55.8467 1478.00
56.151 1015.00
56.4553 873.00
56.7595 861.00
57.0638 1403.00
57.368 2140.00
57.6723 1380.00
57.9766 1198.00
58.2808 1165.00
58.5851 856.00
58.8893 815.00
59.1936 871.00
59.4979 982.00
59.8021 1553.00
60.1064 1291.00
60.4106 881.00
60.7149 819.00
61.0192 880.00
61.3234 1454.00
61.6277 979.00
61.932 1231.00
62.2362 898.00
62.5405 965.00
62.8447 1418.00
63.149 888.00
63.4533 791.00
63.7575 816.00
64.0618 917.00
64.366 937.00
64.6703 777.00
64.9745 804.00
65.2788 913.00
65.5831 1244.00
65.8873 1150.00
66.1916 801.00
66.4959 991.00
66.8001 659.00
67.1044 687.00
67.4086 648.00
67.7129 693.00
68.0172 767.00
68.3214 1018.00
68.6257 707.00
68.9299 779.00
69.2342 713.00
69.5385 762.00
69.8427 690.00
70.147 662.00
70.4512 721.00
70.7555 700.00
71.0598 948.00
71.364 927.00
71.6683 734.00
71.9725 738.00
72.2768 836.00
72.5811 758.00
72.8853 729.00
73.1896 667.00
73.4938 693.00
73.7981 641.00
74.1024 641.00
74.4066 647.00
74.7109 753.00
75.0151 851.00
75.3194 846.00
75.6237 688.00
75.9279 693.00
76.2322 738.00
76.5364 795.00
76.8407 2534.00
77.145 1287.00
77.4492 903.00
77.7535 678.00
78.0577 663.00
78.362 636.00
78.6663 668.00
78.9705 774.00
79.2748 710.00
79.579 631.00
79.8833 596.00
80.1876 650.00
80.4918 670.00
80.7961 668.00
81.1003 675.00
81.4046 715.00
81.7089 711.00
82.0131 717.00
82.3174 697.00
82.6217 749.00
82.9259 727.00
83.2302 830.00
83.5344 722.00
83.8387 836.00
84.143 818.00
84.4472 713.00
84.7515 689.00
85.0557 663.00
85.36 632.00
85.6643 612.00
85.9685 633.00
86.2728 741.00
86.577 666.00
86.8813 616.00
87.1856 647.00
87.4898 741.00
87.7941 704.00
88.0983 778.00
88.4026 847.00
88.7069 729.00
89.0111 904.00
89.3154 707.00
89.6196 692.00
89.9239 780.00
90.2282 645.00
90.5324 713.00
90.8367 678.00
91.1409 722.00
91.4452 684.00
91.7495 595.00
92.0537 579.00
92.358 533.00
92.6622 525.00
92.9665 590.00
93.2708 618.00
93.575 658.00
93.8793 676.00
94.1835 624.00
94.4878 586.00
94.7921 690.00
95.0963 720.00
95.4006 755.00
95.7048 635.00
96.0091 696.00
96.3134 747.00
96.6176 786.00
96.9219 840.00
97.2261 705.00
97.5304 609.00
97.8347 636.00
98.1389 661.00
98.4432 622.00
98.7474 771.00
99.0517 722.00
99.356 790.00
99.6602 719.00
99.9645 654.00
100.095 637.00

File: NSC_9.xy
9.903433 2597.00
10.2077 2632.00
10.512 2426.00
10.8162 2384.00
11.1205 2152.00
11.4247 2162.00
11.729 2124.00
12.0333 1984.00
12.3375 1934.00
12.6418 1985.00
12.946 1793.00
13.2503 1838.00
13.5546 1788.00
13.8588 1721.00
14.1631 1658.00
14.4673 1695.00
14.7716 2058.00
15.0759 2824.00
15.3801 1523.00
15.6844 1542.00
15.9886 1547.00
16.2929 1482.00
16.5972 1450.00
16.9014 1369.00
17.2057 1478.00
17.5099 1583.00
17.8142 1354.00
18.1185 1377.00
18.4227 1488.00
18.727 1709.00
19.0312 1374.00
19.3355 1231.00
19.6398 1367.00
19.944 1379.00
20.2483 1774.00
20.5525 4373.00
20.8568 5412.00
21.1611 1636.00
21.4653 2541.00
21.7696 6345.00
22.0738 4956.00
22.3781 1448.00
22.6824 1275.00
22.9866 1226.00
23.2909 1265.00
23.5951 1367.00
23.8994 1246.00
24.2037 1684.00
24.5079 1550.00
24.8122 1799.00
25.1164 6107.00
25.4207 4126.00
25.725 3618.00
26.0292 8645.00
26.3335 2085.00
26.6378 1826.00
26.942 1327.00
27.2463 1170.00
27.5505 1034.00
27.8548 1030.00
28.1591 1148.00
28.4633 1229.00
28.7676 1140.00
29.0718 1022.00
29.3761 1100.00
29.6804 1084.00
29.9846 1384.00
30.2889 4065.00
30.5931 2813.00
30.8974 1513.00
31.2017 1237.00
31.5059 1217.00
31.8102 960.00
32.1144 921.00
32.4187 1005.00
32.723 1063.00
33.0272 2501.00
33.3315 7393.00
33.6357 1889.00
33.94 1807.00
34.2443 1282.00
34.5485 983.00
34.8528 998.00
35.157 944.00
35.4613 1062.00
35.7656 1418.00
36.0698 2047.00
36.3741 1616.00
36.6783 1062.00
36.9826 897.00
37.2869 948.00
37.5911 1415.00
37.8954 2187.00
38.1996 3502.00
38.5039 3240.00
38.8082 1087.00
39.1124 930.00
39.4167 1557.00
39.7209 1474.00
40.0252 865.00
40.3295 1032.00
40.6337 1216.00
40.938 874.00
41.2422 833.00
41.5465 1082.00
41.8508 2203.00
42.155 1303.00
42.4593 1020.00
42.7635 795.00
43.0678 756.00
43.3721 790.00
43.6763 913.00
43.9806 1350.00
44.2849 905.00
44.5891 1003.00
44.8934 1058.00
45.1976 1059.00
45.5019 787.00
45.8062 792.00
46.1104 1223.00
46.4147 1493.00
46.7189 871.00
47.0232 826.00
47.3275 964.00
47.6317 917.00
47.936 1563.00
48.2402 2132.00
48.5445 1722.00
48.8488 1910.00
49.153 954.00
49.4573 1502.00
49.7615 2250.00
50.0658 1117.00
50.3701 816.00
50.6743 946.00
50.9786 1014.00
51.2828 978.00
51.5871 2058.00
51.8914 2346.00
52.1956 914.00
52.4999 831.00
52.8041 1006.00
53.1084 1016.00
53.4127 1236.00
53.7169 911.00
54.0212 746.00
54.3254 842.00
54.6297 1399.00
54.934 2150.00
55.2382 1038.00
55.5425 868.00
55.8467 1145.00
56.151 964.00
56.4553 831.00
56.7595 782.00
57.0638 744.00
57.368 819.00
57.6723 692.00
57.9766 836.00
58.2808 1539.00
58.5851 1965.00
58.8893 2061.00
59.1936 1171.00
59.4979 1017.00
59.8021 1685.00
60.1064 1778.00
60.4106 2056.00
60.7149 1040.00
61.0192 749.00
61.3234 948.00
61.6277 1341.00
61.932 1340.00
62.2362 850.00
62.5405 731.00
62.8447 773.00
63.149 1074.00
63.4533 861.00
63.7575 722.00
64.0618 984.00
64.366 1648.00
64.6703 1259.00
64.9745 873.00
65.2788 1089.00
65.5831 1272.00
65.8873 2203.00
66.1916 3269.00
66.4959 1999.00
66.8001 1092.00
67.1044 1337.00
67.4086 972.00
67.7129 840.00
68.0172 826.00
68.3214 821.00
68.6257 951.00
68.9299 1369.00
69.2342 1535.00
69.5385 1393.00
69.8427 953.00
70.147 1059.00
70.4512 1263.00
70.7555 1325.00
71.0598 1005.00
71.364 718.00
71.6683 641.00
71.9725 656.00
72.2768 646.00
72.5811 681.00
72.8853 740.00
73.1896 983.00
73.4938 1050.00
73.7981 982.00
74.1024 838.00
74.4066 671.00
74.7109 740.00
75.0151 863.00
75.3194 802.00
75.6237 721.00
75.9279 662.00
76.2322 741.00
76.5364 754.00
76.8407 689.00
77.145 766.00
77.4492 1172.00
77.7535 1312.00
78.0577 1015.00
78.362 811.00
78.6663 812.00
78.9705 868.00
79.2748 1036.00
79.579 940.00
79.8833 1022.00
80.1876 985.00
80.4918 766.00
80.7961 671.00
81.1003 602.00
81.4046 684.00
81.7089 676.00
82.0131 838.00
82.3174 962.00
82.6217 836.00
82.9259 691.00
83.2302 670.00
83.5344 674.00
83.8387 702.00
84.143 786.00
84.4472 766.00
84.7515 729.00
85.0557 703.00
85.36 677.00
85.6643 678.00
85.9685 734.00
86.2728 806.00
86.577 803.00
86.8813 719.00
87.1856 785.00
87.4898 926.00
87.7941 904.00
88.0983 697.00
88.4026 653.00
88.7069 732.00
89.0111 688.00
89.3154 670.00
89.6196 636.00
89.9239 736.00
90.2282 678.00
90.5324 624.00
90.8367 634.00
91.1409 673.00
91.4452 821.00
91.7495 888.00
92.0537 834.00
92.358 1014.00
92.6622 1139.00
92.9665 1170.00
93.2708 898.00
93.575 723.00
93.8793 653.00
94.1835 628.00
94.4878 670.00
94.7921 687.00
95.0963 641.00
95.4006 651.00
95.7048 771.00
96.0091 789.00
96.3134 682.00
96.6176 715.00
96.9219 675.00
97.2261 667.00
97.5304 625.00
97.8347 655.00
98.1389 792.00
98.4432 853.00
98.7474 805.00
99.0517 770.00
99.356 903.00
99.6602 910.00
99.9645 881.00
100.095 868.00

File: NSC_10.xy
9.903433 2714.00
10.2077 2683.00
10.512 2543.00
10.8162 2379.00
11.1205 2382.00
11.4247 2257.00
11.729 2253.00
12.0333 2227.00
12.3375 2120.00
12.6418 2027.00
12.946 2017.00
13.2503 1925.00
13.5546 1883.00
13.8588 1983.00
14.1631 2008.00
14.4673 2023.00
14.7716 1855.00
15.0759 2562.00
15.3801 2318.00
15.6844 1782.00
15.9886 1682.00
16.2929 1627.00
16.5972 1616.00
16.9014 1612.00
17.2057 1649.00
17.5099 1806.00
17.8142 1613.00
18.1185 1638.00
18.4227 1679.00
18.727 2058.00
19.0312 1827.00
19.3355 1664.00
19.6398 2584.00
19.944 2731.00
20.2483 2183.00
20.5525 4956.00
20.8568 5353.00
21.1611 2068.00
21.4653 2449.00
21.7696 7124.00
22.0738 7009.00
22.3781 1737.00
22.6824 1452.00
22.9866 1510.00
23.2909 1662.00
23.5951 2933.00
23.8994 3175.00
24.2037 2065.00
24.5079 2115.00
24.8122 1579.00
25.1164 3142.00
25.4207 6728.00
25.725 1805.00
26.0292 2710.00
26.3335 2867.00
26.6378 2507.00
26.942 1513.00
27.2463 1259.00
27.5505 1375.00
27.8548 1344.00
28.1591 1530.00
28.4633 2615.00
28.7676 2102.00
29.0718 1198.00
29.3761 1229.00
29.6804 1190.00
29.9846 1478.00
30.2889 2633.00
30.5931 3740.00
30.8974 2978.00
31.2017 1874.00
31.5059 4101.00
31.8102 1998.00
32.1144 1196.00
32.4187 1186.00
32.723 1327.00
33.0272 1752.00
33.3315 5636.00
33.6357 2343.00
33.94 1789.00
34.2443 1644.00
34.5485 1238.00
34.8528 1232.00
35.157 1394.00
35.4613 1985.00
35.7656 2354.00
36.0698 1961.00
36.3741 3248.00
36.6783 1161.00
36.9826 1076.00
37.2869 1069.00
37.5911 1281.00
37.8954 1902.00
38.1996 1818.00
38.5039 3088.00
38.8082 1234.00
39.1124 1058.00
39.4167 1097.00
39.7209 1576.00
40.0252 1204.00
40.3295 1084.00
40.6337 1288.00
40.938 1097.00
41.2422 1111.00
41.5465 1249.00
41.8508 1444.00
42.155 1359.00
42.4593 1210.00
42.7635 972.00
43.0678 1085.00
43.3721 1283.00
43.6763 1222.00
43.9806 1482.00
44.2849 1063.00
44.5891 1148.00
44.8934 1254.00
45.1976 1626.00
45.5019 1415.00
45.8062 972.00
46.1104 1323.00
46.4147 1745.00
46.7189 1199.00
47.0232 1288.00
47.3275 1048.00
47.6317 1028.00
47.936 1515.00
48.2402 2983.00
48.5445 1765.00
48.8488 1380.00
49.153 1178.00
49.4573 1749.00
49.7615 2359.00
50.0658 1155.00
50.3701 1031.00
50.6743 1137.00
50.9786 1264.00
51.2828 1246.00
51.5871 2384.00
51.8914 2276.00
52.1956 1206.00
52.4999 1024.00
52.8041 1113.00
53.1084 943.00
53.4127 999.00
53.7169 1023.00
54.0212 952.00
54.3254 1090.00
54.6297 2069.00
54.934 2122.00
55.2382 1267.00
55.5425 1578.00
55.8467 1835.00
56.151 1246.00
56.4553 954.00
56.7595 881.00
57.0638 973.00
57.368 1047.00
57.6723 945.00
57.9766 1073.00
58.2808 2387.00
58.5851 1733.00
58.8893 1424.00
59.1936 1225.00
59.4979 1113.00
59.8021 1721.00
60.1064 1947.00
60.4106 2011.00
60.7149 1192.00
61.0192 1117.00
61.3234 1432.00
61.6277 1528.00
61.932 1344.00
62.2362 1015.00
62.5405 1036.00
62.8447 1137.00
63.149 1252.00
63.4533 982.00
63.7575 1099.00
64.0618 1625.00
64.366 1809.00
64.6703 1239.00
64.9745 1021.00
65.2788 1127.00
65.5831 1188.00
65.8873 1470.00
66.1916 2524.00
66.4959 1688.00
66.8001 1140.00
67.1044 1150.00
67.4086 1187.00
67.7129 1097.00
68.0172 1093.00
68.3214 1266.00
68.6257 1264.00
68.9299 1389.00
69.2342 1396.00
69.5385 1336.00
69.8427 998.00
70.147 993.00
70.4512 1328.00
70.7555 1283.00
71.0598 989.00
71.364 977.00
71.6683 984.00
71.9725 884.00
72.2768 870.00
72.5811 880.00
72.8853 1014.00
73.1896 1106.00
73.4938 949.00
73.7981 924.00
74.1024 1013.00
74.4066 944.00
74.7109 985.00
75.0151 1089.00
75.3194 1009.00
75.6237 1103.00
75.9279 1082.00
76.2322 943.00
76.5364 948.00
76.8407 938.00
77.145 868.00
77.4492 1214.00
77.7535 1195.00
78.0577 910.00
78.362 866.00
78.6663 925.00
78.9705 1147.00
79.2748 1149.00
79.579 1062.00
79.8833 1018.00
80.1876 972.00
80.4918 897.00
80.7961 808.00
81.1003 775.00
81.4046 798.00
81.7089 914.00
82.0131 1053.00
82.3174 1030.00
82.6217 867.00
82.9259 848.00
83.2302 910.00
83.5344 922.00
83.8387 966.00
84.143 986.00
84.4472 916.00
84.7515 1030.00
85.0557 927.00
85.36 901.00
85.6643 989.00
85.9685 1002.00
86.2728 977.00
86.577 945.00
86.8813 941.00
87.1856 1031.00
87.4898 1028.00
87.7941 940.00
88.0983 806.00
88.4026 823.00
88.7069 958.00
89.0111 923.00
89.3154 837.00
89.6196 865.00
89.9239 941.00
90.2282 943.00
90.5324 894.00
90.8367 859.00
91.1409 926.00
91.4452 957.00
91.7495 1120.00
92.0537 1098.00
92.358 1114.00
92.6622 1155.00
92.9665 1079.00
93.2708 931.00
93.575 843.00
93.8793 836.00
94.1835 835.00
94.4878 912.00
94.7921 851.00
95.0963 865.00
95.4006 922.00
95.7048 939.00
96.0091 974.00
96.3134 867.00
96.6176 838.00
96.9219 853.00
97.2261 939.00
97.5304 919.00
97.8347 878.00
98.1389 930.00
98.4432 930.00
98.7474 834.00
99.0517 856.00
99.356 963.00
99.6602 965.00
99.9645 997.00
100.095 1015.00