Folder: alab-pipeline/data/xrd_creation/results (part 78)

File: PG_1021-1.xy
10.0094 2394.00
10.3137 2346.00
10.618 2348.00
10.9222 2124.00
11.2265 2200.00
11.5307 2014.00
11.835 1945.00
12.1393 1914.00
12.4435 1797.00
12.7478 1788.00
13.052 1782.00
13.3563 1755.00
13.6606 1748.00
13.9648 1692.00
14.2691 1578.00
14.5733 1660.00
14.8776 1587.00
15.1819 1657.00
15.4861 2006.00
15.7904 4836.00
16.0946 4189.00
16.3989 1840.00
16.7032 1533.00
17.0074 1500.00
17.3117 1489.00
17.6159 1377.00
17.9202 1446.00
18.2245 1348.00
18.5287 1368.00
18.833 1290.00
19.1372 1319.00
19.4415 1285.00
19.7458 1277.00
20.05 1280.00
20.3543 1231.00
20.6585 1255.00
20.9628 1191.00
21.2671 1168.00
21.5713 1206.00
21.8756 1143.00
22.1798 1183.00
22.4841 1090.00
22.7884 1118.00
23.0926 1080.00
23.3969 1055.00
23.7011 1034.00
24.0054 1019.00
24.3097 1046.00
24.6139 1239.00
24.9182 1480.00
25.2224 1018.00
25.5267 1070.00
25.831 983.00
26.1352 952.00
26.4395 957.00
26.7438 1038.00
27.048 1223.00
27.3523 2450.00
27.6565 5891.00
27.9608 2282.00
28.2651 9225.00
28.5693 1992.00
28.8736 1133.00
29.1778 1017.00
29.4821 905.00
29.7864 884.00
30.0906 882.00
30.3949 854.00
30.6991 853.00
31.0034 857.00
31.3077 866.00
31.6119 1071.00
31.9162 2198.00
32.2204 984.00
32.5247 812.00
32.829 797.00
33.1332 747.00
33.4375 748.00
33.7417 990.00
34.046 1312.00
34.3503 712.00
34.6545 672.00
34.9588 759.00
35.263 746.00
35.5673 733.00
35.8716 757.00
36.1758 1095.00
36.4801 2500.00
36.7843 789.00
37.0886 677.00
37.3929 658.00
37.6971 658.00
38.0014 676.00
38.3056 678.00
38.6099 728.00
38.9142 704.00
39.2184 891.00
39.5227 1907.00
39.8269 5592.00
40.1312 1418.00
40.4355 804.00
40.7397 685.00
41.044 691.00
41.3482 643.00
41.6525 772.00
41.9568 823.00
42.261 892.00
42.5653 1411.00
42.8695 806.00
43.1738 581.00
43.4781 623.00
43.7823 609.00
44.0866 605.00
44.3909 589.00
44.6951 647.00
44.9994 566.00
45.3036 596.00
45.6079 579.00
45.9122 580.00
46.2164 617.00
46.5207 601.00
46.8249 621.00
47.1292 776.00
47.4335 1451.00
47.7377 778.00
48.042 871.00
48.3462 1795.00
48.6505 2767.00
48.9548 4866.00
49.259 1615.00
49.5633 778.00
49.8675 735.00
50.1718 1128.00
50.4761 1379.00
50.7803 634.00
51.0846 637.00
51.3888 569.00
51.6931 552.00
51.9974 505.00
52.3016 551.00
52.6059 519.00
52.9101 558.00
53.2144 517.00
53.5187 572.00
53.8229 557.00
54.1272 490.00
54.4314 542.00
54.7357 593.00
55.04 1309.00
55.3442 1278.00
55.6485 1598.00
55.9527 772.00
56.257 751.00
56.5613 1115.00
56.8655 678.00
57.1698 535.00
57.474 552.00
57.7783 562.00
58.0826 773.00
58.3868 637.00
58.6911 712.00
58.9953 801.00
59.2996 678.00
59.6039 487.00
59.9081 465.00
60.2124 512.00
60.5166 477.00
60.8209 476.00
61.1252 477.00
61.4294 450.00
61.7337 472.00
62.0379 479.00
62.3422 439.00
62.6465 494.00
62.9507 511.00
63.255 512.00
63.5592 604.00
63.8635 909.00
64.1678 1237.00
64.472 1196.00
64.7763 663.00
65.0806 713.00
65.3848 1421.00
65.6891 690.00
65.9933 589.00
66.2976 611.00
66.6019 542.00
66.9061 504.00
67.2104 461.00
67.5146 510.00
67.8189 450.00
68.1232 449.00
68.4274 409.00
68.7317 477.00
69.0359 506.00
69.3402 515.00
69.6445 671.00
69.9487 1174.00
70.253 743.00
70.5572 554.00
70.8615 622.00
71.1658 681.00
71.47 578.00
71.7743 513.00
72.0785 490.00
72.3828 497.00
72.6871 508.00
72.9913 614.00
73.2956 656.00
73.5998 523.00
73.9041 448.00
74.2084 474.00
74.5126 485.00
74.8169 410.00
75.1211 475.00
75.4254 481.00
75.7297 527.00
76.0339 758.00
76.3382 785.00
76.6424 836.00
76.9467 750.00
77.251 940.00
77.5552 1289.00
77.8595 1306.00
78.1637 819.00
78.468 697.00
78.7723 664.00
79.0765 598.00
79.3808 510.00
79.685 481.00
79.9893 471.00
80.2936 463.00
80.5978 458.00
80.9021 439.00
81.2063 444.00
81.5106 447.00
81.8149 437.00
82.1191 505.00
82.4234 706.00
82.7277 680.00
83.0319 511.00
83.3362 492.00
83.6404 418.00
83.9447 463.00
84.249 441.00
84.5532 550.00
84.8575 511.00
85.1617 491.00
85.466 487.00
85.7703 533.00
86.0745 479.00
86.3788 453.00
86.683 489.00
86.9873 509.00
87.2916 450.00
87.5958 412.00
87.9001 428.00
88.2043 497.00
88.5086 482.00
88.8129 702.00
89.1171 781.00
89.4214 550.00
89.7256 524.00
90.0299 583.00
90.3342 722.00
90.6384 765.00
90.9427 615.00
91.2469 551.00
91.5512 546.00
91.8555 532.00
92.1597 491.00
92.464 507.00
92.7682 513.00
93.0725 425.00
93.3768 438.00
93.681 447.00
93.9853 458.00
94.2895 463.00
94.5938 446.00
94.8981 478.00
95.2023 502.00
95.5066 808.00
95.8108 920.00
96.1151 739.00
96.4194 618.00
96.7236 630.00
97.0279 721.00
97.3321 602.00
97.6364 587.00
97.9407 508.00
98.2449 464.00
98.5492 488.00
98.8534 485.00
99.1577 468.00
99.462 426.00
99.7662 442.00
99.9944 443.00

File: PG_1022-1.xy
10.0094 2551.00
10.3137 2375.00
10.618 2354.00
10.9222 2325.00
11.2265 2151.00
11.5307 2168.00
11.835 2114.00
12.1393 2023.00
12.4435 1975.00
12.7478 1948.00
13.052 1958.00
13.3563 1892.00
13.6606 1864.00
13.9648 1796.00
14.2691 1798.00
14.5733 1728.00
14.8776 1705.00
15.1819 1732.00
15.4861 1729.00
15.7904 1674.00
16.0946 1652.00
16.3989 1705.00
16.7032 1638.00
17.0074 1737.00
17.3117 1679.00
17.6159 1666.00
17.9202 1625.00
18.2245 1585.00
18.5287 1516.00
18.833 1504.00
19.1372 1494.00
19.4415 1540.00
19.7458 1600.00
20.05 1489.00
20.3543 1448.00
20.6585 1425.00
20.9628 1375.00
21.2671 1482.00
21.5713 1846.00
21.8756 1357.00
22.1798 1368.00
22.4841 1342.00
22.7884 1360.00
23.0926 1365.00
23.3969 1344.00
23.7011 1406.00
24.0054 1377.00
24.3097 1432.00
24.6139 2031.00
24.9182 1663.00
25.2224 1306.00
25.5267 1315.00
25.831 1236.00
26.1352 1285.00
26.4395 1273.00
26.7438 1159.00
27.048 1304.00
27.3523 1209.00
27.6565 1219.00
27.9608 1201.00
28.2651 1158.00
28.5693 1194.00
28.8736 1195.00
29.1778 1186.00
29.4821 1129.00
29.7864 1358.00
30.0906 1171.00
30.3949 1145.00
30.6991 1355.00
31.0034 1325.00
31.3077 1097.00
31.6119 1087.00
31.9162 1371.00
32.2204 1336.00
32.5247 1115.00
32.829 1131.00
33.1332 1100.00
33.4375 1176.00
33.7417 2614.00
34.046 1717.00
34.3503 1324.00
34.6545 1089.00
34.9588 1053.00
35.263 1074.00
35.5673 1088.00
35.8716 1106.00
36.1758 1386.00
36.4801 4426.00
36.7843 1213.00
37.0886 1213.00
37.3929 1148.00
37.6971 1093.00
38.0014 1023.00
38.3056 1020.00
38.6099 952.00
38.9142 1030.00
39.2184 1023.00
39.5227 982.00
39.8269 1230.00
40.1312 1244.00
40.4355 1111.00
40.7397 979.00
41.044 1051.00
41.3482 1054.00
41.6525 1786.00
41.9568 1050.00
42.261 1020.00
42.5653 1018.00
42.8695 998.00
43.1738 972.00
43.4781 1003.00
43.7823 1061.00
44.0866 939.00
44.3909 1066.00
44.6951 1017.00
44.9994 960.00
45.3036 1006.00
45.6079 959.00
45.9122 1020.00
46.2164 949.00
46.5207 954.00
46.8249 895.00
47.1292 976.00
47.4335 1022.00
47.7377 866.00
48.042 981.00
48.3462 964.00
48.6505 991.00
48.9548 1127.00
49.259 1052.00
49.5633 983.00
49.8675 1014.00
50.1718 1108.00
50.4761 2504.00
50.7803 1062.00
51.0846 985.00
51.3888 952.00
51.6931 914.00
51.9974 987.00
52.3016 935.00
52.6059 977.00
52.9101 950.00
53.2144 957.00
53.5187 995.00
53.8229 922.00
54.1272 1037.00
54.4314 1018.00
54.7357 1160.00
55.04 3870.00
55.3442 1501.00
55.6485 977.00
55.9527 957.00
56.257 985.00
56.5613 932.00
56.8655 1020.00
57.1698 993.00
57.474 983.00
57.7783 982.00
58.0826 1002.00
58.3868 1050.00
58.6911 1243.00
58.9953 971.00
59.2996 952.00
59.6039 956.00
59.9081 969.00
60.2124 952.00
60.5166 939.00
60.8209 927.00
61.1252 955.00
61.4294 936.00
61.7337 958.00
62.0379 914.00
62.3422 900.00
62.6465 973.00
62.9507 955.00
63.255 1008.00
63.5592 1496.00
63.8635 1611.00
64.1678 951.00
64.472 925.00
64.7763 962.00
65.0806 1107.00
65.3848 2006.00
65.6891 1093.00
65.9933 978.00
66.2976 940.00
66.6019 911.00
66.9061 982.00
67.2104 948.00
67.5146 921.00
67.8189 944.00
68.1232 928.00
68.4274 910.00
68.7317 913.00
69.0359 894.00
69.3402 893.00
69.6445 885.00
69.9487 933.00
70.253 973.00
70.5572 928.00
70.8615 935.00
71.1658 966.00
71.47 944.00
71.7743 967.00
72.0785 964.00
72.3828 921.00
72.6871 977.00
72.9913 1199.00
73.2956 1254.00
73.5998 972.00
73.9041 988.00
74.2084 921.00
74.5126 969.00
74.8169 922.00
75.1211 951.00
75.4254 997.00
75.7297 940.00
76.0339 938.00
76.3382 975.00
76.6424 947.00
76.9467 1074.00
77.251 1126.00
77.5552 1011.00
77.8595 1006.00
78.1637 996.00
78.468 948.00
78.7723 891.00
79.0765 1001.00
79.3808 1042.00
79.685 966.00
79.9893 969.00
80.2936 968.00
80.5978 936.00
80.9021 945.00
81.2063 970.00
81.5106 945.00
81.8149 912.00
82.1191 1020.00
82.4234 1005.00
82.7277 923.00
83.0319 865.00
83.3362 980.00
83.6404 973.00
83.9447 917.00
84.249 1058.00
84.5532 1042.00
84.8575 966.00
85.1617 909.00
85.466 933.00
85.7703 969.00
86.0745 957.00
86.3788 1007.00
86.683 1245.00
86.9873 1045.00
87.2916 958.00
87.5958 965.00
87.9001 949.00
88.2043 899.00
88.5086 919.00
88.8129 901.00
89.1171 945.00
89.4214 886.00
89.7256 942.00
90.0299 969.00
90.3342 1317.00
90.6384 1195.00
90.9427 928.00
91.2469 969.00
91.5512 988.00
91.8555 970.00
92.1597 956.00
92.464 991.00
92.7682 972.00
93.0725 990.00
93.3768 979.00
93.681 997.00
93.9853 955.00
94.2895 949.00
94.5938 909.00
94.8981 997.00
95.2023 1043.00
95.5066 1282.00
95.8108 1207.00
96.1151 963.00
96.4194 1031.00
96.7236 925.00
97.0279 1004.00
97.3321 939.00
97.6364 1016.00
97.9407 955.00
98.2449 936.00
98.5492 994.00
98.8534 1007.00
99.1577 973.00
99.462 925.00
99.7662 961.00
99.9944 915.00

File: PG_1117-1.xy
10.0094 2350.00
10.3137 2256.00
10.618 2170.00
10.9222 2119.00
11.2265 2035.00
11.5307 1952.00
11.835 1893.00
12.1393 1799.00
12.4435 1715.00
12.7478 1654.00
13.052 1646.00
13.3563 1591.00
13.6606 1601.00
13.9648 1514.00
14.2691 1556.00
14.5733 1476.00
14.8776 1435.00
15.1819 1398.00
15.4861 1329.00
15.7904 1378.00
16.0946 1322.00
16.3989 1365.00
16.7032 1338.00
17.0074 1373.00
17.3117 1294.00
17.6159 1470.00
17.9202 1448.00
18.2245 1243.00
18.5287 1242.00
18.833 1220.00
19.1372 1168.00
19.4415 1208.00
19.7458 1164.00
20.05 1170.00
20.3543 1113.00
20.6585 1136.00
20.9628 1132.00
21.2671 1080.00
21.5713 1124.00
21.8756 1063.00
22.1798 1053.00
22.4841 1135.00
22.7884 1017.00
23.0926 1092.00
23.3969 1020.00
23.7011 1105.00
24.0054 1040.00
24.3097 1712.00
24.6139 1689.00
24.9182 2283.00
25.2224 1030.00
25.5267 1025.00
25.831 1004.00
26.1352 954.00
26.4395 951.00
26.7438 958.00
27.048 959.00
27.3523 987.00
27.6565 1096.00
27.9608 1195.00
28.2651 1812.00
28.5693 11177.00
28.8736 2373.00
29.1778 1193.00
29.4821 1099.00
29.7864 1016.00
30.0906 996.00
30.3949 1001.00
30.6991 956.00
31.0034 1103.00
31.3077 1194.00
31.6119 1810.00
31.9162 10060.00
32.2204 1902.00
32.5247 1069.00
32.829 1164.00
33.1332 1015.00
33.4375 927.00
33.7417 915.00
34.046 974.00
34.3503 1327.00
34.6545 4184.00
34.9588 3360.00
35.263 1144.00
35.5673 1837.00
35.8716 5238.00
36.1758 1291.00
36.4801 1288.00
36.7843 895.00
37.0886 896.00
37.3929 829.00
37.6971 887.00
38.0014 885.00
38.3056 898.00
38.6099 1023.00
38.9142 3287.00
39.2184 2253.00
39.5227 941.00
39.8269 860.00
40.1312 858.00
40.4355 956.00
40.7397 892.00
41.044 1283.00
41.3482 2090.00
41.6525 1509.00
41.9568 1366.00
42.261 891.00
42.5653 810.00
42.8695 781.00
43.1738 798.00
43.4781 760.00
43.7823 827.00
44.0866 797.00
44.3909 787.00
44.6951 801.00
44.9994 869.00
45.3036 1367.00
45.6079 987.00
45.9122 1307.00
46.2164 1195.00
46.5207 925.00
46.8249 776.00
47.1292 811.00
47.4335 778.00
47.7377 808.00
48.042 736.00
48.3462 833.00
48.6505 833.00
48.9548 1386.00
49.259 1197.00
49.5633 1342.00
49.8675 3255.00
50.1718 1122.00
50.4761 1388.00
50.7803 3549.00
51.0846 2521.00
51.3888 1223.00
51.6931 1368.00
51.9974 1101.00
52.3016 877.00
52.6059 880.00
52.9101 791.00
53.2144 823.00
53.5187 919.00
53.8229 1019.00
54.1272 896.00
54.4314 1202.00
54.7357 2403.00
55.04 1045.00
55.3442 1109.00
55.6485 1160.00
55.9527 3098.00
56.257 1871.00
56.5613 2154.00
56.8655 1054.00
57.1698 968.00
57.474 1055.00
57.7783 1976.00
58.0826 1174.00
58.3868 1671.00
58.6911 1629.00
58.9953 1360.00
59.2996 923.00
59.6039 864.00
59.9081 981.00
60.2124 1237.00
60.5166 2361.00
60.8209 1503.00
61.1252 936.00
61.4294 920.00
61.7337 1564.00
62.0379 2004.00
62.3422 1413.00
62.6465 1811.00
62.9507 1094.00
63.255 1196.00
63.5592 2136.00
63.8635 1108.00
64.1678 959.00
64.472 895.00
64.7763 1290.00
65.0806 1170.00
65.3848 909.00
65.6891 1047.00
65.9933 1583.00
66.2976 2198.00
66.6019 2033.00
66.9061 977.00
67.2104 913.00
67.5146 860.00
67.8189 859.00
68.1232 1153.00
68.4274 1128.00
68.7317 945.00
69.0359 875.00
69.3402 960.00
69.6445 1236.00
69.9487 921.00
70.253 955.00
70.5572 961.00
70.8615 899.00
71.1658 908.00
71.47 1046.00
71.7743 1599.00
72.0785 1429.00
72.3828 995.00
72.6871 1231.00
72.9913 1113.00
73.2956 1217.00
73.5998 1001.00
73.9041 874.00
74.2084 928.00
74.5126 830.00
74.8169 834.00
75.1211 1092.00
75.4254 1493.00
75.7297 1535.00
76.0339 1366.00
76.3382 936.00
76.6424 880.00
76.9467 962.00
77.251 1190.00
77.5552 991.00
77.8595 969.00
78.1637 1138.00
78.468 1037.00
78.7723 1078.00
79.0765 1064.00
79.3808 1034.00
79.685 1356.00
79.9893 1021.00
80.2936 890.00
80.5978 896.00
80.9021 893.00
81.2063 1003.00
81.5106 962.00
81.8149 990.00
82.1191 1066.00
82.4234 1250.00
82.7277 1123.00
83.0319 1139.00
83.3362 1373.00
83.6404 1247.00
83.9447 1445.00
84.249 1207.00
84.5532 1203.00
84.8575 1335.00
85.1617 1141.00
85.466 1032.00
85.7703 1139.00
86.0745 1007.00
86.3788 925.00
86.683 1038.00
86.9873 1204.00
87.2916 981.00
87.5958 937.00
87.9001 988.00
88.2043 1235.00
88.5086 1191.00
88.8129 1144.00
89.1171 1292.00
89.4214 1484.00
89.7256 1241.00
90.0299 1204.00
90.3342 1201.00
90.6384 1427.00
90.9427 1223.00
91.2469 1004.00
91.5512 985.00
91.8555 1039.00
92.1597 1158.00
92.464 1012.00
92.7682 1021.00
93.0725 897.00
93.3768 893.00
93.681 969.00
93.9853 981.00
94.2895 1009.00
94.5938 1196.00
94.8981 1153.00
95.2023 1040.00
95.5066 1096.00
95.8108 1253.00
96.1151 1313.00
96.4194 1151.00
96.7236 1119.00
97.0279 1394.00
97.3321 1488.00
97.6364 1466.00
97.9407 1476.00
98.2449 1272.00
98.5492 1130.00
98.8534 1318.00
99.1577 1272.00
99.462 1298.00
99.7662 1374.00
99.9944 1403.00

File: PG_1118-1.xy
10.0094 2520.00
10.3137 2391.00
10.618 2373.00
10.9222 2191.00
11.2265 2189.00
11.5307 2059.00
11.835 2092.00
12.1393 1967.00
12.4435 1922.00
12.7478 1833.00
13.052 1756.00
13.3563 1763.00
13.6606 1818.00
13.9648 1761.00
14.2691 1732.00
14.5733 1697.00
14.8776 1676.00
15.1819 1648.00
15.4861 1563.00
15.7904 1611.00
16.0946 1602.00
16.3989 1557.00
16.7032 1457.00
17.0074 1483.00
17.3117 1482.00
17.6159 1488.00
17.9202 1526.00
18.2245 1413.00
18.5287 1476.00
18.833 1442.00
19.1372 1438.00
19.4415 1465.00
19.7458 1354.00
20.05 1316.00
20.3543 1378.00
20.6585 1316.00
20.9628 1321.00
21.2671 1355.00
21.5713 1666.00
21.8756 1985.00
22.1798 1278.00
22.4841 1247.00
22.7884 1272.00
23.0926 1241.00
23.3969 1145.00
23.7011 1175.00
24.0054 1123.00
24.3097 1163.00
24.6139 1146.00
24.9182 1216.00
25.2224 1141.00
25.5267 1110.00
25.831 1100.00
26.1352 1125.00
26.4395 1045.00
26.7438 1074.00
27.048 1035.00
27.3523 1081.00
27.6565 1085.00
27.9608 1101.00
28.2651 1056.00
28.5693 951.00
28.8736 1059.00
29.1778 1036.00
29.4821 1020.00
29.7864 1024.00
30.0906 1151.00
30.3949 1487.00
30.6991 5185.00
31.0034 5586.00
31.3077 1212.00
31.6119 1138.00
31.9162 1023.00
32.2204 1041.00
32.5247 1059.00
32.829 1326.00
33.1332 988.00
33.4375 1179.00
33.7417 1025.00
34.046 932.00
34.3503 941.00
34.6545 968.00
34.9588 984.00
35.263 1159.00
35.5673 2620.00
35.8716 5593.00
36.1758 1125.00
36.4801 991.00
36.7843 999.00
37.0886 907.00
37.3929 997.00
37.6971 1060.00
38.0014 1992.00
38.3056 990.00
38.6099 1067.00
38.9142 3028.00
39.2184 2075.00
39.5227 983.00
39.8269 900.00
40.1312 1191.00
40.4355 909.00
40.7397 855.00
41.044 888.00
41.3482 886.00
41.6525 840.00
41.9568 1056.00
42.261 1254.00
42.5653 904.00
42.8695 880.00
43.1738 884.00
43.4781 818.00
43.7823 877.00
44.0866 1106.00
44.3909 859.00
44.6951 828.00
44.9994 881.00
45.3036 857.00
45.6079 918.00
45.9122 2459.00
46.2164 960.00
46.5207 837.00
46.8249 866.00
47.1292 793.00
47.4335 801.00
47.7377 839.00
48.042 803.00
48.3462 815.00
48.6505 927.00
48.9548 1432.00
49.259 1097.00
49.5633 1446.00
49.8675 835.00
50.1718 845.00
50.4761 858.00
50.7803 970.00
51.0846 1852.00
51.3888 5528.00
51.6931 1049.00
51.9974 936.00
52.3016 862.00
52.6059 859.00
52.9101 1102.00
53.2144 901.00
53.5187 897.00
53.8229 1051.00
54.1272 944.00
54.4314 850.00
54.7357 974.00
55.04 792.00
55.3442 790.00
55.6485 835.00
55.9527 870.00
56.257 1917.00
56.5613 928.00
56.8655 809.00
57.1698 818.00
57.474 836.00
57.7783 1098.00
58.0826 906.00
58.3868 1007.00
58.6911 1031.00
58.9953 892.00
59.2996 1266.00
59.6039 1013.00
59.9081 885.00
60.2124 864.00
60.5166 1027.00
60.8209 3471.00
61.1252 2667.00
61.4294 974.00
61.7337 1276.00
62.0379 1147.00
62.3422 1595.00
62.6465 1139.00
62.9507 858.00
63.255 810.00
63.5592 881.00
63.8635 1740.00
64.1678 1066.00
64.472 859.00
64.7763 809.00
65.0806 837.00
65.3848 1304.00
65.6891 907.00
65.9933 1104.00
66.2976 1203.00
66.6019 1239.00
66.9061 1030.00
67.2104 856.00
67.5146 838.00
67.8189 931.00
68.1232 1297.00
68.4274 1488.00
68.7317 895.00
69.0359 843.00
69.3402 861.00
69.6445 1088.00
69.9487 886.00
70.253 784.00
70.5572 832.00
70.8615 830.00
71.1658 763.00
71.47 834.00
71.7743 787.00
72.0785 842.00
72.3828 892.00
72.6871 931.00
72.9913 778.00
73.2956 872.00
73.5998 835.00
73.9041 1262.00
74.2084 843.00
74.5126 837.00
74.8169 871.00
75.1211 1191.00
75.4254 1434.00
75.7297 944.00
76.0339 869.00
76.3382 872.00
76.6424 1527.00
76.9467 950.00
77.251 826.00
77.5552 784.00
77.8595 955.00
78.1637 983.00
78.468 842.00
78.7723 772.00
79.0765 856.00
79.3808 1197.00
79.685 838.00
79.9893 879.00
80.2936 834.00
80.5978 1014.00
80.9021 964.00
81.2063 851.00
81.5106 858.00
81.8149 951.00
82.1191 1078.00
82.4234 973.00
82.7277 951.00
83.0319 999.00
83.3362 2181.00
83.6404 1553.00
83.9447 998.00
84.249 854.00
84.5532 823.00
84.8575 816.00
85.1617 741.00
85.466 876.00
85.7703 945.00
86.0745 1589.00
86.3788 1044.00
86.683 914.00
86.9873 865.00
87.2916 924.00
87.5958 909.00
87.9001 812.00
88.2043 873.00
88.5086 878.00
88.8129 870.00
89.1171 810.00
89.4214 839.00
89.7256 965.00
90.0299 1375.00
90.3342 1078.00
90.6384 895.00
90.9427 850.00
91.2469 834.00
91.5512 875.00
91.8555 894.00
92.1597 905.00
92.464 907.00
92.7682 1039.00
93.0725 948.00
93.3768 861.00
93.681 827.00
93.9853 841.00
94.2895 832.00
94.5938 852.00
94.8981 818.00
95.2023 978.00
95.5066 1030.00
95.8108 907.00
96.1151 875.00
96.4194 982.00
96.7236 1378.00
97.0279 1148.00
97.3321 845.00
97.6364 887.00
97.9407 1237.00
98.2449 1073.00
98.5492 921.00
98.8534 931.00
99.1577 934.00
99.462 969.00
99.7662 939.00
99.9944 889.00

File: PG_1119-1.xy
10.0094 2272.00
10.3137 2068.00
10.618 2159.00
10.9222 1970.00
11.2265 1863.00
11.5307 1769.00
11.835 1774.00
12.1393 1625.00
12.4435 1535.00
12.7478 1519.00
13.052 1493.00
13.3563 1425.00
13.6606 1306.00
13.9648 1274.00
14.2691 1282.00
14.5733 1270.00
14.8776 1177.00
15.1819 1273.00
15.4861 1193.00
15.7904 1109.00
16.0946 1099.00
16.3989 1131.00
16.7032 1069.00
17.0074 1045.00
17.3117 997.00
17.6159 970.00
17.9202 946.00
18.2245 961.00
18.5287 1000.00
18.833 892.00
19.1372 962.00
19.4415 897.00
19.7458 841.00
20.05 830.00
20.3543 824.00
20.6585 777.00
20.9628 761.00
21.2671 785.00
21.5713 771.00
21.8756 685.00
22.1798 723.00
22.4841 704.00
22.7884 695.00
23.0926 691.00
23.3969 670.00
23.7011 669.00
24.0054 630.00
24.3097 650.00
24.6139 607.00
24.9182 609.00
25.2224 621.00
25.5267 575.00
25.831 612.00
26.1352 548.00
26.4395 582.00
26.7438 511.00
27.048 582.00
27.3523 540.00
27.6565 539.00
27.9608 564.00
28.2651 561.00
28.5693 606.00
28.8736 525.00
29.1778 588.00
29.4821 495.00
29.7864 509.00
30.0906 463.00
30.3949 519.00
30.6991 469.00
31.0034 440.00
31.3077 434.00
31.6119 475.00
31.9162 419.00
32.2204 437.00
32.5247 390.00
32.829 419.00
33.1332 430.00
33.4375 428.00
33.7417 426.00
34.046 380.00
34.3503 362.00
34.6545 379.00
34.9588 396.00
35.263 352.00
35.5673 374.00
35.8716 352.00
36.1758 363.00
36.4801 392.00
36.7843 356.00
37.0886 347.00
37.3929 332.00
37.6971 361.00
38.0014 345.00
38.3056 333.00
38.6099 293.00
38.9142 311.00
39.2184 329.00
39.5227 329.00
39.8269 329.00
40.1312 325.00
40.4355 277.00
40.7397 288.00
41.044 273.00
41.3482 323.00
41.6525 290.00
41.9568 272.00
42.261 283.00
42.5653 279.00
42.8695 290.00
43.1738 283.00
43.4781 312.00
43.7823 258.00
44.0866 311.00
44.3909 277.00
44.6951 264.00
44.9994 250.00
45.3036 280.00
45.6079 263.00
45.9122 237.00
46.2164 290.00
46.5207 241.00
46.8249 264.00
47.1292 276.00
47.4335 237.00
47.7377 264.00
48.042 226.00
48.3462 221.00
48.6505 260.00
48.9548 256.00
49.259 241.00
49.5633 262.00
49.8675 235.00
50.1718 221.00
50.4761 260.00
50.7803 221.00
51.0846 224.00
51.3888 205.00
51.6931 241.00
51.9974 196.00
52.3016 244.00
52.6059 232.00
52.9101 210.00
53.2144 207.00
53.5187 230.00
53.8229 197.00
54.1272 233.00
54.4314 208.00
54.7357 226.00
55.04 203.00
55.3442 243.00
55.6485 204.00
55.9527 203.00
56.257 199.00
56.5613 214.00
56.8655 195.00
57.1698 169.00
57.474 170.00
57.7783 227.00
58.0826 207.00
58.3868 193.00
58.6911 213.00
58.9953 195.00
59.2996 169.00
59.6039 199.00
59.9081 165.00
60.2124 193.00
60.5166 187.00
60.8209 182.00
61.1252 171.00
61.4294 180.00
61.7337 208.00
62.0379 184.00
62.3422 180.00
62.6465 179.00
62.9507 194.00
63.255 191.00
63.5592 155.00
63.8635 170.00
64.1678 185.00
64.472 172.00
64.7763 155.00
65.0806 163.00
65.3848 165.00
65.6891 178.00
65.9933 202.00
66.2976 179.00
66.6019 161.00
66.9061 142.00
67.2104 190.00
67.5146 199.00
67.8189 144.00
68.1232 153.00
68.4274 152.00
68.7317 156.00
69.0359 171.00
69.3402 167.00
69.6445 213.00
69.9487 145.00
70.253 165.00
70.5572 208.00
70.8615 151.00
71.1658 167.00
71.47 174.00
71.7743 182.00
72.0785 185.00
72.3828 183.00
72.6871 162.00
72.9913 194.00
73.2956 192.00
73.5998 182.00
73.9041 167.00
74.2084 160.00
74.5126 170.00
74.8169 155.00
75.1211 171.00
75.4254 182.00
75.7297 190.00
76.0339 160.00
76.3382 163.00
76.6424 201.00
76.9467 187.00
77.251 198.00
77.5552 181.00
77.8595 202.00
78.1637 182.00
78.468 199.00
78.7723 182.00
79.0765 189.00
79.3808 194.00
79.685 160.00
79.9893 209.00
80.2936 228.00
80.5978 216.00
80.9021 210.00
81.2063 229.00
81.5106 195.00
81.8149 179.00
82.1191 190.00
82.4234 215.00
82.7277 186.00
83.0319 210.00
83.3362 195.00
83.6404 203.00
83.9447 195.00
84.249 177.00
84.5532 191.00
84.8575 192.00
85.1617 192.00
85.466 187.00
85.7703 212.00
86.0745 164.00
86.3788 182.00
86.683 169.00
86.9873 173.00
87.2916 158.00
87.5958 158.00
87.9001 177.00
88.2043 188.00
88.5086 151.00
88.8129 177.00
89.1171 163.00
89.4214 190.00
89.7256 170.00
90.0299 186.00
90.3342 175.00
90.6384 148.00
90.9427 154.00
91.2469 149.00
91.5512 176.00
91.8555 167.00
92.1597 154.00
92.464 169.00
92.7682 183.00
93.0725 171.00
93.3768 168.00
93.681 135.00
93.9853 141.00
94.2895 168.00
94.5938 149.00
94.8981 159.00
95.2023 163.00
95.5066 149.00
95.8108 174.00
96.1151 164.00
96.4194 161.00
96.7236 182.00
97.0279 171.00
97.3321 162.00
97.6364 172.00
97.9407 173.00
98.2449 155.00
98.5492 158.00
98.8534 144.00
99.1577 160.00
99.462 178.00
99.7662 165.00
99.9944 140.00