Folder: alab-pipeline/data/xrd_creation/results (part 29)

File: Na_286.xy
9.903433 2860.00
10.2077 2881.00
10.512 2664.00
10.8162 2649.00
11.1205 2606.00
11.4247 2947.00
11.729 5359.00
12.0333 10485.00
12.3375 6108.00
12.6418 5016.00
12.946 2420.00
13.2503 2363.00
13.5546 2218.00
13.8588 2468.00
14.1631 3259.00
14.4673 4358.00
14.7716 2407.00
15.0759 2061.00
15.3801 1964.00
15.6844 1946.00
15.9886 1880.00
16.2929 1893.00
16.5972 1894.00
16.9014 1853.00
17.2057 1993.00
17.5099 2249.00
17.8142 1761.00
18.1185 1824.00
18.4227 1822.00
18.727 2266.00
19.0312 2208.00
19.3355 3681.00
19.6398 3591.00
19.944 2921.00
20.2483 2273.00
20.5525 2382.00
20.8568 3054.00
21.1611 1952.00
21.4653 2828.00
21.7696 2719.00
22.0738 2359.00
22.3781 1693.00
22.6824 2042.00
22.9866 3585.00
23.2909 5182.00
23.5951 2344.00
23.8994 3987.00
24.2037 4089.00
24.5079 2129.00
24.8122 2534.00
25.1164 3371.00
25.4207 1670.00
25.725 1594.00
26.0292 1449.00
26.3335 1783.00
26.6378 1777.00
26.942 1708.00
27.2463 1983.00
27.5505 2428.00
27.8548 3748.00
28.1591 4973.00
28.4633 4046.00
28.7676 3393.00
29.0718 5155.00
29.3761 2070.00
29.6804 2087.00
29.9846 5037.00
30.2889 2520.00
30.5931 3324.00
30.8974 3318.00
31.2017 2063.00
31.5059 3471.00
31.8102 3909.00
32.1144 3830.00
32.4187 3186.00
32.723 3224.00
33.0272 3216.00
33.3315 2607.00
33.6357 2123.00
33.94 1722.00
34.2443 3584.00
34.5485 2439.00
34.8528 2917.00
35.157 3449.00
35.4613 1574.00
35.7656 1640.00
36.0698 1769.00
36.3741 2274.00
36.6783 2773.00
36.9826 4114.00
37.2869 2323.00
37.5911 1888.00
37.8954 2284.00
38.1996 1542.00
38.5039 1538.00
38.8082 2008.00
39.1124 1479.00
39.4167 1825.00
39.7209 1460.00
40.0252 1741.00
40.3295 1525.00
40.6337 1247.00
40.938 1275.00
41.2422 1356.00
41.5465 1600.00
41.8508 1841.00
42.155 1448.00
42.4593 1416.00
42.7635 1271.00
43.0678 1362.00
43.3721 1620.00
43.6763 1776.00
43.9806 1616.00
44.2849 1631.00
44.5891 1663.00
44.8934 2082.00
45.1976 1652.00
45.5019 1400.00
45.8062 1743.00
46.1104 1645.00
46.4147 1810.00
46.7189 1543.00
47.0232 3095.00
47.3275 1748.00
47.6317 1933.00
47.936 1177.00
48.2402 1221.00
48.5445 1677.00
48.8488 1808.00
49.153 2095.00
49.4573 1821.00
49.7615 1751.00
50.0658 1942.00
50.3701 1547.00
50.6743 1771.00
50.9786 2239.00
51.2828 2064.00
51.5871 2112.00
51.8914 1433.00
52.1956 1738.00
52.4999 1553.00
52.8041 1497.00
53.1084 1697.00
53.4127 2173.00
53.7169 2010.00
54.0212 1738.00
54.3254 1869.00
54.6297 1745.00
54.934 2035.00
55.2382 1867.00
55.5425 2028.00
55.8467 2879.00
56.151 2445.00
56.4553 2363.00
56.7595 2027.00
57.0638 1685.00
57.368 1684.00
57.6723 1904.00
57.9766 1617.00
58.2808 1385.00
58.5851 1401.00
58.8893 1544.00
59.1936 1957.00
59.4979 1950.00
59.8021 1885.00
60.1064 2095.00
60.4106 1764.00
60.7149 1705.00
61.0192 1573.00
61.3234 1578.00
61.6277 1477.00
61.932 1644.00
62.2362 1451.00
62.5405 1502.00
62.8447 1591.00
63.149 1450.00
63.4533 1431.00
63.7575 1699.00
64.0618 1491.00
64.366 1430.00
64.6703 1430.00
64.9745 1388.00
65.2788 1342.00
65.5831 1402.00
65.8873 1578.00
66.1916 1624.00
66.4959 1494.00
66.8001 1632.00
67.1044 1490.00
67.4086 1381.00
67.7129 1554.00
68.0172 1527.00
68.3214 1463.00
68.6257 1241.00
68.9299 1219.00
69.2342 1437.00
69.5385 1312.00
69.8427 1407.00
70.147 1369.00
70.4512 1304.00
70.7555 1446.00
71.0598 1294.00
71.364 1107.00
71.6683 1270.00
71.9725 1268.00
72.2768 1211.00
72.5811 1165.00
72.8853 1199.00
73.1896 1404.00
73.4938 1354.00
73.7981 1368.00
74.1024 1298.00
74.4066 1142.00
74.7109 1133.00
75.0151 1129.00
75.3194 1156.00
75.6237 1166.00
75.9279 1102.00
76.2322 1106.00
76.5364 1125.00
76.8407 1143.00
77.145 1338.00
77.4492 1201.00
77.7535 1184.00
78.0577 1186.00
78.362 1140.00
78.6663 1045.00
78.9705 1088.00
79.2748 1176.00
79.579 1193.00
79.8833 1205.00
80.1876 1330.00
80.4918 1425.00
80.7961 1346.00
81.1003 1309.00
81.4046 1139.00
81.7089 1128.00
82.0131 1146.00
82.3174 1181.00
82.6217 1183.00
82.9259 1305.00
83.2302 1263.00
83.5344 1144.00
83.8387 1172.00
84.143 1218.00
84.4472 1252.00
84.7515 1333.00
85.0557 1311.00
85.36 1204.00
85.6643 1257.00
85.9685 1276.00
86.2728 1227.00
86.577 1176.00
86.8813 1180.00
87.1856 1183.00
87.4898 1146.00
87.7941 1219.00
88.0983 1190.00
88.4026 1250.00
88.7069 1199.00
89.0111 1148.00
89.3154 1148.00
89.6196 1247.00
89.9239 1300.00
90.2282 1273.00
90.5324 1125.00
90.8367 1177.00
91.1409 1106.00
91.4452 1122.00
91.7495 1048.00
92.0537 1068.00
92.358 1147.00
92.6622 1181.00
92.9665 1098.00
93.2708 1199.00
93.575 1191.00
93.8793 1188.00
94.1835 1205.00
94.4878 1211.00
94.7921 1173.00
95.0963 1217.00
95.4006 1245.00
95.7048 1163.00
96.0091 1080.00
96.3134 1138.00
96.6176 1125.00
96.9219 1106.00
97.2261 1129.00
97.5304 1097.00
97.8347 1113.00
98.1389 1165.00
98.4432 1259.00
98.7474 1232.00
99.0517 1198.00
99.356 1127.00
99.6602 1216.00
99.9645 1198.00
100.095 1116.00

File: Na_287.xy
9.903433 2847.00
10.2077 2647.00
10.512 2640.00
10.8162 2501.00
11.1205 2509.00
11.4247 2351.00
11.729 2299.00
12.0333 2294.00
12.3375 2167.00
12.6418 2175.00
12.946 2121.00
13.2503 2052.00
13.5546 2114.00
13.8588 2324.00
14.1631 2170.00
14.4673 2198.00
14.7716 2057.00
15.0759 1955.00
15.3801 2026.00
15.6844 2105.00
15.9886 1989.00
16.2929 1901.00
16.5972 1789.00
16.9014 1738.00
17.2057 1763.00
17.5099 1795.00
17.8142 1662.00
18.1185 1668.00
18.4227 1704.00
18.727 1572.00
19.0312 1889.00
19.3355 1882.00
19.6398 1815.00
19.944 1748.00
20.2483 2609.00
20.5525 1894.00
20.8568 5323.00
21.1611 5403.00
21.4653 1800.00
21.7696 1530.00
22.0738 1496.00
22.3781 1442.00
22.6824 1629.00
22.9866 1414.00
23.2909 1399.00
23.5951 1422.00
23.8994 1432.00
24.2037 2010.00
24.5079 1883.00
24.8122 1404.00
25.1164 1401.00
25.4207 1411.00
25.725 1952.00
26.0292 1437.00
26.3335 1416.00
26.6378 1372.00
26.942 1371.00
27.2463 1428.00
27.5505 2365.00
27.8548 1449.00
28.1591 1321.00
28.4633 1457.00
28.7676 1327.00
29.0718 1631.00
29.3761 1698.00
29.6804 1558.00
29.9846 1736.00
30.2889 2887.00
30.5931 3356.00
30.8974 3060.00
31.2017 2050.00
31.5059 2560.00
31.8102 3157.00
32.1144 4331.00
32.4187 5560.00
32.723 1637.00
33.0272 1564.00
33.3315 1620.00
33.6357 2013.00
33.94 2284.00
34.2443 4937.00
34.5485 15722.00
34.8528 2291.00
35.157 2527.00
35.4613 5423.00
35.7656 2542.00
36.0698 1684.00
36.3741 1427.00
36.6783 1414.00
36.9826 1409.00
37.2869 1623.00
37.5911 2283.00
37.8954 1989.00
38.1996 1879.00
38.5039 2579.00
38.8082 2756.00
39.1124 1902.00
39.4167 1441.00
39.7209 1815.00
40.0252 1252.00
40.3295 1289.00
40.6337 1269.00
40.938 1351.00
41.2422 1166.00
41.5465 1361.00
41.8508 1434.00
42.155 1202.00
42.4593 2352.00
42.7635 1311.00
43.0678 1330.00
43.3721 1567.00
43.6763 1215.00
43.9806 1322.00
44.2849 1272.00
44.5891 1221.00
44.8934 1276.00
45.1976 1230.00
45.5019 1432.00
45.8062 1698.00
46.1104 1905.00
46.4147 1339.00
46.7189 1163.00
47.0232 992.00
47.3275 1210.00
47.6317 1027.00
47.936 1028.00
48.2402 1128.00
48.5445 1354.00
48.8488 1849.00
49.153 1751.00
49.4573 3299.00
49.7615 1331.00
50.0658 1123.00
50.3701 1062.00
50.6743 1084.00
50.9786 946.00
51.2828 990.00
51.5871 1049.00
51.8914 964.00
52.1956 957.00
52.4999 1294.00
52.8041 975.00
53.1084 1003.00
53.4127 971.00
53.7169 1012.00
54.0212 941.00
54.3254 997.00
54.6297 1253.00
54.934 1073.00
55.2382 891.00
55.5425 901.00
55.8467 896.00
56.151 925.00
56.4553 931.00
56.7595 943.00
57.0638 907.00
57.368 955.00
57.6723 1344.00
57.9766 1576.00
58.2808 1192.00
58.5851 942.00
58.8893 909.00
59.1936 1018.00
59.4979 1136.00
59.8021 1137.00
60.1064 1514.00
60.4106 1459.00
60.7149 1444.00
61.0192 1542.00
61.3234 3989.00
61.6277 2331.00
61.932 1043.00
62.2362 896.00
62.5405 954.00
62.8447 1117.00
63.149 1079.00
63.4533 944.00
63.7575 924.00
64.0618 1189.00
64.366 1566.00
64.6703 1956.00
64.9745 2742.00
65.2788 1400.00
65.5831 1299.00
65.8873 847.00
66.1916 829.00
66.4959 702.00
66.8001 701.00
67.1044 791.00
67.4086 773.00
67.7129 758.00
68.0172 698.00
68.3214 700.00
68.6257 753.00
68.9299 780.00
69.2342 840.00
69.5385 1012.00
69.8427 1086.00
70.147 1034.00
70.4512 974.00
70.7555 898.00
71.0598 850.00
71.364 714.00
71.6683 770.00
71.9725 932.00
72.2768 1142.00
72.5811 851.00
72.8853 815.00
73.1896 774.00
73.4938 695.00
73.7981 737.00
74.1024 808.00
74.4066 712.00
74.7109 709.00
75.0151 645.00
75.3194 570.00
75.6237 636.00
75.9279 737.00
76.2322 748.00
76.5364 634.00
76.8407 620.00
77.145 629.00
77.4492 616.00
77.7535 635.00
78.0577 689.00
78.362 620.00
78.6663 641.00
78.9705 656.00
79.2748 671.00
79.579 646.00
79.8833 587.00
80.1876 580.00
80.4918 612.00
80.7961 626.00
81.1003 670.00
81.4046 626.00
81.7089 636.00
82.0131 687.00
82.3174 1371.00
82.6217 870.00
82.9259 692.00
83.2302 614.00
83.5344 629.00
83.8387 681.00
84.143 629.00
84.4472 730.00
84.7515 725.00
85.0557 664.00
85.36 672.00
85.6643 661.00
85.9685 727.00
86.2728 683.00
86.577 602.00
86.8813 578.00
87.1856 632.00
87.4898 631.00
87.7941 574.00
88.0983 616.00
88.4026 602.00
88.7069 588.00
89.0111 606.00
89.3154 608.00
89.6196 651.00
89.9239 683.00
90.2282 666.00
90.5324 659.00
90.8367 642.00
91.1409 646.00
91.4452 659.00
91.7495 690.00
92.0537 732.00
92.358 681.00
92.6622 586.00
92.9665 627.00
93.2708 646.00
93.575 595.00
93.8793 630.00
94.1835 652.00
94.4878 721.00
94.7921 765.00
95.0963 724.00
95.4006 683.00
95.7048 728.00
96.0091 781.00
96.3134 807.00
96.6176 849.00
96.9219 760.00
97.2261 619.00
97.5304 580.00
97.8347 569.00
98.1389 602.00
98.4432 602.00
98.7474 631.00
99.0517 620.00
99.356 660.00
99.6602 663.00
99.9645 586.00
100.095 580.00

File: Na_288.xy
9.903433 2718.00
10.2077 2574.00
10.512 2449.00
10.8162 2350.00
11.1205 2296.00
11.4247 2228.00
11.729 2090.00
12.0333 2003.00
12.3375 2087.00
12.6418 2011.00
12.946 1856.00
13.2503 1947.00
13.5546 1788.00
13.8588 1726.00
14.1631 1749.00
14.4673 1731.00
14.7716 1739.00
15.0759 1622.00
15.3801 1607.00
15.6844 1621.00
15.9886 1478.00
16.2929 1513.00
16.5972 1482.00
16.9014 1468.00
17.2057 1545.00
17.5099 1436.00
17.8142 1405.00
18.1185 1425.00
18.4227 1321.00
18.727 1418.00
19.0312 1485.00
19.3355 1350.00
19.6398 1329.00
19.944 2545.00
20.2483 2766.00
20.5525 1759.00
20.8568 1672.00
21.1611 1271.00
21.4653 1221.00
21.7696 1214.00
22.0738 1179.00
22.3781 1194.00
22.6824 1187.00
22.9866 1190.00
23.2909 1138.00
23.5951 1068.00
23.8994 1067.00
24.2037 1165.00
24.5079 1997.00
24.8122 1480.00
25.1164 1054.00
25.4207 987.00
25.725 986.00
26.0292 972.00
26.3335 1717.00
26.6378 1446.00
26.942 946.00
27.2463 923.00
27.5505 955.00
27.8548 906.00
28.1591 942.00
28.4633 910.00
28.7676 896.00
29.0718 917.00
29.3761 844.00
29.6804 839.00
29.9846 782.00
30.2889 827.00
30.5931 818.00
30.8974 849.00
31.2017 882.00
31.5059 831.00
31.8102 773.00
32.1144 875.00
32.4187 905.00
32.723 2636.00
33.0272 2593.00
33.3315 2407.00
33.6357 2365.00
33.94 1916.00
34.2443 1975.00
34.5485 1068.00
34.8528 845.00
35.157 842.00
35.4613 834.00
35.7656 895.00
36.0698 1412.00
36.3741 1721.00
36.6783 1008.00
36.9826 886.00
37.2869 912.00
37.5911 689.00
37.8954 707.00
38.1996 714.00
38.5039 1334.00
38.8082 1125.00
39.1124 779.00
39.4167 792.00
39.7209 816.00
40.0252 794.00
40.3295 772.00
40.6337 644.00
40.938 664.00
41.2422 685.00
41.5465 1088.00
41.8508 838.00
42.155 703.00
42.4593 665.00
42.7635 721.00
43.0678 642.00
43.3721 628.00
43.6763 988.00
43.9806 769.00
44.2849 746.00
44.5891 794.00
44.8934 874.00
45.1976 692.00
45.5019 552.00
45.8062 609.00
46.1104 567.00
46.4147 631.00
46.7189 597.00
47.0232 656.00
47.3275 1192.00
47.6317 938.00
47.936 661.00
48.2402 628.00
48.5445 648.00
48.8488 692.00
49.153 714.00
49.4573 664.00
49.7615 595.00
50.0658 737.00
50.3701 1138.00
50.6743 712.00
50.9786 605.00
51.2828 610.00
51.5871 692.00
51.8914 730.00
52.1956 711.00
52.4999 637.00
52.8041 543.00
53.1084 599.00
53.4127 542.00
53.7169 659.00
54.0212 644.00
54.3254 685.00
54.6297 882.00
54.934 1972.00
55.2382 1052.00
55.5425 672.00
55.8467 666.00
56.151 672.00
56.4553 620.00
56.7595 651.00
57.0638 598.00
57.368 616.00
57.6723 574.00
57.9766 578.00
58.2808 656.00
58.5851 703.00
58.8893 847.00
59.1936 1096.00
59.4979 823.00
59.8021 729.00
60.1064 589.00
60.4106 545.00
60.7149 510.00
61.0192 645.00
61.3234 777.00
61.6277 598.00
61.932 564.00
62.2362 534.00
62.5405 581.00
62.8447 821.00
63.149 750.00
63.4533 942.00
63.7575 851.00
64.0618 537.00
64.366 519.00
64.6703 568.00
64.9745 809.00
65.2788 1562.00
65.5831 902.00
65.8873 558.00
66.1916 566.00
66.4959 511.00
66.8001 534.00
67.1044 513.00
67.4086 538.00
67.7129 492.00
68.0172 484.00
68.3214 472.00
68.6257 524.00
68.9299 465.00
69.2342 479.00
69.5385 563.00
69.8427 655.00
70.147 602.00
70.4512 547.00
70.7555 491.00
71.0598 507.00
71.364 524.00
71.6683 502.00
71.9725 578.00
72.2768 509.00
72.5811 525.00
72.8853 741.00
73.1896 762.00
73.4938 594.00
73.7981 529.00
74.1024 492.00
74.4066 509.00
74.7109 538.00
75.0151 495.00
75.3194 569.00
75.6237 506.00
75.9279 568.00
76.2322 477.00
76.5364 558.00
76.8407 604.00
77.145 548.00
77.4492 528.00
77.7535 451.00
78.0577 467.00
78.362 521.00
78.6663 461.00
78.9705 609.00
79.2748 741.00
79.579 561.00
79.8833 470.00
80.1876 498.00
80.4918 554.00
80.7961 516.00
81.1003 469.00
81.4046 476.00
81.7089 474.00
82.0131 578.00
82.3174 685.00
82.6217 660.00
82.9259 563.00
83.2302 543.00
83.5344 528.00
83.8387 506.00
84.143 531.00
84.4472 688.00
84.7515 783.00
85.0557 624.00
85.36 521.00
85.6643 529.00
85.9685 559.00
86.2728 592.00
86.577 641.00
86.8813 591.00
87.1856 515.00
87.4898 542.00
87.7941 464.00
88.0983 519.00
88.4026 541.00
88.7069 590.00
89.0111 542.00
89.3154 522.00
89.6196 502.00
89.9239 509.00
90.2282 706.00
90.5324 666.00
90.8367 535.00
91.1409 533.00
91.4452 485.00
91.7495 532.00
92.0537 627.00
92.358 551.00
92.6622 481.00
92.9665 471.00
93.2708 530.00
93.575 496.00
93.8793 458.00
94.1835 498.00
94.4878 469.00
94.7921 552.00
95.0963 578.00
95.4006 719.00
95.7048 660.00
96.0091 567.00
96.3134 513.00
96.6176 466.00
96.9219 507.00
97.2261 579.00
97.5304 559.00
97.8347 610.00
98.1389 612.00
98.4432 638.00
98.7474 581.00
99.0517 549.00
99.356 487.00
99.6602 496.00
99.9645 524.00
100.095 500.00

File: Na_289.xy
9.903433 5056.00
10.2077 5206.00
10.512 5155.00
10.8162 5156.00
11.1205 5312.00
11.4247 5143.00
11.729 5178.00
12.0333 5269.00
12.3375 5187.00
12.6418 5410.00
12.946 5309.00
13.2503 5432.00
13.5546 5472.00
13.8588 5539.00
14.1631 5329.00
14.4673 5502.00
14.7716 5625.00
15.0759 5591.00
15.3801 5644.00
15.6844 5695.00
15.9886 5764.00
16.2929 5641.00
16.5972 5809.00
16.9014 5816.00
17.2057 5882.00
17.5099 5848.00
17.8142 5868.00
18.1185 5759.00
18.4227 5859.00
18.727 5863.00
19.0312 6084.00
19.3355 6307.00
19.6398 6085.00
19.944 6016.00
20.2483 6124.00
20.5525 6277.00
20.8568 7422.00
21.1611 15757.00
21.4653 6300.00
21.7696 6270.00
22.0738 6390.00
22.3781 6457.00
22.6824 6501.00
22.9866 6245.00
23.2909 6382.00
23.5951 6368.00
23.8994 6477.00
24.2037 6464.00
24.5079 6310.00
24.8122 6338.00
25.1164 6495.00
25.4207 6440.00
25.725 6369.00
26.0292 6469.00
26.3335 6492.00
26.6378 6464.00
26.942 6464.00
27.2463 6390.00
27.5505 6441.00
27.8548 6287.00
28.1591 6485.00
28.4633 6410.00
28.7676 6344.00
29.0718 6497.00
29.3761 6325.00
29.6804 6511.00
29.9846 6415.00
30.2889 6550.00
30.5931 6778.00
30.8974 6356.00
31.2017 6486.00
31.5059 6629.00
31.8102 6704.00
32.1144 6456.00
32.4187 6522.00
32.723 6434.00
33.0272 6625.00
33.3315 6606.00
33.6357 6730.00
33.94 6652.00
34.2443 7054.00
34.5485 19270.00
34.8528 7451.00
35.157 6830.00
35.4613 6631.00
35.7656 6553.00
36.0698 6904.00
36.3741 7297.00
36.6783 6766.00
36.9826 6711.00
37.2869 6984.00
37.5911 6824.00
37.8954 6759.00
38.1996 6631.00
38.5039 6638.00
38.8082 6743.00
39.1124 6735.00
39.4167 7009.00
39.7209 6887.00
40.0252 6663.00
40.3295 6583.00
40.6337 6634.00
40.938 6645.00
41.2422 6688.00
41.5465 6585.00
41.8508 6561.00
42.155 6691.00
42.4593 6790.00
42.7635 7076.00
43.0678 6760.00
43.3721 6711.00
43.6763 6625.00
43.9806 6817.00
44.2849 6738.00
44.5891 6761.00
44.8934 6608.00
45.1976 6537.00
45.5019 6768.00
45.8062 6687.00
46.1104 6616.00
46.4147 6690.00
46.7189 6692.00
47.0232 6783.00
47.3275 6711.00
47.6317 6714.00
47.936 6608.00
48.2402 6737.00
48.5445 6657.00
48.8488 6737.00
49.153 6749.00
49.4573 7171.00
49.7615 7960.00
50.0658 6805.00
50.3701 6734.00
50.6743 6638.00
50.9786 6651.00
51.2828 6828.00
51.5871 6601.00
51.8914 6786.00
52.1956 6683.00
52.4999 6631.00
52.8041 6680.00
53.1084 6663.00
53.4127 6810.00
53.7169 6744.00
54.0212 6874.00
54.3254 6768.00
54.6297 6610.00
54.934 6627.00
55.2382 6650.00
55.5425 6609.00
55.8467 6900.00
56.151 6658.00
56.4553 6911.00
56.7595 6618.00
57.0638 6655.00
57.368 6696.00
57.6723 6637.00
57.9766 6785.00
58.2808 6581.00
58.5851 6515.00
58.8893 6678.00
59.1936 6815.00
59.4979 6623.00
59.8021 6693.00
60.1064 6673.00
60.4106 6623.00
60.7149 6639.00
61.0192 6788.00
61.3234 6740.00
61.6277 8859.00
61.932 8059.00
62.2362 6758.00
62.5405 6698.00
62.8447 6576.00
63.149 6671.00
63.4533 6669.00
63.7575 6654.00
64.0618 6618.00
64.366 6641.00
64.6703 6709.00
64.9745 6768.00
65.2788 6736.00
65.5831 6809.00
65.8873 6952.00
66.1916 6890.00
66.4959 6687.00
66.8001 6580.00
67.1044 6724.00
67.4086 6412.00
67.7129 6411.00
68.0172 6524.00
68.3214 6620.00
68.6257 6602.00
68.9299 6630.00
69.2342 6583.00
69.5385 6692.00
69.8427 6622.00
70.147 6611.00
70.4512 6530.00
70.7555 6736.00
71.0598 6558.00
71.364 6648.00
71.6683 6531.00
71.9725 6739.00
72.2768 6707.00
72.5811 7257.00
72.8853 6475.00
73.1896 6504.00
73.4938 6705.00
73.7981 6497.00
74.1024 6563.00
74.4066 6600.00
74.7109 6597.00
75.0151 6673.00
75.3194 6516.00
75.6237 6612.00
75.9279 6715.00
76.2322 6581.00
76.5364 6801.00
76.8407 6657.00
77.145 6704.00
77.4492 6560.00
77.7535 6656.00
78.0577 6537.00
78.362 6543.00
78.6663 6622.00
78.9705 6499.00
79.2748 6588.00
79.579 6574.00
79.8833 6555.00
80.1876 6582.00
80.4918 6512.00
80.7961 6577.00
81.1003 6615.00
81.4046 6645.00
81.7089 6557.00
82.0131 6567.00
82.3174 6677.00
82.6217 6895.00
82.9259 7207.00
83.2302 6661.00
83.5344 6567.00
83.8387 6628.00
84.143 6504.00
84.4472 6639.00
84.7515 6606.00
85.0557 6620.00
85.36 6414.00
85.6643 6618.00
85.9685 6620.00
86.2728 6696.00
86.577 6598.00
86.8813 6610.00
87.1856 6592.00
87.4898 6495.00
87.7941 6614.00
88.0983 6621.00
88.4026 6489.00
88.7069 6505.00
89.0111 6632.00
89.3154 6599.00
89.6196 6650.00
89.9239 6616.00
90.2282 6434.00
90.5324 6565.00
90.8367 6595.00
91.1409 6652.00
91.4452 6532.00
91.7495 6687.00
92.0537 6508.00
92.358 6818.00
92.6622 6557.00
92.9665 6767.00
93.2708 6662.00
93.575 6589.00
93.8793 6562.00
94.1835 6717.00
94.4878 6607.00
94.7921 6676.00
95.0963 6481.00
95.4006 6552.00
95.7048 6592.00
96.0091 6572.00
96.3134 6545.00
96.6176 6640.00
96.9219 6525.00
97.2261 6583.00
97.5304 6484.00
97.8347 6517.00
98.1389 6573.00
98.4432 6706.00
98.7474 6665.00
99.0517 6499.00
99.356 6629.00
99.6602 6608.00
99.9645 6593.00
100.095 6451.00

File: Na_290.xy
9.903433 2508.00
10.2077 2450.00
10.512 2267.00
10.8162 2173.00
11.1205 2165.00
11.4247 2073.00
11.729 1976.00
12.0333 1914.00
12.3375 1817.00
12.6418 1721.00
12.946 1649.00
13.2503 1616.00
13.5546 1598.00
13.8588 1509.00
14.1631 1499.00
14.4673 1355.00
14.7716 1423.00
15.0759 1353.00
15.3801 1320.00
15.6844 1377.00
15.9886 1396.00
16.2929 1269.00
16.5972 1234.00
16.9014 1182.00
17.2057 1197.00
17.5099 1244.00
17.8142 1141.00
18.1185 1111.00
18.4227 1138.00
18.727 1065.00
19.0312 1030.00
19.3355 1100.00
19.6398 1027.00
19.944 938.00
20.2483 989.00
20.5525 1207.00
20.8568 932.00
21.1611 956.00
21.4653 891.00
21.7696 895.00
22.0738 856.00
22.3781 842.00
22.6824 866.00
22.9866 887.00
23.2909 849.00
23.5951 850.00
23.8994 909.00
24.2037 822.00
24.5079 718.00
24.8122 728.00
25.1164 799.00
25.4207 767.00
25.725 741.00
26.0292 688.00
26.3335 717.00
26.6378 707.00
26.942 688.00
27.2463 717.00
27.5505 748.00
27.8548 1219.00
28.1591 687.00
28.4633 571.00
28.7676 675.00
29.0718 1600.00
29.3761 687.00
29.6804 607.00
29.9846 655.00
30.2889 614.00
30.5931 624.00
30.8974 605.00
31.2017 582.00
31.5059 609.00
31.8102 583.00
32.1144 594.00
32.4187 593.00
32.723 583.00
33.0272 529.00
33.3315 530.00
33.6357 707.00
33.94 742.00
34.2443 799.00
34.5485 506.00
34.8528 545.00
35.157 497.00
35.4613 494.00
35.7656 494.00
36.0698 499.00
36.3741 425.00
36.6783 439.00
36.9826 472.00
37.2869 417.00
37.5911 426.00
37.8954 463.00
38.1996 416.00
38.5039 380.00
38.8082 375.00
39.1124 404.00
39.4167 412.00
39.7209 412.00
40.0252 401.00
40.3295 392.00
40.6337 385.00
40.938 377.00
41.2422 400.00
41.5465 387.00
41.8508 413.00
42.155 362.00
42.4593 391.00
42.7635 361.00
43.0678 370.00
43.3721 390.00
43.6763 335.00
43.9806 358.00
44.2849 378.00
44.5891 321.00
44.8934 354.00
45.1976 340.00
45.5019 316.00
45.8062 336.00
46.1104 503.00
46.4147 351.00
46.7189 397.00
47.0232 341.00
47.3275 333.00
47.6317 303.00
47.936 301.00
48.2402 334.00
48.5445 552.00
48.8488 350.00
49.153 346.00
49.4573 316.00
49.7615 310.00
50.0658 317.00
50.3701 287.00
50.6743 279.00
50.9786 294.00
51.2828 297.00
51.5871 305.00
51.8914 265.00
52.1956 248.00
52.4999 264.00
52.8041 278.00
53.1084 282.00
53.4127 303.00
53.7169 277.00
54.0212 257.00
54.3254 320.00
54.6297 300.00
54.934 271.00
55.2382 275.00
55.5425 341.00
55.8467 282.00
56.151 279.00
56.4553 261.00
56.7595 278.00
57.0638 227.00
57.368 263.00
57.6723 391.00
57.9766 238.00
58.2808 203.00
58.5851 268.00
58.8893 230.00
59.1936 283.00
59.4979 223.00
59.8021 209.00
60.1064 242.00
60.4106 231.00
60.7149 246.00
61.0192 235.00
61.3234 229.00
61.6277 240.00
61.932 244.00
62.2362 228.00
62.5405 227.00
62.8447 246.00
63.149 199.00
63.4533 218.00
63.7575 212.00
64.0618 240.00
64.366 203.00
64.6703 221.00
64.9745 203.00
65.2788 200.00
65.5831 244.00
65.8873 205.00
66.1916 213.00
66.4959 246.00
66.8001 235.00
67.1044 179.00
67.4086 218.00
67.7129 190.00
68.0172 224.00
68.3214 263.00
68.6257 212.00
68.9299 220.00
69.2342 194.00
69.5385 221.00
69.8427 195.00
70.147 207.00
70.4512 193.00
70.7555 214.00
71.0598 212.00
71.364 207.00
71.6683 205.00
71.9725 234.00
72.2768 231.00
72.5811 242.00
72.8853 228.00
73.1896 224.00
73.4938 207.00
73.7981 209.00
74.1024 219.00
74.4066 277.00
74.7109 240.00
75.0151 230.00
75.3194 219.00
75.6237 238.00
75.9279 248.00
76.2322 233.00
76.5364 210.00
76.8407 226.00
77.145 216.00
77.4492 237.00
77.7535 238.00
78.0577 250.00
78.362 233.00
78.6663 217.00
78.9705 225.00
79.2748 239.00
79.579 221.00
79.8833 211.00
80.1876 244.00
80.4918 247.00
80.7961 275.00
81.1003 245.00
81.4046 262.00
81.7089 237.00
82.0131 274.00
82.3174 266.00
82.6217 277.00
82.9259 237.00
83.2302 260.00
83.5344 238.00
83.8387 234.00
84.143 228.00
84.4472 242.00
84.7515 227.00
85.0557 283.00
85.36 205.00
85.6643 228.00
85.9685 203.00
86.2728 236.00
86.577 237.00
86.8813 202.00
87.1856 221.00
87.4898 203.00
87.7941 193.00
88.0983 219.00
88.4026 195.00
88.7069 226.00
89.0111 219.00
89.3154 217.00
89.6196 193.00
89.9239 213.00
90.2282 218.00
90.5324 212.00
90.8367 212.00
91.1409 218.00
91.4452 208.00
91.7495 183.00
92.0537 217.00
92.358 209.00
92.6622 159.00
92.9665 192.00
93.2708 230.00
93.575 196.00
93.8793 206.00
94.1835 175.00
94.4878 170.00
94.7921 197.00
95.0963 204.00
95.4006 200.00
95.7048 200.00
96.0091 210.00
96.3134 209.00
96.6176 188.00
96.9219 202.00
97.2261 196.00
97.5304 180.00
97.8347 195.00
98.1389 233.00
98.4432 190.00
98.7474 213.00
99.0517 208.00
99.356 189.00
99.6602 210.00
99.9645 185.00
100.095 215.00