Folder: alab-pipeline/data/xrd_creation/results (part 45)

File: NSC_55.xy
9.903433 2534.00
10.2077 2373.00
10.512 2366.00
10.8162 2198.00
11.1205 2147.00
11.4247 2097.00
11.729 1905.00
12.0333 1936.00
12.3375 1747.00
12.6418 1752.00
12.946 1691.00
13.2503 1633.00
13.5546 1589.00
13.8588 1518.00
14.1631 1547.00
14.4673 1470.00
14.7716 1330.00
15.0759 1345.00
15.3801 1310.00
15.6844 1259.00
15.9886 1248.00
16.2929 1217.00
16.5972 1246.00
16.9014 1266.00
17.2057 1108.00
17.5099 1080.00
17.8142 1048.00
18.1185 992.00
18.4227 1090.00
18.727 1032.00
19.0312 1045.00
19.3355 962.00
19.6398 968.00
19.944 958.00
20.2483 913.00
20.5525 879.00
20.8568 896.00
21.1611 828.00
21.4653 833.00
21.7696 848.00
22.0738 820.00
22.3781 785.00
22.6824 837.00
22.9866 759.00
23.2909 806.00
23.5951 790.00
23.8994 721.00
24.2037 686.00
24.5079 679.00
24.8122 653.00
25.1164 741.00
25.4207 666.00
25.725 647.00
26.0292 642.00
26.3335 679.00
26.6378 607.00
26.942 634.00
27.2463 590.00
27.5505 579.00
27.8548 633.00
28.1591 589.00
28.4633 590.00
28.7676 544.00
29.0718 511.00
29.3761 551.00
29.6804 584.00
29.9846 540.00
30.2889 509.00
30.5931 477.00
30.8974 504.00
31.2017 536.00
31.5059 560.00
31.8102 489.00
32.1144 475.00
32.4187 468.00
32.723 481.00
33.0272 459.00
33.3315 493.00
33.6357 483.00
33.94 403.00
34.2443 455.00
34.5485 439.00
34.8528 435.00
35.157 381.00
35.4613 417.00
35.7656 413.00
36.0698 378.00
36.3741 454.00
36.6783 389.00
36.9826 379.00
37.2869 367.00
37.5911 380.00
37.8954 345.00
38.1996 335.00
38.5039 357.00
38.8082 345.00
39.1124 346.00
39.4167 343.00
39.7209 323.00
40.0252 282.00
40.3295 352.00
40.6337 353.00
40.938 302.00
41.2422 316.00
41.5465 303.00
41.8508 282.00
42.155 322.00
42.4593 292.00
42.7635 322.00
43.0678 320.00
43.3721 299.00
43.6763 277.00
43.9806 293.00
44.2849 312.00
44.5891 274.00
44.8934 285.00
45.1976 279.00
45.5019 278.00
45.8062 276.00
46.1104 279.00
46.4147 274.00
46.7189 283.00
47.0232 273.00
47.3275 277.00
47.6317 257.00
47.936 277.00
48.2402 239.00
48.5445 265.00
48.8488 280.00
49.153 281.00
49.4573 200.00
49.7615 281.00
50.0658 249.00
50.3701 220.00
50.6743 269.00
50.9786 257.00
51.2828 272.00
51.5871 228.00
51.8914 236.00
52.1956 262.00
52.4999 242.00
52.8041 211.00
53.1084 225.00
53.4127 221.00
53.7169 248.00
54.0212 262.00
54.3254 226.00
54.6297 243.00
54.934 234.00
55.2382 205.00
55.5425 219.00
55.8467 203.00
56.151 196.00
56.4553 203.00
56.7595 199.00
57.0638 202.00
57.368 207.00
57.6723 199.00
57.9766 176.00
58.2808 201.00
58.5851 204.00
58.8893 210.00
59.1936 191.00
59.4979 196.00
59.8021 171.00
60.1064 193.00
60.4106 187.00
60.7149 196.00
61.0192 183.00
61.3234 192.00
61.6277 181.00
61.932 176.00
62.2362 201.00
62.5405 190.00
62.8447 171.00
63.149 181.00
63.4533 175.00
63.7575 186.00
64.0618 188.00
64.366 148.00
64.6703 192.00
64.9745 185.00
65.2788 167.00
65.5831 202.00
65.8873 181.00
66.1916 176.00
66.4959 168.00
66.8001 178.00
67.1044 178.00
67.4086 175.00
67.7129 179.00
68.0172 171.00
68.3214 192.00
68.6257 183.00
68.9299 181.00
69.2342 188.00
69.5385 185.00
69.8427 190.00
70.147 190.00
70.4512 159.00
70.7555 190.00
71.0598 167.00
71.364 183.00
71.6683 161.00
71.9725 206.00
72.2768 162.00
72.5811 171.00
72.8853 189.00
73.1896 186.00
73.4938 191.00
73.7981 166.00
74.1024 191.00
74.4066 203.00
74.7109 188.00
75.0151 188.00
75.3194 203.00
75.6237 177.00
75.9279 190.00
76.2322 211.00
76.5364 200.00
76.8407 183.00
77.145 177.00
77.4492 194.00
77.7535 179.00
78.0577 179.00
78.362 206.00
78.6663 221.00
78.9705 201.00
79.2748 222.00
79.579 222.00
79.8833 210.00
80.1876 214.00
80.4918 208.00
80.7961 230.00
81.1003 227.00
81.4046 201.00
81.7089 191.00
82.0131 212.00
82.3174 190.00
82.6217 219.00
82.9259 218.00
83.2302 233.00
83.5344 201.00
83.8387 218.00
84.143 208.00
84.4472 205.00
84.7515 196.00
85.0557 211.00
85.36 194.00
85.6643 220.00
85.9685 212.00
86.2728 166.00
86.577 180.00
86.8813 207.00
87.1856 209.00
87.4898 165.00
87.7941 185.00
88.0983 215.00
88.4026 199.00
88.7069 167.00
89.0111 172.00
89.3154 210.00
89.6196 193.00
89.9239 185.00
90.2282 170.00
90.5324 176.00
90.8367 181.00
91.1409 178.00
91.4452 158.00
91.7495 160.00
92.0537 182.00
92.358 190.00
92.6622 161.00
92.9665 164.00
93.2708 186.00
93.575 159.00
93.8793 162.00
94.1835 194.00
94.4878 186.00
94.7921 164.00
95.0963 188.00
95.4006 164.00
95.7048 198.00
96.0091 164.00
96.3134 189.00
96.6176 174.00
96.9219 168.00
97.2261 159.00
97.5304 191.00
97.8347 174.00
98.1389 156.00
98.4432 184.00
98.7474 187.00
99.0517 164.00
99.356 176.00
99.6602 176.00
99.9645 172.00
100.095 169.00

File: NSC_56.xy
9.903433 2604.00
10.2077 2440.00
10.512 2419.00
10.8162 2236.00
11.1205 2134.00
11.4247 2112.00
11.729 2078.00
12.0333 1868.00
12.3375 1838.00
12.6418 1755.00
12.946 1711.00
13.2503 1702.00
13.5546 1528.00
13.8588 1535.00
14.1631 1475.00
14.4673 1422.00
14.7716 1390.00
15.0759 1425.00
15.3801 1307.00
15.6844 1292.00
15.9886 1205.00
16.2929 1232.00
16.5972 1114.00
16.9014 1228.00
17.2057 1192.00
17.5099 1105.00
17.8142 1064.00
18.1185 1086.00
18.4227 1085.00
18.727 1025.00
19.0312 956.00
19.3355 963.00
19.6398 937.00
19.944 948.00
20.2483 894.00
20.5525 970.00
20.8568 882.00
21.1611 828.00
21.4653 855.00
21.7696 853.00
22.0738 751.00
22.3781 804.00
22.6824 798.00
22.9866 793.00
23.2909 696.00
23.5951 743.00
23.8994 709.00
24.2037 768.00
24.5079 704.00
24.8122 684.00
25.1164 705.00
25.4207 660.00
25.725 675.00
26.0292 612.00
26.3335 645.00
26.6378 643.00
26.942 652.00
27.2463 622.00
27.5505 598.00
27.8548 534.00
28.1591 622.00
28.4633 536.00
28.7676 593.00
29.0718 542.00
29.3761 581.00
29.6804 538.00
29.9846 547.00
30.2889 515.00
30.5931 507.00
30.8974 524.00
31.2017 528.00
31.5059 521.00
31.8102 516.00
32.1144 460.00
32.4187 531.00
32.723 495.00
33.0272 448.00
33.3315 431.00
33.6357 399.00
33.94 489.00
34.2443 467.00
34.5485 421.00
34.8528 437.00
35.157 457.00
35.4613 424.00
35.7656 386.00
36.0698 395.00
36.3741 394.00
36.6783 416.00
36.9826 397.00
37.2869 368.00
37.5911 376.00
37.8954 496.00
38.1996 391.00
38.5039 370.00
38.8082 356.00
39.1124 377.00
39.4167 329.00
39.7209 347.00
40.0252 336.00
40.3295 377.00
40.6337 285.00
40.938 344.00
41.2422 339.00
41.5465 325.00
41.8508 333.00
42.155 317.00
42.4593 306.00
42.7635 307.00
43.0678 315.00
43.3721 343.00
43.6763 298.00
43.9806 332.00
44.2849 325.00
44.5891 308.00
44.8934 308.00
45.1976 261.00
45.5019 258.00
45.8062 287.00
46.1104 284.00
46.4147 266.00
46.7189 278.00
47.0232 320.00
47.3275 257.00
47.6317 265.00
47.936 234.00
48.2402 233.00
48.5445 284.00
48.8488 299.00
49.153 269.00
49.4573 248.00
49.7615 232.00
50.0658 268.00
50.3701 272.00
50.6743 265.00
50.9786 240.00
51.2828 226.00
51.5871 299.00
51.8914 259.00
52.1956 216.00
52.4999 245.00
52.8041 258.00
53.1084 227.00
53.4127 214.00
53.7169 200.00
54.0212 223.00
54.3254 242.00
54.6297 220.00
54.934 215.00
55.2382 217.00
55.5425 226.00
55.8467 191.00
56.151 229.00
56.4553 208.00
56.7595 168.00
57.0638 197.00
57.368 214.00
57.6723 230.00
57.9766 205.00
58.2808 214.00
58.5851 234.00
58.8893 174.00
59.1936 215.00
59.4979 198.00
59.8021 188.00
60.1064 205.00
60.4106 176.00
60.7149 182.00
61.0192 196.00
61.3234 178.00
61.6277 190.00
61.932 192.00
62.2362 187.00
62.5405 198.00
62.8447 188.00
63.149 193.00
63.4533 155.00
63.7575 202.00
64.0618 207.00
64.366 225.00
64.6703 210.00
64.9745 198.00
65.2788 204.00
65.5831 159.00
65.8873 151.00
66.1916 207.00
66.4959 171.00
66.8001 188.00
67.1044 175.00
67.4086 198.00
67.7129 159.00
68.0172 176.00
68.3214 175.00
68.6257 207.00
68.9299 184.00
69.2342 181.00
69.5385 135.00
69.8427 193.00
70.147 178.00
70.4512 184.00
70.7555 190.00
71.0598 191.00
71.364 184.00
71.6683 188.00
71.9725 177.00
72.2768 177.00
72.5811 178.00
72.8853 183.00
73.1896 176.00
73.4938 209.00
73.7981 184.00
74.1024 176.00
74.4066 204.00
74.7109 184.00
75.0151 209.00
75.3194 182.00
75.6237 198.00
75.9279 185.00
76.2322 199.00
76.5364 197.00
76.8407 179.00
77.145 202.00
77.4492 200.00
77.7535 211.00
78.0577 201.00
78.362 194.00
78.6663 216.00
78.9705 182.00
79.2748 204.00
79.579 207.00
79.8833 190.00
80.1876 220.00
80.4918 210.00
80.7961 201.00
81.1003 226.00
81.4046 205.00
81.7089 246.00
82.0131 223.00
82.3174 224.00
82.6217 178.00
82.9259 204.00
83.2302 201.00
83.5344 207.00
83.8387 219.00
84.143 183.00
84.4472 204.00
84.7515 198.00
85.0557 194.00
85.36 208.00
85.6643 217.00
85.9685 218.00
86.2728 198.00
86.577 174.00
86.8813 209.00
87.1856 178.00
87.4898 188.00
87.7941 201.00
88.0983 184.00
88.4026 203.00
88.7069 191.00
89.0111 193.00
89.3154 184.00
89.6196 183.00
89.9239 203.00
90.2282 185.00
90.5324 161.00
90.8367 193.00
91.1409 205.00
91.4452 157.00
91.7495 166.00
92.0537 178.00
92.358 167.00
92.6622 180.00
92.9665 183.00
93.2708 184.00
93.575 159.00
93.8793 151.00
94.1835 171.00
94.4878 191.00
94.7921 176.00
95.0963 173.00
95.4006 167.00
95.7048 157.00
96.0091 157.00
96.3134 181.00
96.6176 162.00
96.9219 168.00
97.2261 131.00
97.5304 187.00
97.8347 190.00
98.1389 175.00
98.4432 189.00
98.7474 181.00
99.0517 185.00
99.356 161.00
99.6602 190.00
99.9645 184.00
100.095 160.00

File: NSC_57.xy
9.903433 2656.00
10.2077 2623.00
10.512 2597.00
10.8162 2485.00
11.1205 2341.00
11.4247 2363.00
11.729 2207.00
12.0333 2125.00
12.3375 2001.00
12.6418 2028.00
12.946 2154.00
13.2503 2105.00
13.5546 2079.00
13.8588 1936.00
14.1631 1816.00
14.4673 1782.00
14.7716 2000.00
15.0759 3077.00
15.3801 1738.00
15.6844 1707.00
15.9886 1594.00
16.2929 1642.00
16.5972 1552.00
16.9014 1582.00
17.2057 1982.00
17.5099 2752.00
17.8142 1729.00
18.1185 2126.00
18.4227 1849.00
18.727 2519.00
19.0312 1636.00
19.3355 1425.00
19.6398 1352.00
19.944 1515.00
20.2483 1538.00
20.5525 3061.00
20.8568 4351.00
21.1611 1657.00
21.4653 3724.00
21.7696 7867.00
22.0738 3853.00
22.3781 1596.00
22.6824 1379.00
22.9866 1737.00
23.2909 1629.00
23.5951 1750.00
23.8994 1591.00
24.2037 2812.00
24.5079 1754.00
24.8122 1509.00
25.1164 6668.00
25.4207 3203.00
25.725 2036.00
26.0292 3086.00
26.3335 2172.00
26.6378 2822.00
26.942 1703.00
27.2463 1235.00
27.5505 1107.00
27.8548 1082.00
28.1591 1023.00
28.4633 1244.00
28.7676 1390.00
29.0718 1216.00
29.3761 1581.00
29.6804 1172.00
29.9846 1493.00
30.2889 4465.00
30.5931 3039.00
30.8974 2521.00
31.2017 1317.00
31.5059 1675.00
31.8102 1236.00
32.1144 1106.00
32.4187 1339.00
32.723 1173.00
33.0272 1872.00
33.3315 6451.00
33.6357 1341.00
33.94 1790.00
34.2443 1141.00
34.5485 1027.00
34.8528 1021.00
35.157 1093.00
35.4613 1224.00
35.7656 1280.00
36.0698 1554.00
36.3741 2354.00
36.6783 1221.00
36.9826 1002.00
37.2869 956.00
37.5911 1267.00
37.8954 1751.00
38.1996 1637.00
38.5039 2704.00
38.8082 974.00
39.1124 878.00
39.4167 1243.00
39.7209 1116.00
40.0252 964.00
40.3295 1027.00
40.6337 1156.00
40.938 899.00
41.2422 854.00
41.5465 978.00
41.8508 990.00
42.155 1062.00
42.4593 1013.00
42.7635 791.00
43.0678 759.00
43.3721 711.00
43.6763 926.00
43.9806 1379.00
44.2849 966.00
44.5891 1026.00
44.8934 949.00
45.1976 864.00
45.5019 948.00
45.8062 960.00
46.1104 1343.00
46.4147 1291.00
46.7189 884.00
47.0232 876.00
47.3275 966.00
47.6317 879.00
47.936 1423.00
48.2402 1895.00
48.5445 1384.00
48.8488 982.00
49.153 872.00
49.4573 1551.00
49.7615 2383.00
50.0658 1103.00
50.3701 859.00
50.6743 956.00
50.9786 932.00
51.2828 816.00
51.5871 1646.00
51.8914 2096.00
52.1956 872.00
52.4999 811.00
52.8041 977.00
53.1084 777.00
53.4127 869.00
53.7169 719.00
54.0212 798.00
54.3254 940.00
54.6297 1442.00
54.934 2271.00
55.2382 977.00
55.5425 747.00
55.8467 1074.00
56.151 761.00
56.4553 697.00
56.7595 787.00
57.0638 771.00
57.368 793.00
57.6723 685.00
57.9766 779.00
58.2808 1524.00
58.5851 1863.00
58.8893 1067.00
59.1936 762.00
59.4979 811.00
59.8021 1257.00
60.1064 1235.00
60.4106 1865.00
60.7149 927.00
61.0192 758.00
61.3234 883.00
61.6277 1103.00
61.932 1004.00
62.2362 858.00
62.5405 771.00
62.8447 662.00
63.149 1043.00
63.4533 799.00
63.7575 736.00
64.0618 997.00
64.366 1603.00
64.6703 1170.00
64.9745 774.00
65.2788 970.00
65.5831 978.00
65.8873 1120.00
66.1916 2174.00
66.4959 1447.00
66.8001 742.00
67.1044 828.00
67.4086 796.00
67.7129 894.00
68.0172 775.00
68.3214 772.00
68.6257 816.00
68.9299 1166.00
69.2342 1078.00
69.5385 1178.00
69.8427 834.00
70.147 700.00
70.4512 847.00
70.7555 1182.00
71.0598 844.00
71.364 634.00
71.6683 634.00
71.9725 568.00
72.2768 609.00
72.5811 616.00
72.8853 705.00
73.1896 817.00
73.4938 960.00
73.7981 791.00
74.1024 658.00
74.4066 588.00
74.7109 699.00
75.0151 788.00
75.3194 772.00
75.6237 769.00
75.9279 674.00
76.2322 661.00
76.5364 633.00
76.8407 668.00
77.145 661.00
77.4492 781.00
77.7535 1087.00
78.0577 768.00
78.362 670.00
78.6663 634.00
78.9705 670.00
79.2748 852.00
79.579 752.00
79.8833 753.00
80.1876 730.00
80.4918 617.00
80.7961 600.00
81.1003 561.00
81.4046 540.00
81.7089 576.00
82.0131 633.00
82.3174 800.00
82.6217 818.00
82.9259 618.00
83.2302 597.00
83.5344 651.00
83.8387 596.00
84.143 693.00
84.4472 685.00
84.7515 683.00
85.0557 668.00
85.36 567.00
85.6643 641.00
85.9685 622.00
86.2728 698.00
86.577 746.00
86.8813 603.00
87.1856 644.00
87.4898 773.00
87.7941 808.00
88.0983 620.00
88.4026 533.00
88.7069 588.00
89.0111 632.00
89.3154 621.00
89.6196 639.00
89.9239 577.00
90.2282 599.00
90.5324 504.00
90.8367 535.00
91.1409 533.00
91.4452 625.00
91.7495 805.00
92.0537 795.00
92.358 800.00
92.6622 951.00
92.9665 909.00
93.2708 795.00
93.575 655.00
93.8793 601.00
94.1835 575.00
94.4878 602.00
94.7921 593.00
95.0963 563.00
95.4006 550.00
95.7048 601.00
96.0091 652.00
96.3134 590.00
96.6176 598.00
96.9219 562.00
97.2261 527.00
97.5304 546.00
97.8347 581.00
98.1389 609.00
98.4432 710.00
98.7474 717.00
99.0517 643.00
99.356 601.00
99.6602 579.00
99.9645 695.00
100.095 679.00

File: NSC_58.xy
9.903433 2844.00
10.2077 2604.00
10.512 2597.00
10.8162 2553.00
11.1205 2507.00
11.4247 2349.00
11.729 2307.00
12.0333 2262.00
12.3375 2213.00
12.6418 2098.00
12.946 2153.00
13.2503 2043.00
13.5546 2030.00
13.8588 2330.00
14.1631 3031.00
14.4673 2140.00
14.7716 1968.00
15.0759 1968.00
15.3801 1892.00
15.6844 1866.00
15.9886 1811.00
16.2929 1908.00
16.5972 1813.00
16.9014 1785.00
17.2057 1888.00
17.5099 1786.00
17.8142 1792.00
18.1185 1679.00
18.4227 1807.00
18.727 1734.00
19.0312 1880.00
19.3355 2702.00
19.6398 6549.00
19.944 2600.00
20.2483 4498.00
20.5525 7332.00
20.8568 1925.00
21.1611 1711.00
21.4653 1772.00
21.7696 1793.00
22.0738 1700.00
22.3781 1672.00
22.6824 1704.00
22.9866 1859.00
23.2909 3128.00
23.5951 9160.00
23.8994 2518.00
24.2037 1897.00
24.5079 1722.00
24.8122 1708.00
25.1164 1574.00
25.4207 1560.00
25.725 1541.00
26.0292 1545.00
26.3335 1568.00
26.6378 1595.00
26.942 1515.00
27.2463 1526.00
27.5505 1700.00
27.8548 1663.00
28.1591 2655.00
28.4633 7164.00
28.7676 1934.00
29.0718 1529.00
29.3761 1453.00
29.6804 1537.00
29.9846 1528.00
30.2889 1498.00
30.5931 1609.00
30.8974 1973.00
31.2017 5853.00
31.5059 7351.00
31.8102 2291.00
32.1144 1510.00
32.4187 1562.00
32.723 1456.00
33.0272 1415.00
33.3315 1493.00
33.6357 1623.00
33.94 1630.00
34.2443 1565.00
34.5485 1515.00
34.8528 1758.00
35.157 3498.00
35.4613 3276.00
35.7656 4255.00
36.0698 1697.00
36.3741 1384.00
36.6783 1401.00
36.9826 1423.00
37.2869 1387.00
37.5911 1221.00
37.8954 1394.00
38.1996 1376.00
38.5039 1328.00
38.8082 1340.00
39.1124 1299.00
39.4167 1328.00
39.7209 1908.00
40.0252 1501.00
40.3295 1289.00
40.6337 1301.00
40.938 1419.00
41.2422 1914.00
41.5465 2126.00
41.8508 1457.00
42.155 1539.00
42.4593 1258.00
42.7635 1341.00
43.0678 2334.00
43.3721 1719.00
43.6763 1415.00
43.9806 1512.00
44.2849 1317.00
44.5891 1465.00
44.8934 2512.00
45.1976 2476.00
45.5019 1486.00
45.8062 1497.00
46.1104 2575.00
46.4147 1876.00
46.7189 1981.00
47.0232 1373.00
47.3275 1357.00
47.6317 1461.00
47.936 2993.00
48.2402 3416.00
48.5445 1550.00
48.8488 1691.00
49.153 1390.00
49.4573 1378.00
49.7615 1386.00
50.0658 1318.00
50.3701 1434.00
50.6743 1417.00
50.9786 1652.00
51.2828 3030.00
51.5871 2460.00
51.8914 1727.00
52.1956 1407.00
52.4999 1251.00
52.8041 1247.00
53.1084 1224.00
53.4127 1222.00
53.7169 1328.00
54.0212 1438.00
54.3254 2059.00
54.6297 1627.00
54.934 1496.00
55.2382 2540.00
55.5425 3965.00
55.8467 2547.00
56.151 1366.00
56.4553 1348.00
56.7595 1392.00
57.0638 1608.00
57.368 1379.00
57.6723 1298.00
57.9766 1531.00
58.2808 1708.00
58.5851 1685.00
58.8893 1385.00
59.1936 1228.00
59.4979 1335.00
59.8021 2049.00
60.1064 2152.00
60.4106 1487.00
60.7149 1393.00
61.0192 2187.00
61.3234 2426.00
61.6277 1477.00
61.932 1539.00
62.2362 1796.00
62.5405 1723.00
62.8447 1450.00
63.149 1478.00
63.4533 1717.00
63.7575 2072.00
64.0618 1838.00
64.366 1395.00
64.6703 1216.00
64.9745 1438.00
65.2788 1402.00
65.5831 1313.00
65.8873 1545.00
66.1916 1815.00
66.4959 1474.00
66.8001 1241.00
67.1044 1329.00
67.4086 1559.00
67.7129 1689.00
68.0172 1503.00
68.3214 1308.00
68.6257 1228.00
68.9299 1467.00
69.2342 1387.00
69.5385 1196.00
69.8427 1228.00
70.147 1205.00
70.4512 1157.00
70.7555 1314.00
71.0598 1722.00
71.364 1678.00
71.6683 1342.00
71.9725 1167.00
72.2768 1222.00
72.5811 1132.00
72.8853 1148.00
73.1896 1211.00
73.4938 1450.00
73.7981 1584.00
74.1024 1413.00
74.4066 1342.00
74.7109 1386.00
75.0151 1706.00
75.3194 1765.00
75.6237 1556.00
75.9279 1311.00
76.2322 1206.00
76.5364 1203.00
76.8407 1246.00
77.145 1249.00
77.4492 1200.00
77.7535 1145.00
78.0577 1187.00
78.362 1396.00
78.6663 1618.00
78.9705 1704.00
79.2748 1326.00
79.579 1176.00
79.8833 1197.00
80.1876 1198.00
80.4918 1275.00
80.7961 1490.00
81.1003 1524.00
81.4046 1211.00
81.7089 1234.00
82.0131 1142.00
82.3174 1116.00
82.6217 1171.00
82.9259 1229.00
83.2302 1382.00
83.5344 1433.00
83.8387 1419.00
84.143 1205.00
84.4472 1230.00
84.7515 1325.00
85.0557 1463.00
85.36 1348.00
85.6643 1449.00
85.9685 1486.00
86.2728 1373.00
86.577 1308.00
86.8813 1240.00
87.1856 1261.00
87.4898 1212.00
87.7941 1224.00
88.0983 1275.00
88.4026 1253.00
88.7069 1328.00
89.0111 1238.00
89.3154 1423.00
89.6196 1629.00
89.9239 1505.00
90.2282 1300.00
90.5324 1198.00
90.8367 1208.00
91.1409 1305.00
91.4452 1271.00
91.7495 1339.00
92.0537 1296.00
92.358 1263.00
92.6622 1191.00
92.9665 1224.00
93.2708 1253.00
93.575 1241.00
93.8793 1337.00
94.1835 1332.00
94.4878 1246.00
94.7921 1340.00
95.0963 1407.00
95.4006 1329.00
95.7048 1306.00
96.0091 1369.00
96.3134 1331.00
96.6176 1355.00
96.9219 1315.00
97.2261 1232.00
97.5304 1081.00
97.8347 1159.00
98.1389 1111.00
98.4432 1189.00
98.7474 1222.00
99.0517 1267.00
99.356 1316.00
99.6602 1307.00
99.9645 1442.00
100.095 1493.00

File: NSC_59.xy
9.903433 2990.00
10.2077 2810.00
10.512 2787.00
10.8162 2660.00
11.1205 2641.00
11.4247 2563.00
11.729 2458.00
12.0333 2319.00
12.3375 2248.00
12.6418 2335.00
12.946 2196.00
13.2503 2127.00
13.5546 2246.00
13.8588 3559.00
14.1631 2176.00
14.4673 2073.00
14.7716 2005.00
15.0759 2081.00
15.3801 1945.00
15.6844 1873.00
15.9886 1997.00
16.2929 1895.00
16.5972 1912.00
16.9014 1888.00
17.2057 1818.00
17.5099 1793.00
17.8142 1876.00
18.1185 1794.00
18.4227 1678.00
18.727 1827.00
19.0312 2020.00
19.3355 7546.00
19.6398 2659.00
19.944 3558.00
20.2483 8542.00
20.5525 1928.00
20.8568 1724.00
21.1611 1612.00
21.4653 1632.00
21.7696 1708.00
22.0738 1552.00
22.3781 1502.00
22.6824 1678.00
22.9866 2087.00
23.2909 10064.00
23.5951 2691.00
23.8994 1700.00
24.2037 1616.00
24.5079 1580.00
24.8122 1492.00
25.1164 1534.00
25.4207 1357.00
25.725 1510.00
26.0292 1589.00
26.3335 1472.00
26.6378 1338.00
26.942 1375.00
27.2463 1396.00
27.5505 1457.00
27.8548 1889.00
28.1591 7357.00
28.4633 1860.00
28.7676 1349.00
29.0718 1356.00
29.3761 1290.00
29.6804 1271.00
29.9846 1430.00
30.2889 1418.00
30.5931 1555.00
30.8974 4715.00
31.2017 7815.00
31.5059 2514.00
31.8102 1278.00
32.1144 1190.00
32.4187 1298.00
32.723 1278.00
33.0272 1301.00
33.3315 1325.00
33.6357 1441.00
33.94 1332.00
34.2443 1189.00
34.5485 1393.00
34.8528 3139.00
35.157 2906.00
35.4613 4400.00
35.7656 1496.00
36.0698 1176.00
36.3741 1114.00
36.6783 1143.00
36.9826 1099.00
37.2869 1149.00
37.5911 1067.00
37.8954 1101.00
38.1996 1008.00
38.5039 1150.00
38.8082 1046.00
39.1124 1143.00
39.4167 1536.00
39.7209 1264.00
40.0252 1064.00
40.3295 1076.00
40.6337 1157.00
40.938 1562.00
41.2422 1793.00
41.5465 1280.00
41.8508 1194.00
42.155 1078.00
42.4593 1074.00
42.7635 1945.00
43.0678 1601.00
43.3721 1105.00
43.6763 1176.00
43.9806 1011.00
44.2849 1067.00
44.5891 1958.00
44.8934 2391.00
45.1976 1214.00
45.5019 1098.00
45.8062 1993.00
46.1104 1625.00
46.4147 1690.00
46.7189 1195.00
47.0232 1036.00
47.3275 1113.00
47.6317 2208.00
47.936 3219.00
48.2402 1487.00
48.5445 1410.00
48.8488 1183.00
49.153 1090.00
49.4573 954.00
49.7615 933.00
50.0658 1148.00
50.3701 1072.00
50.6743 1202.00
50.9786 2249.00
51.2828 2415.00
51.5871 1634.00
51.8914 1082.00
52.1956 950.00
52.4999 982.00
52.8041 1007.00
53.1084 978.00
53.4127 934.00
53.7169 977.00
54.0212 1678.00
54.3254 1349.00
54.6297 1124.00
54.934 1913.00
55.2382 3282.00
55.5425 2404.00
55.8467 1362.00
56.151 1047.00
56.4553 1021.00
56.7595 1079.00
57.0638 1084.00
57.368 918.00
57.6723 1187.00
57.9766 1347.00
58.2808 1325.00
58.5851 1066.00
58.8893 949.00
59.1936 956.00
59.4979 1427.00
59.8021 1891.00
60.1064 1278.00
60.4106 1062.00
60.7149 1560.00
61.0192 2025.00
61.3234 1384.00
61.6277 1149.00
61.932 1458.00
62.2362 1368.00
62.5405 1256.00
62.8447 1114.00
63.149 1274.00
63.4533 1517.00
63.7575 1510.00
64.0618 1155.00
64.366 929.00
64.6703 968.00
64.9745 1072.00
65.2788 1018.00
65.5831 1114.00
65.8873 1454.00
66.1916 1210.00
66.4959 933.00
66.8001 939.00
67.1044 1186.00
67.4086 1271.00
67.7129 1196.00
68.0172 1011.00
68.3214 918.00
68.6257 1073.00
68.9299 1063.00
69.2342 898.00
69.5385 855.00
69.8427 862.00
70.147 872.00
70.4512 915.00
70.7555 1206.00
71.0598 1352.00
71.364 1017.00
71.6683 837.00
71.9725 870.00
72.2768 778.00
72.5811 786.00
72.8853 810.00
73.1896 1008.00
73.4938 1163.00
73.7981 1142.00
74.1024 967.00
74.4066 969.00
74.7109 1195.00
75.0151 1308.00
75.3194 1226.00
75.6237 926.00
75.9279 927.00
76.2322 809.00
76.5364 817.00
76.8407 854.00
77.145 877.00
77.4492 878.00
77.7535 770.00
78.0577 909.00
78.362 1077.00
78.6663 1203.00
78.9705 1139.00
79.2748 952.00
79.579 812.00
79.8833 864.00
80.1876 855.00
80.4918 1008.00
80.7961 1070.00
81.1003 988.00
81.4046 819.00
81.7089 780.00
82.0131 812.00
82.3174 789.00
82.6217 819.00
82.9259 980.00
83.2302 1025.00
83.5344 1045.00
83.8387 908.00
84.143 856.00
84.4472 933.00
84.7515 943.00
85.0557 1000.00
85.36 1028.00
85.6643 980.00
85.9685 1002.00
86.2728 971.00
86.577 861.00
86.8813 822.00
87.1856 812.00
87.4898 833.00
87.7941 875.00
88.0983 867.00
88.4026 862.00
88.7069 867.00
89.0111 951.00
89.3154 1194.00
89.6196 1031.00
89.9239 950.00
90.2282 857.00
90.5324 829.00
90.8367 831.00
91.1409 934.00
91.4452 974.00
91.7495 910.00
92.0537 835.00
92.358 842.00
92.6622 833.00
92.9665 846.00
93.2708 857.00
93.575 916.00
93.8793 926.00
94.1835 906.00
94.4878 888.00
94.7921 1014.00
95.0963 989.00
95.4006 905.00
95.7048 862.00
96.0091 960.00
96.3134 984.00
96.6176 975.00
96.9219 837.00
97.2261 787.00
97.5304 734.00
97.8347 744.00
98.1389 709.00
98.4432 762.00
98.7474 890.00
99.0517 900.00
99.356 856.00
99.6602 907.00
99.9645 1028.00
100.095 1034.00