Folder: alab-pipeline/data/xrd_creation/results (part 76)

File: NSC_222.xy
9.903433 2702.00
10.2077 2577.00
10.512 2476.00
10.8162 2379.00
11.1205 2344.00
11.4247 2325.00
11.729 2191.00
12.0333 2177.00
12.3375 2066.00
12.6418 2011.00
12.946 1955.00
13.2503 2004.00
13.5546 2054.00
13.8588 2455.00
14.1631 1909.00
14.4673 1769.00
14.7716 1755.00
15.0759 1751.00
15.3801 1660.00
15.6844 1664.00
15.9886 1678.00
16.2929 1581.00
16.5972 1673.00
16.9014 1657.00
17.2057 1540.00
17.5099 1611.00
17.8142 1618.00
18.1185 1605.00
18.4227 1554.00
18.727 1505.00
19.0312 1671.00
19.3355 3882.00
19.6398 5129.00
19.944 1546.00
20.2483 1499.00
20.5525 1750.00
20.8568 1809.00
21.1611 1536.00
21.4653 1533.00
21.7696 1301.00
22.0738 1348.00
22.3781 1381.00
22.6824 1539.00
22.9866 2856.00
23.2909 1617.00
23.5951 1311.00
23.8994 1480.00
24.2037 1361.00
24.5079 1321.00
24.8122 1236.00
25.1164 1252.00
25.4207 1189.00
25.725 1170.00
26.0292 1120.00
26.3335 1133.00
26.6378 1143.00
26.942 1215.00
27.2463 2174.00
27.5505 2050.00
27.8548 2424.00
28.1591 1456.00
28.4633 1483.00
28.7676 1219.00
29.0718 1165.00
29.3761 1194.00
29.6804 1527.00
29.9846 1422.00
30.2889 2069.00
30.5931 1621.00
30.8974 4276.00
31.2017 3842.00
31.5059 1430.00
31.8102 1292.00
32.1144 1010.00
32.4187 954.00
32.723 962.00
33.0272 1024.00
33.3315 1033.00
33.6357 993.00
33.94 1812.00
34.2443 6478.00
34.5485 1155.00
34.8528 1189.00
35.157 941.00
35.4613 1056.00
35.7656 1131.00
36.0698 1243.00
36.3741 908.00
36.6783 892.00
36.9826 839.00
37.2869 875.00
37.5911 950.00
37.8954 833.00
38.1996 845.00
38.5039 1205.00
38.8082 1015.00
39.1124 1041.00
39.4167 988.00
39.7209 1170.00
40.0252 863.00
40.3295 813.00
40.6337 839.00
40.938 932.00
41.2422 987.00
41.5465 1625.00
41.8508 1093.00
42.155 1299.00
42.4593 849.00
42.7635 831.00
43.0678 831.00
43.3721 906.00
43.6763 876.00
43.9806 862.00
44.2849 1229.00
44.5891 2456.00
44.8934 908.00
45.1976 796.00
45.5019 902.00
45.8062 847.00
46.1104 895.00
46.4147 1071.00
46.7189 2650.00
47.0232 1771.00
47.3275 870.00
47.6317 764.00
47.936 771.00
48.2402 808.00
48.5445 912.00
48.8488 976.00
49.153 1171.00
49.4573 889.00
49.7615 837.00
50.0658 777.00
50.3701 890.00
50.6743 1325.00
50.9786 1653.00
51.2828 1763.00
51.5871 940.00
51.8914 1006.00
52.1956 808.00
52.4999 750.00
52.8041 751.00
53.1084 1342.00
53.4127 2311.00
53.7169 912.00
54.0212 860.00
54.3254 1014.00
54.6297 807.00
54.934 877.00
55.2382 752.00
55.5425 820.00
55.8467 849.00
56.151 786.00
56.4553 835.00
56.7595 794.00
57.0638 829.00
57.368 822.00
57.6723 769.00
57.9766 748.00
58.2808 839.00
58.5851 900.00
58.8893 1335.00
59.1936 2818.00
59.4979 1353.00
59.8021 810.00
60.1064 820.00
60.4106 865.00
60.7149 920.00
61.0192 1691.00
61.3234 1545.00
61.6277 939.00
61.932 851.00
62.2362 886.00
62.5405 1020.00
62.8447 1109.00
63.149 980.00
63.4533 755.00
63.7575 794.00
64.0618 723.00
64.366 722.00
64.6703 905.00
64.9745 946.00
65.2788 818.00
65.5831 762.00
65.8873 891.00
66.1916 1178.00
66.4959 1291.00
66.8001 1003.00
67.1044 731.00
67.4086 763.00
67.7129 773.00
68.0172 730.00
68.3214 997.00
68.6257 967.00
68.9299 749.00
69.2342 693.00
69.5385 780.00
69.8427 759.00
70.147 704.00
70.4512 667.00
70.7555 707.00
71.0598 744.00
71.364 705.00
71.6683 877.00
71.9725 1218.00
72.2768 908.00
72.5811 675.00
72.8853 657.00
73.1896 852.00
73.4938 915.00
73.7981 817.00
74.1024 682.00
74.4066 673.00
74.7109 666.00
75.0151 737.00
75.3194 908.00
75.6237 892.00
75.9279 688.00
76.2322 716.00
76.5364 816.00
76.8407 910.00
77.145 905.00
77.4492 678.00
77.7535 642.00
78.0577 659.00
78.362 622.00
78.6663 635.00
78.9705 666.00
79.2748 671.00
79.579 796.00
79.8833 829.00
80.1876 982.00
80.4918 1097.00
80.7961 766.00
81.1003 637.00
81.4046 651.00
81.7089 716.00
82.0131 968.00
82.3174 841.00
82.6217 669.00
82.9259 680.00
83.2302 693.00
83.5344 736.00
83.8387 719.00
84.143 674.00
84.4472 695.00
84.7515 647.00
85.0557 681.00
85.36 726.00
85.6643 685.00
85.9685 713.00
86.2728 754.00
86.577 815.00
86.8813 1023.00
87.1856 898.00
87.4898 727.00
87.7941 691.00
88.0983 707.00
88.4026 727.00
88.7069 755.00
89.0111 765.00
89.3154 710.00
89.6196 691.00
89.9239 728.00
90.2282 865.00
90.5324 775.00
90.8367 688.00
91.1409 701.00
91.4452 650.00
91.7495 756.00
92.0537 775.00
92.358 709.00
92.6622 668.00
92.9665 690.00
93.2708 824.00
93.575 881.00
93.8793 756.00
94.1835 661.00
94.4878 705.00
94.7921 675.00
95.0963 809.00
95.4006 788.00
95.7048 808.00
96.0091 678.00
96.3134 662.00
96.6176 674.00
96.9219 699.00
97.2261 680.00
97.5304 679.00
97.8347 676.00
98.1389 690.00
98.4432 756.00
98.7474 680.00
99.0517 630.00
99.356 711.00
99.6602 772.00
99.9645 935.00
100.095 1002.00

File: PG_0917-1.xy
10.0094 3162.00
10.3137 3106.00
10.618 3158.00
10.9222 3024.00
11.2265 3099.00
11.5307 3036.00
11.835 2846.00
12.1393 2843.00
12.4435 2954.00
12.7478 2937.00
13.052 2769.00
13.3563 2867.00
13.6606 3000.00
13.9648 2807.00
14.2691 2919.00
14.5733 2846.00
14.8776 2774.00
15.1819 3004.00
15.4861 2826.00
15.7904 2848.00
16.0946 2866.00
16.3989 2793.00
16.7032 2929.00
17.0074 2853.00
17.3117 2908.00
17.6159 3017.00
17.9202 3203.00
18.2245 2881.00
18.5287 2855.00
18.833 2874.00
19.1372 2958.00
19.4415 2845.00
19.7458 2845.00
20.05 2839.00
20.3543 2856.00
20.6585 2868.00
20.9628 2867.00
21.2671 2780.00
21.5713 2929.00
21.8756 2868.00
22.1798 2827.00
22.4841 2858.00
22.7884 2919.00
23.0926 2794.00
23.3969 2867.00
23.7011 2903.00
24.0054 2970.00
24.3097 3315.00
24.6139 3703.00
24.9182 4768.00
25.2224 2891.00
25.5267 2918.00
25.831 2932.00
26.1352 2994.00
26.4395 2955.00
26.7438 2943.00
27.048 2899.00
27.3523 2965.00
27.6565 3130.00
27.9608 3152.00
28.2651 3889.00
28.5693 13367.00
28.8736 4858.00
29.1778 3417.00
29.4821 3151.00
29.7864 3055.00
30.0906 3117.00
30.3949 3158.00
30.6991 3207.00
31.0034 3137.00
31.3077 3506.00
31.6119 5199.00
31.9162 13078.00
32.2204 4295.00
32.5247 3297.00
32.829 3174.00
33.1332 3158.00
33.4375 3121.00
33.7417 3228.00
34.046 3215.00
34.3503 3510.00
34.6545 7133.00
34.9588 6140.00
35.263 3389.00
35.5673 3505.00
35.8716 6275.00
36.1758 3556.00
36.4801 3714.00
36.7843 3250.00
37.0886 6383.00
37.3929 3462.00
37.6971 3109.00
38.0014 3106.00
38.3056 3045.00
38.6099 3157.00
38.9142 3634.00
39.2184 3754.00
39.5227 3234.00
39.8269 3096.00
40.1312 3208.00
40.4355 3277.00
40.7397 3220.00
41.044 3574.00
41.3482 4627.00
41.6525 4037.00
41.9568 3787.00
42.261 3272.00
42.5653 3016.00
42.8695 3162.00
43.1738 3126.00
43.4781 3202.00
43.7823 3139.00
44.0866 3205.00
44.3909 3138.00
44.6951 3153.00
44.9994 3637.00
45.3036 3828.00
45.6079 3470.00
45.9122 3536.00
46.2164 3550.00
46.5207 3102.00
46.8249 3074.00
47.1292 3112.00
47.4335 3143.00
47.7377 3184.00
48.042 3138.00
48.3462 3247.00
48.6505 3231.00
48.9548 3111.00
49.259 3259.00
49.5633 3745.00
49.8675 6171.00
50.1718 3411.00
50.4761 3726.00
50.7803 6284.00
51.0846 4953.00
51.3888 3683.00
51.6931 3786.00
51.9974 3454.00
52.3016 3222.00
52.6059 3142.00
52.9101 3151.00
53.2144 3185.00
53.5187 3108.00
53.8229 3138.00
54.1272 3290.00
54.4314 3559.00
54.7357 4917.00
55.04 3568.00
55.3442 3381.00
55.6485 3553.00
55.9527 5938.00
56.257 4514.00
56.5613 4575.00
56.8655 3500.00
57.1698 3342.00
57.474 3459.00
57.7783 4484.00
58.0826 3579.00
58.3868 3665.00
58.6911 3997.00
58.9953 3785.00
59.2996 3470.00
59.6039 4479.00
59.9081 3607.00
60.2124 3616.00
60.5166 4641.00
60.8209 4026.00
61.1252 3386.00
61.4294 3323.00
61.7337 3469.00
62.0379 4226.00
62.3422 3748.00
62.6465 4281.00
62.9507 3539.00
63.255 3541.00
63.5592 4537.00
63.8635 3549.00
64.1678 3435.00
64.472 3318.00
64.7763 3615.00
65.0806 3611.00
65.3848 3944.00
65.6891 4299.00
65.9933 3710.00
66.2976 4220.00
66.6019 4059.00
66.9061 3444.00
67.2104 3266.00
67.5146 3259.00
67.8189 3298.00
68.1232 3158.00
68.4274 3254.00
68.7317 3279.00
69.0359 3368.00
69.3402 3276.00
69.6445 3652.00
69.9487 3301.00
70.253 3264.00
70.5572 3356.00
70.8615 3444.00
71.1658 3333.00
71.47 3383.00
71.7743 3896.00
72.0785 3768.00
72.3828 3506.00
72.6871 3530.00
72.9913 3473.00
73.2956 3537.00
73.5998 3506.00
73.9041 3350.00
74.2084 3399.00
74.5126 3381.00
74.8169 3279.00
75.1211 3346.00
75.4254 3577.00
75.7297 3741.00
76.0339 3860.00
76.3382 3317.00
76.6424 3336.00
76.9467 3303.00
77.251 3683.00
77.5552 3649.00
77.8595 3573.00
78.1637 3523.00
78.468 3500.00
78.7723 3552.00
79.0765 3382.00
79.3808 3328.00
79.685 3817.00
79.9893 3426.00
80.2936 3197.00
80.5978 3353.00
80.9021 3345.00
81.2063 3373.00
81.5106 3386.00
81.8149 3371.00
82.1191 3473.00
82.4234 3657.00
82.7277 3413.00
83.0319 3453.00
83.3362 3657.00
83.6404 3658.00
83.9447 3703.00
84.249 3620.00
84.5532 3577.00
84.8575 3668.00
85.1617 3638.00
85.466 3494.00
85.7703 3592.00
86.0745 3422.00
86.3788 3297.00
86.683 3387.00
86.9873 3516.00
87.2916 3375.00
87.5958 3071.00
87.9001 3333.00
88.2043 3590.00
88.5086 3636.00
88.8129 3552.00
89.1171 3707.00
89.4214 3824.00
89.7256 3597.00
90.0299 3596.00
90.3342 3565.00
90.6384 3739.00
90.9427 3633.00
91.2469 3296.00
91.5512 3471.00
91.8555 3340.00
92.1597 3475.00
92.464 3453.00
92.7682 3320.00
93.0725 3349.00
93.3768 3383.00
93.681 3293.00
93.9853 3361.00
94.2895 3755.00
94.5938 3643.00
94.8981 3548.00
95.2023 3474.00
95.5066 3519.00
95.8108 3500.00
96.1151 3765.00
96.4194 3498.00
96.7236 3451.00
97.0279 3764.00
97.3321 3675.00
97.6364 3713.00
97.9407 3751.00
98.2449 3564.00
98.5492 3490.00
98.8534 3650.00
99.1577 3587.00
99.462 3692.00
99.7662 3740.00
99.9944 3631.00

File: PG_0918-1.xy
10.0094 2742.00
10.3137 2715.00
10.618 2674.00
10.9222 2630.00
11.2265 2614.00
11.5307 2432.00
11.835 2464.00
12.1393 2358.00
12.4435 2346.00
12.7478 2259.00
13.052 2269.00
13.3563 2260.00
13.6606 2240.00
13.9648 2165.00
14.2691 2224.00
14.5733 2265.00
14.8776 2246.00
15.1819 2143.00
15.4861 2149.00
15.7904 2179.00
16.0946 2166.00
16.3989 2126.00
16.7032 2119.00
17.0074 2048.00
17.3117 2090.00
17.6159 2095.00
17.9202 2037.00
18.2245 2136.00
18.5287 2146.00
18.833 2104.00
19.1372 2127.00
19.4415 2112.00
19.7458 2124.00
20.05 2023.00
20.3543 2044.00
20.6585 2067.00
20.9628 1998.00
21.2671 2107.00
21.5713 2325.00
21.8756 2256.00
22.1798 2089.00
22.4841 2004.00
22.7884 1920.00
23.0926 2003.00
23.3969 1936.00
23.7011 2023.00
24.0054 1904.00
24.3097 1991.00
24.6139 1983.00
24.9182 1966.00
25.2224 1977.00
25.5267 2002.00
25.831 2007.00
26.1352 1912.00
26.4395 1991.00
26.7438 1969.00
27.048 1938.00
27.3523 1956.00
27.6565 2074.00
27.9608 2062.00
28.2651 1910.00
28.5693 1934.00
28.8736 1889.00
29.1778 1933.00
29.4821 1977.00
29.7864 1957.00
30.0906 2030.00
30.3949 2278.00
30.6991 5716.00
31.0034 4126.00
31.3077 2316.00
31.6119 2395.00
31.9162 1997.00
32.2204 1986.00
32.5247 1989.00
32.829 2036.00
33.1332 1976.00
33.4375 1992.00
33.7417 1935.00
34.046 1954.00
34.3503 1909.00
34.6545 1922.00
34.9588 1890.00
35.263 2147.00
35.5673 3014.00
35.8716 2829.00
36.1758 2056.00
36.4801 1985.00
36.7843 2141.00
37.0886 3656.00
37.3929 2118.00
37.6971 2113.00
38.0014 2360.00
38.3056 1945.00
38.6099 2048.00
38.9142 2110.00
39.2184 1951.00
39.5227 1972.00
39.8269 2002.00
40.1312 2032.00
40.4355 1965.00
40.7397 1902.00
41.044 1930.00
41.3482 1918.00
41.6525 2073.00
41.9568 2173.00
42.261 2139.00
42.5653 1969.00
42.8695 1947.00
43.1738 1975.00
43.4781 1900.00
43.7823 1926.00
44.0866 1994.00
44.3909 1919.00
44.6951 1978.00
44.9994 2230.00
45.3036 2030.00
45.6079 2065.00
45.9122 2619.00
46.2164 2084.00
46.5207 1922.00
46.8249 1994.00
47.1292 1934.00
47.4335 1898.00
47.7377 1938.00
48.042 2005.00
48.3462 2021.00
48.6505 1991.00
48.9548 2021.00
49.259 2085.00
49.5633 2198.00
49.8675 1973.00
50.1718 2034.00
50.4761 2063.00
50.7803 2044.00
51.0846 3177.00
51.3888 4025.00
51.6931 2116.00
51.9974 1943.00
52.3016 2031.00
52.6059 2033.00
52.9101 2144.00
53.2144 1962.00
53.5187 2007.00
53.8229 2070.00
54.1272 2007.00
54.4314 2072.00
54.7357 2043.00
55.04 1946.00
55.3442 2033.00
55.6485 1992.00
55.9527 2244.00
56.257 2561.00
56.5613 2044.00
56.8655 1988.00
57.1698 2002.00
57.474 2027.00
57.7783 2069.00
58.0826 2010.00
58.3868 1957.00
58.6911 2107.00
58.9953 2123.00
59.2996 2439.00
59.6039 2791.00
59.9081 2182.00
60.2124 2080.00
60.5166 2176.00
60.8209 3744.00
61.1252 2969.00
61.4294 2145.00
61.7337 1996.00
62.0379 2139.00
62.3422 2378.00
62.6465 2180.00
62.9507 2136.00
63.255 2072.00
63.5592 2055.00
63.8635 2507.00
64.1678 2176.00
64.472 2143.00
64.7763 2094.00
65.0806 2156.00
65.3848 2676.00
65.6891 2466.00
65.9933 2063.00
66.2976 2054.00
66.6019 2069.00
66.9061 2186.00
67.2104 2102.00
67.5146 2131.00
67.8189 2065.00
68.1232 2170.00
68.4274 2131.00
68.7317 2163.00
69.0359 2029.00
69.3402 2132.00
69.6445 2278.00
69.9487 2158.00
70.253 2067.00
70.5572 2067.00
70.8615 2098.00
71.1658 2047.00
71.47 2170.00
71.7743 2121.00
72.0785 2202.00
72.3828 2136.00
72.6871 2187.00
72.9913 2099.00
73.2956 2169.00
73.5998 2221.00
73.9041 2355.00
74.2084 2244.00
74.5126 2161.00
74.8169 2215.00
75.1211 2245.00
75.4254 2326.00
75.7297 2150.00
76.0339 2116.00
76.3382 2294.00
76.6424 2474.00
76.9467 2253.00
77.251 2152.00
77.5552 2299.00
77.8595 2336.00
78.1637 2294.00
78.468 2174.00
78.7723 2172.00
79.0765 2199.00
79.3808 2320.00
79.685 2192.00
79.9893 2244.00
80.2936 2236.00
80.5978 2348.00
80.9021 2245.00
81.2063 2148.00
81.5106 2211.00
81.8149 2263.00
82.1191 2526.00
82.4234 2225.00
82.7277 2260.00
83.0319 2254.00
83.3362 2746.00
83.6404 2500.00
83.9447 2220.00
84.249 2217.00
84.5532 2288.00
84.8575 2204.00
85.1617 2207.00
85.466 2178.00
85.7703 2316.00
86.0745 2637.00
86.3788 2306.00
86.683 2297.00
86.9873 2327.00
87.2916 2366.00
87.5958 2324.00
87.9001 2288.00
88.2043 2222.00
88.5086 2387.00
88.8129 2268.00
89.1171 2307.00
89.4214 2272.00
89.7256 2356.00
90.0299 2491.00
90.3342 2374.00
90.6384 2209.00
90.9427 2284.00
91.2469 2375.00
91.5512 2222.00
91.8555 2308.00
92.1597 2321.00
92.464 2327.00
92.7682 2425.00
93.0725 2274.00
93.3768 2403.00
93.681 2362.00
93.9853 2299.00
94.2895 2539.00
94.5938 2393.00
94.8981 2321.00
95.2023 2475.00
95.5066 2455.00
95.8108 2322.00
96.1151 2363.00
96.4194 2397.00
96.7236 2576.00
97.0279 2505.00
97.3321 2334.00
97.6364 2359.00
97.9407 2505.00
98.2449 2441.00
98.5492 2418.00
98.8534 2403.00
99.1577 2455.00
99.462 2432.00
99.7662 2420.00
99.9944 2390.00

File: PG_0920-1.xy
10.0094 4984.00
10.3137 4964.00
10.618 4980.00
10.9222 4742.00
11.2265 5004.00
11.5307 4969.00
11.835 4956.00
12.1393 5113.00
12.4435 5096.00
12.7478 5098.00
13.052 5127.00
13.3563 5023.00
13.6606 5069.00
13.9648 5147.00
14.2691 5238.00
14.5733 5205.00
14.8776 5185.00
15.1819 5146.00
15.4861 5239.00
15.7904 5262.00
16.0946 5340.00
16.3989 5384.00
16.7032 5373.00
17.0074 5184.00
17.3117 5425.00
17.6159 6191.00
17.9202 5173.00
18.2245 5564.00
18.5287 5458.00
18.833 5525.00
19.1372 5646.00
19.4415 5741.00
19.7458 5378.00
20.05 5330.00
20.3543 5553.00
20.6585 5427.00
20.9628 5383.00
21.2671 5463.00
21.5713 5511.00
21.8756 5459.00
22.1798 5476.00
22.4841 5392.00
22.7884 5432.00
23.0926 5450.00
23.3969 5580.00
23.7011 5647.00
24.0054 7431.00
24.3097 5879.00
24.6139 5510.00
24.9182 5507.00
25.2224 5443.00
25.5267 5531.00
25.831 5381.00
26.1352 5526.00
26.4395 5537.00
26.7438 5521.00
27.048 5548.00
27.3523 5575.00
27.6565 5509.00
27.9608 5449.00
28.2651 5561.00
28.5693 5515.00
28.8736 5625.00
29.1778 5491.00
29.4821 5410.00
29.7864 5567.00
30.0906 5742.00
30.3949 5497.00
30.6991 5723.00
31.0034 13994.00
31.3077 5715.00
31.6119 7263.00
31.9162 5541.00
32.2204 5448.00
32.5247 5587.00
32.829 5486.00
33.1332 5600.00
33.4375 5553.00
33.7417 5559.00
34.046 5645.00
34.3503 6761.00
34.6545 5600.00
34.9588 5478.00
35.263 5460.00
35.5673 5986.00
35.8716 5556.00
36.1758 5473.00
36.4801 5470.00
36.7843 5692.00
37.0886 11393.00
37.3929 5892.00
37.6971 5429.00
38.0014 5534.00
38.3056 5761.00
38.6099 5822.00
38.9142 5962.00
39.2184 5430.00
39.5227 5405.00
39.8269 5465.00
40.1312 5456.00
40.4355 5582.00
40.7397 5570.00
41.044 5561.00
41.3482 5425.00
41.6525 5309.00
41.9568 5443.00
42.261 5473.00
42.5653 5539.00
42.8695 5434.00
43.1738 5509.00
43.4781 5570.00
43.7823 5469.00
44.0866 5471.00
44.3909 5551.00
44.6951 5373.00
44.9994 6136.00
45.3036 5609.00
45.6079 5356.00
45.9122 5594.00
46.2164 5687.00
46.5207 5668.00
46.8249 7812.00
47.1292 5648.00
47.4335 5591.00
47.7377 5490.00
48.042 5636.00
48.3462 5465.00
48.6505 5569.00
48.9548 5513.00
49.259 5595.00
49.5633 5475.00
49.8675 5438.00
50.1718 5415.00
50.4761 5543.00
50.7803 5362.00
51.0846 5539.00
51.3888 5563.00
51.6931 5469.00
51.9974 5502.00
52.3016 5358.00
52.6059 5439.00
52.9101 5385.00
53.2144 5395.00
53.5187 5418.00
53.8229 5348.00
54.1272 5475.00
54.4314 5466.00
54.7357 5258.00
55.04 5587.00
55.3442 6346.00
55.6485 5507.00
55.9527 5993.00
56.257 5626.00
56.5613 5479.00
56.8655 5508.00
57.1698 5428.00
57.474 5454.00
57.7783 5420.00
58.0826 5573.00
58.3868 5433.00
58.6911 5793.00
58.9953 5935.00
59.2996 5634.00
59.6039 7549.00
59.9081 5767.00
60.2124 5645.00
60.5166 5472.00
60.8209 5545.00
61.1252 5475.00
61.4294 5514.00
61.7337 5340.00
62.0379 5498.00
62.3422 5406.00
62.6465 5478.00
62.9507 5452.00
63.255 5322.00
63.5592 5438.00
63.8635 5436.00
64.1678 5900.00
64.472 5551.00
64.7763 5407.00
65.0806 5559.00
65.3848 6242.00
65.6891 6633.00
65.9933 5450.00
66.2976 5352.00
66.6019 5366.00
66.9061 5651.00
67.2104 5398.00
67.5146 5596.00
67.8189 5551.00
68.1232 5425.00
68.4274 5367.00
68.7317 5518.00
69.0359 5531.00
69.3402 5523.00
69.6445 5565.00
69.9487 6278.00
70.253 5445.00
70.5572 5481.00
70.8615 5513.00
71.1658 5540.00
71.47 5489.00
71.7743 5731.00
72.0785 5511.00
72.3828 5367.00
72.6871 5372.00
72.9913 5471.00
73.2956 5389.00
73.5998 5495.00
73.9041 5549.00
74.2084 5280.00
74.5126 5639.00
74.8169 5639.00
75.1211 5351.00
75.4254 5447.00
75.7297 5428.00
76.0339 5575.00
76.3382 5560.00
76.6424 5539.00
76.9467 5560.00
77.251 5464.00
77.5552 5789.00
77.8595 5561.00
78.1637 5417.00
78.468 5467.00
78.7723 5542.00
79.0765 5487.00
79.3808 5487.00
79.685 5936.00
79.9893 5749.00
80.2936 5600.00
80.5978 5465.00
80.9021 5442.00
81.2063 5461.00
81.5106 5488.00
81.8149 5710.00
82.1191 5711.00
82.4234 5345.00
82.7277 5517.00
83.0319 5487.00
83.3362 5436.00
83.6404 5546.00
83.9447 5514.00
84.249 5417.00
84.5532 5451.00
84.8575 5484.00
85.1617 5461.00
85.466 5406.00
85.7703 5611.00
86.0745 5457.00
86.3788 5457.00
86.683 5405.00
86.9873 5597.00
87.2916 5328.00
87.5958 5507.00
87.9001 5437.00
88.2043 5499.00
88.5086 5421.00
88.8129 5387.00
89.1171 5294.00
89.4214 5618.00
89.7256 5393.00
90.0299 5472.00
90.3342 5359.00
90.6384 5445.00
90.9427 5514.00
91.2469 5472.00
91.5512 5480.00
91.8555 5481.00
92.1597 5534.00
92.464 5281.00
92.7682 5538.00
93.0725 5635.00
93.3768 5383.00
93.681 5357.00
93.9853 5534.00
94.2895 5927.00
94.5938 5873.00
94.8981 5589.00
95.2023 5511.00
95.5066 5758.00
95.8108 5736.00
96.1151 5375.00
96.4194 5500.00
96.7236 5674.00
97.0279 5516.00
97.3321 5580.00
97.6364 5461.00
97.9407 5480.00
98.2449 5347.00
98.5492 5558.00
98.8534 5538.00
99.1577 5591.00
99.462 5718.00
99.7662 5730.00
99.9944 5568.00

File: PG_0921-1.xy
9.903433 3289.00
10.2077 3325.00
10.512 3079.00
10.8162 3042.00
11.1205 3128.00
11.4247 2995.00
11.729 2811.00
12.0333 2778.00
12.3375 2823.00
12.6418 2738.00
12.946 2706.00
13.2503 2782.00
13.5546 2703.00
13.8588 2788.00
14.1631 2587.00
14.4673 2644.00
14.7716 2755.00
15.0759 2697.00
15.3801 2823.00
15.6844 3456.00
15.9886 7907.00
16.2929 3382.00
16.5972 2860.00
16.9014 2662.00
17.2057 2738.00
17.5099 2613.00
17.8142 2710.00
18.1185 2504.00
18.4227 2549.00
18.727 2595.00
19.0312 2536.00
19.3355 2844.00
19.6398 2566.00
19.944 2565.00
20.2483 2405.00
20.5525 2499.00
20.8568 2538.00
21.1611 2459.00
21.4653 2502.00
21.7696 2477.00
22.0738 2614.00
22.3781 2420.00
22.6824 2450.00
22.9866 2389.00
23.2909 2464.00
23.5951 2393.00
23.8994 2441.00
24.2037 2407.00
24.5079 2366.00
24.8122 2529.00
25.1164 2552.00
25.4207 2539.00
25.725 2507.00
26.0292 2404.00
26.3335 2474.00
26.6378 2487.00
26.942 2616.00
27.2463 2943.00
27.5505 5845.00
27.8548 4618.00
28.1591 4785.00
28.4633 7798.00
28.7676 2976.00
29.0718 2654.00
29.3761 2571.00
29.6804 2483.00
29.9846 2425.00
30.2889 2412.00
30.5931 2455.00
30.8974 2393.00
31.2017 2425.00
31.5059 2881.00
31.8102 3216.00
32.1144 3282.00
32.4187 2511.00
32.723 2487.00
33.0272 2488.00
33.3315 2498.00
33.6357 2367.00
33.94 2483.00
34.2443 2446.00
34.5485 2404.00
34.8528 2368.00
35.157 2378.00
35.4613 2465.00
35.7656 2404.00
36.0698 2359.00
36.3741 2872.00
36.6783 2452.00
36.9826 2640.00
37.2869 5260.00
37.5911 2462.00
37.8954 2393.00
38.1996 2482.00
38.5039 2421.00
38.8082 2470.00
39.1124 2624.00
39.4167 2735.00
39.7209 5264.00
40.0252 5142.00
40.3295 2774.00
40.6337 2401.00
40.938 2453.00
41.2422 2443.00
41.5465 2371.00
41.8508 2364.00
42.155 2431.00
42.4593 2843.00
42.7635 2957.00
43.0678 2424.00
43.3721 2361.00
43.6763 2370.00
43.9806 2410.00
44.2849 2341.00
44.5891 2356.00
44.8934 2321.00
45.1976 2981.00
45.5019 2380.00
45.8062 2286.00
46.1104 2350.00
46.4147 2244.00
46.7189 2292.00
47.0232 2450.00
47.3275 2647.00
47.6317 2972.00
47.936 2464.00
48.2402 2811.00
48.5445 4352.00
48.8488 4918.00
49.153 5450.00
49.4573 2934.00
49.7615 2497.00
50.0658 2536.00
50.3701 2956.00
50.6743 2420.00
50.9786 2444.00
51.2828 2310.00
51.5871 2239.00
51.8914 2310.00
52.1956 2307.00
52.4999 2304.00
52.8041 2353.00
53.1084 2258.00
53.4127 2259.00
53.7169 2292.00
54.0212 2313.00
54.3254 2248.00
54.6297 2377.00
54.934 2306.00
55.2382 2403.00
55.5425 3173.00
55.8467 3056.00
56.151 2578.00
56.4553 2660.00
56.7595 2722.00
57.0638 2330.00
57.368 2153.00
57.6723 2366.00
57.9766 2355.00
58.2808 2565.00
58.5851 2383.00
58.8893 2525.00
59.1936 2587.00
59.4979 2515.00
59.8021 2834.00
60.1064 2355.00
60.4106 2358.00
60.7149 2163.00
61.0192 2220.00
61.3234 2116.00
61.6277 2150.00
61.932 2367.00
62.2362 2315.00
62.5405 2294.00
62.8447 2210.00
63.149 2224.00
63.4533 2217.00
63.7575 2365.00
64.0618 2558.00
64.366 3207.00
64.6703 2631.00
64.9745 2356.00
65.2788 2579.00
65.5831 3658.00
65.8873 2541.00
66.1916 2409.00
66.4959 2394.00
66.8001 2258.00
67.1044 2216.00
67.4086 2273.00
67.7129 2199.00
68.0172 2234.00
68.3214 2151.00
68.6257 2186.00
68.9299 2282.00
69.2342 2308.00
69.5385 2369.00
69.8427 2587.00
70.147 2751.00
70.4512 2362.00
70.7555 2354.00
71.0598 2478.00
71.364 2474.00
71.6683 2348.00
71.9725 2262.00
72.2768 2277.00
72.5811 2243.00
72.8853 2269.00
73.1896 2388.00
73.4938 2222.00
73.7981 2269.00
74.1024 2189.00
74.4066 2342.00
74.7109 2250.00
75.0151 2272.00
75.3194 2191.00
75.6237 2285.00
75.9279 2443.00
76.2322 2672.00
76.5364 2616.00
76.8407 2629.00
77.145 2605.00
77.4492 2922.00
77.7535 3327.00
78.0577 2923.00
78.362 2507.00
78.6663 2560.00
78.9705 2491.00
79.2748 2400.00
79.579 2321.00
79.8833 2317.00
80.1876 2323.00
80.4918 2372.00
80.7961 2201.00
81.1003 2246.00
81.4046 2182.00
81.7089 2274.00
82.0131 2266.00
82.3174 2332.00
82.6217 2546.00
82.9259 2431.00
83.2302 2348.00
83.5344 2157.00
83.8387 2208.00
84.143 2126.00
84.4472 2256.00
84.7515 2272.00
85.0557 2303.00
85.36 2289.00
85.6643 2328.00
85.9685 2186.00
86.2728 2203.00
86.577 2224.00
86.8813 2306.00
87.1856 2291.00
87.4898 2289.00
87.7941 2288.00
88.0983 2267.00
88.4026 2262.00
88.7069 2385.00
89.0111 2585.00
89.3154 2407.00
89.6196 2318.00
89.9239 2297.00
90.2282 2263.00
90.5324 2506.00
90.8367 2435.00
91.1409 2293.00
91.4452 2369.00
91.7495 2485.00
92.0537 2321.00
92.358 2311.00
92.6622 2187.00
92.9665 2291.00
93.2708 2217.00
93.575 2232.00
93.8793 2296.00
94.1835 2238.00
94.4878 2542.00
94.7921 2451.00
95.0963 2301.00
95.4006 2430.00
95.7048 2515.00
96.0091 2595.00
96.3134 2447.00
96.6176 2385.00
96.9219 2478.00
97.2261 2494.00
97.5304 2406.00
97.8347 2433.00
98.1389 2282.00
98.4432 2294.00
98.7474 2324.00
99.0517 2244.00
99.356 2230.00
99.6602 2273.00
99.9645 2210.00
100.095 2260.00