Folder: alab-pipeline/data/xrd_creation/results (part 18)

File: Na_102.xy
9.903433 2624.00
10.2077 2500.00
10.512 2383.00
10.8162 2384.00
11.1205 2356.00
11.4247 2209.00
11.729 2015.00
12.0333 1950.00
12.3375 1913.00
12.6418 1884.00
12.946 1781.00
13.2503 1693.00
13.5546 1663.00
13.8588 1646.00
14.1631 1628.00
14.4673 1626.00
14.7716 1409.00
15.0759 1526.00
15.3801 1422.00
15.6844 1399.00
15.9886 1329.00
16.2929 1303.00
16.5972 1274.00
16.9014 1318.00
17.2057 1241.00
17.5099 1208.00
17.8142 1198.00
18.1185 1126.00
18.4227 1223.00
18.727 1132.00
19.0312 1162.00
19.3355 1236.00
19.6398 1343.00
19.944 1398.00
20.2483 1147.00
20.5525 1020.00
20.8568 1162.00
21.1611 1730.00
21.4653 1108.00
21.7696 1030.00
22.0738 1011.00
22.3781 1014.00
22.6824 856.00
22.9866 912.00
23.2909 858.00
23.5951 922.00
23.8994 1033.00
24.2037 1255.00
24.5079 980.00
24.8122 871.00
25.1164 975.00
25.4207 866.00
25.725 976.00
26.0292 1058.00
26.3335 1220.00
26.6378 1269.00
26.942 1053.00
27.2463 928.00
27.5505 1014.00
27.8548 985.00
28.1591 831.00
28.4633 827.00
28.7676 940.00
29.0718 1070.00
29.3761 1046.00
29.6804 878.00
29.9846 825.00
30.2889 813.00
30.5931 939.00
30.8974 1163.00
31.2017 847.00
31.5059 1020.00
31.8102 1256.00
32.1144 943.00
32.4187 822.00
32.723 772.00
33.0272 763.00
33.3315 822.00
33.6357 950.00
33.94 1095.00
34.2443 1077.00
34.5485 706.00
34.8528 697.00
35.157 650.00
35.4613 603.00
35.7656 576.00
36.0698 604.00
36.3741 646.00
36.6783 625.00
36.9826 721.00
37.2869 920.00
37.5911 637.00
37.8954 627.00
38.1996 575.00
38.5039 541.00
38.8082 520.00
39.1124 560.00
39.4167 493.00
39.7209 534.00
40.0252 484.00
40.3295 433.00
40.6337 429.00
40.938 436.00
41.2422 480.00
41.5465 458.00
41.8508 444.00
42.155 419.00
42.4593 437.00
42.7635 471.00
43.0678 570.00
43.3721 490.00
43.6763 430.00
43.9806 427.00
44.2849 497.00
44.5891 441.00
44.8934 405.00
45.1976 426.00
45.5019 426.00
45.8062 469.00
46.1104 440.00
46.4147 449.00
46.7189 440.00
47.0232 493.00
47.3275 416.00
47.6317 420.00
47.936 481.00
48.2402 458.00
48.5445 430.00
48.8488 378.00
49.153 373.00
49.4573 450.00
49.7615 518.00
50.0658 433.00
50.3701 417.00
50.6743 446.00
50.9786 459.00
51.2828 504.00
51.5871 690.00
51.8914 710.00
52.1956 642.00
52.4999 545.00
52.8041 510.00
53.1084 458.00
53.4127 390.00
53.7169 458.00
54.0212 437.00
54.3254 441.00
54.6297 430.00
54.934 429.00
55.2382 401.00
55.5425 351.00
55.8467 394.00
56.151 375.00
56.4553 369.00
56.7595 368.00
57.0638 333.00
57.368 403.00
57.6723 445.00
57.9766 464.00
58.2808 439.00
58.5851 346.00
58.8893 353.00
59.1936 341.00
59.4979 377.00
59.8021 299.00
60.1064 319.00
60.4106 320.00
60.7149 329.00
61.0192 331.00
61.3234 366.00
61.6277 418.00
61.932 385.00
62.2362 361.00
62.5405 363.00
62.8447 355.00
63.149 378.00
63.4533 359.00
63.7575 407.00
64.0618 334.00
64.366 359.00
64.6703 398.00
64.9745 334.00
65.2788 352.00
65.5831 383.00
65.8873 384.00
66.1916 376.00
66.4959 406.00
66.8001 342.00
67.1044 352.00
67.4086 282.00
67.7129 298.00
68.0172 260.00
68.3214 247.00
68.6257 235.00
68.9299 220.00
69.2342 232.00
69.5385 257.00
69.8427 276.00
70.147 293.00
70.4512 304.00
70.7555 290.00
71.0598 271.00
71.364 241.00
71.6683 269.00
71.9725 263.00
72.2768 314.00
72.5811 230.00
72.8853 290.00
73.1896 282.00
73.4938 271.00
73.7981 221.00
74.1024 266.00
74.4066 267.00
74.7109 268.00
75.0151 239.00
75.3194 284.00
75.6237 276.00
75.9279 242.00
76.2322 222.00
76.5364 261.00
76.8407 251.00
77.145 277.00
77.4492 270.00
77.7535 263.00
78.0577 265.00
78.362 292.00
78.6663 291.00
78.9705 285.00
79.2748 280.00
79.579 277.00
79.8833 283.00
80.1876 289.00
80.4918 261.00
80.7961 280.00
81.1003 285.00
81.4046 282.00
81.7089 301.00
82.0131 273.00
82.3174 267.00
82.6217 263.00
82.9259 307.00
83.2302 294.00
83.5344 264.00
83.8387 273.00
84.143 318.00
84.4472 297.00
84.7515 222.00
85.0557 260.00
85.36 226.00
85.6643 230.00
85.9685 250.00
86.2728 257.00
86.577 292.00
86.8813 271.00
87.1856 285.00
87.4898 301.00
87.7941 240.00
88.0983 245.00
88.4026 257.00
88.7069 237.00
89.0111 278.00
89.3154 282.00
89.6196 260.00
89.9239 291.00
90.2282 246.00
90.5324 302.00
90.8367 278.00
91.1409 274.00
91.4452 277.00
91.7495 228.00
92.0537 259.00
92.358 208.00
92.6622 245.00
92.9665 245.00
93.2708 258.00
93.575 232.00
93.8793 259.00
94.1835 260.00
94.4878 241.00
94.7921 250.00
95.0963 219.00
95.4006 221.00
95.7048 237.00
96.0091 256.00
96.3134 233.00
96.6176 257.00
96.9219 263.00
97.2261 210.00
97.5304 233.00
97.8347 226.00
98.1389 230.00
98.4432 247.00
98.7474 228.00
99.0517 234.00
99.356 241.00
99.6602 214.00
99.9645 196.00
100.095 228.00

File: Na_103.xy
9.903433 2838.00
10.2077 2632.00
10.512 2559.00
10.8162 2495.00
11.1205 2429.00
11.4247 2377.00
11.729 2225.00
12.0333 2185.00
12.3375 2223.00
12.6418 1997.00
12.946 1848.00
13.2503 1963.00
13.5546 1931.00
13.8588 1828.00
14.1631 1802.00
14.4673 1809.00
14.7716 1752.00
15.0759 1609.00
15.3801 1728.00
15.6844 1659.00
15.9886 1589.00
16.2929 1660.00
16.5972 1598.00
16.9014 1510.00
17.2057 1533.00
17.5099 1550.00
17.8142 1584.00
18.1185 1548.00
18.4227 1401.00
18.727 1406.00
19.0312 1514.00
19.3355 1501.00
19.6398 1553.00
19.944 1331.00
20.2483 1382.00
20.5525 1391.00
20.8568 1324.00
21.1611 1271.00
21.4653 1446.00
21.7696 1817.00
22.0738 1342.00
22.3781 1391.00
22.6824 1514.00
22.9866 1236.00
23.2909 1226.00
23.5951 1209.00
23.8994 1211.00
24.2037 1143.00
24.5079 1085.00
24.8122 1099.00
25.1164 1162.00
25.4207 1123.00
25.725 1250.00
26.0292 1305.00
26.3335 1516.00
26.6378 4119.00
26.942 15909.00
27.2463 1887.00
27.5505 1284.00
27.8548 1224.00
28.1591 1125.00
28.4633 1207.00
28.7676 1004.00
29.0718 1042.00
29.3761 1144.00
29.6804 1729.00
29.9846 5546.00
30.2889 2295.00
30.5931 1956.00
30.8974 1259.00
31.2017 1023.00
31.5059 975.00
31.8102 1004.00
32.1144 1013.00
32.4187 785.00
32.723 853.00
33.0272 880.00
33.3315 974.00
33.6357 1207.00
33.94 3651.00
34.2443 11869.00
34.5485 1588.00
34.8528 957.00
35.157 835.00
35.4613 883.00
35.7656 1074.00
36.0698 926.00
36.3741 714.00
36.6783 680.00
36.9826 752.00
37.2869 781.00
37.5911 1087.00
37.8954 1108.00
38.1996 4310.00
38.5039 1167.00
38.8082 750.00
39.1124 868.00
39.4167 1033.00
39.7209 678.00
40.0252 602.00
40.3295 653.00
40.6337 586.00
40.938 588.00
41.2422 546.00
41.5465 574.00
41.8508 556.00
42.155 616.00
42.4593 595.00
42.7635 616.00
43.0678 760.00
43.3721 1005.00
43.6763 658.00
43.9806 737.00
44.2849 678.00
44.5891 625.00
44.8934 595.00
45.1976 600.00
45.5019 557.00
45.8062 539.00
46.1104 532.00
46.4147 499.00
46.7189 487.00
47.0232 439.00
47.3275 477.00
47.6317 452.00
47.936 452.00
48.2402 445.00
48.5445 472.00
48.8488 662.00
49.153 592.00
49.4573 752.00
49.7615 600.00
50.0658 618.00
50.3701 531.00
50.6743 555.00
50.9786 547.00
51.2828 652.00
51.5871 1009.00
51.8914 4069.00
52.1956 7733.00
52.4999 1081.00
52.8041 609.00
53.1084 554.00
53.4127 513.00
53.7169 522.00
54.0212 666.00
54.3254 738.00
54.6297 754.00
54.934 2032.00
55.2382 1558.00
55.5425 569.00
55.8467 496.00
56.151 480.00
56.4553 499.00
56.7595 588.00
57.0638 651.00
57.368 611.00
57.6723 687.00
57.9766 1179.00
58.2808 1213.00
58.5851 742.00
58.8893 819.00
59.1936 538.00
59.4979 431.00
59.8021 459.00
60.1064 447.00
60.4106 489.00
60.7149 513.00
61.0192 478.00
61.3234 438.00
61.6277 510.00
61.932 978.00
62.2362 2142.00
62.5405 670.00
62.8447 530.00
63.149 544.00
63.4533 576.00
63.7575 562.00
64.0618 513.00
64.366 528.00
64.6703 679.00
64.9745 2747.00
65.2788 1056.00
65.5831 557.00
65.8873 707.00
66.1916 3034.00
66.4959 1340.00
66.8001 483.00
67.1044 467.00
67.4086 444.00
67.7129 472.00
68.0172 515.00
68.3214 463.00
68.6257 384.00
68.9299 387.00
69.2342 409.00
69.5385 407.00
69.8427 369.00
70.147 407.00
70.4512 421.00
70.7555 447.00
71.0598 550.00
71.364 959.00
71.6683 1253.00
71.9725 515.00
72.2768 400.00
72.5811 372.00
72.8853 364.00
73.1896 325.00
73.4938 346.00
73.7981 310.00
74.1024 320.00
74.4066 314.00
74.7109 342.00
75.0151 310.00
75.3194 296.00
75.6237 318.00
75.9279 415.00
76.2322 414.00
76.5364 396.00
76.8407 346.00
77.145 344.00
77.4492 341.00
77.7535 360.00
78.0577 340.00
78.362 390.00
78.6663 596.00
78.9705 1998.00
79.2748 926.00
79.579 442.00
79.8833 346.00
80.1876 349.00
80.4918 312.00
80.7961 350.00
81.1003 432.00
81.4046 828.00
81.7089 466.00
82.0131 334.00
82.3174 298.00
82.6217 307.00
82.9259 341.00
83.2302 403.00
83.5344 362.00
83.8387 1054.00
84.143 1039.00
84.4472 438.00
84.7515 299.00
85.0557 316.00
85.36 295.00
85.6643 312.00
85.9685 321.00
86.2728 313.00
86.577 314.00
86.8813 346.00
87.1856 373.00
87.4898 808.00
87.7941 542.00
88.0983 373.00
88.4026 355.00
88.7069 301.00
89.0111 326.00
89.3154 358.00
89.6196 438.00
89.9239 1312.00
90.2282 1123.00
90.5324 565.00
90.8367 651.00
91.1409 1527.00
91.4452 1000.00
91.7495 410.00
92.0537 356.00
92.358 329.00
92.6622 343.00
92.9665 341.00
93.2708 442.00
93.575 772.00
93.8793 557.00
94.1835 341.00
94.4878 325.00
94.7921 362.00
95.0963 393.00
95.4006 363.00
95.7048 375.00
96.0091 493.00
96.3134 687.00
96.6176 507.00
96.9219 298.00
97.2261 285.00
97.5304 288.00
97.8347 307.00
98.1389 296.00
98.4432 268.00
98.7474 286.00
99.0517 320.00
99.356 332.00
99.6602 310.00
99.9645 328.00
100.095 297.00

File: Na_104.xy
9.903433 3040.00
10.2077 2820.00
10.512 2751.00
10.8162 2706.00
11.1205 2555.00
11.4247 2560.00
11.729 2387.00
12.0333 2442.00
12.3375 2250.00
12.6418 2262.00
12.946 2171.00
13.2503 2140.00
13.5546 2071.00
13.8588 1909.00
14.1631 2010.00
14.4673 1908.00
14.7716 2186.00
15.0759 1975.00
15.3801 1867.00
15.6844 1833.00
15.9886 1880.00
16.2929 1857.00
16.5972 1735.00
16.9014 1666.00
17.2057 1676.00
17.5099 1668.00
17.8142 1595.00
18.1185 1600.00
18.4227 1626.00
18.727 1583.00
19.0312 1567.00
19.3355 1708.00
19.6398 2362.00
19.944 1958.00
20.2483 2006.00
20.5525 2518.00
20.8568 2183.00
21.1611 2505.00
21.4653 2608.00
21.7696 2503.00
22.0738 2108.00
22.3781 1736.00
22.6824 2725.00
22.9866 1555.00
23.2909 2143.00
23.5951 1561.00
23.8994 1483.00
24.2037 1686.00
24.5079 2567.00
24.8122 1892.00
25.1164 1598.00
25.4207 1573.00
25.725 1591.00
26.0292 2281.00
26.3335 2251.00
26.6378 2729.00
26.942 5161.00
27.2463 2433.00
27.5505 2155.00
27.8548 1860.00
28.1591 1588.00
28.4633 1435.00
28.7676 1253.00
29.0718 1277.00
29.3761 1900.00
29.6804 1940.00
29.9846 4421.00
30.2889 2858.00
30.5931 1910.00
30.8974 1442.00
31.2017 1306.00
31.5059 1330.00
31.8102 1827.00
32.1144 1951.00
32.4187 1790.00
32.723 1409.00
33.0272 1249.00
33.3315 1352.00
33.6357 1538.00
33.94 2372.00
34.2443 3957.00
34.5485 2193.00
34.8528 1495.00
35.157 1196.00
35.4613 1151.00
35.7656 1422.00
36.0698 1558.00
36.3741 1449.00
36.6783 1377.00
36.9826 1236.00
37.2869 1354.00
37.5911 1811.00
37.8954 1539.00
38.1996 1812.00
38.5039 1253.00
38.8082 929.00
39.1124 1098.00
39.4167 977.00
39.7209 860.00
40.0252 786.00
40.3295 756.00
40.6337 723.00
40.938 728.00
41.2422 739.00
41.5465 761.00
41.8508 692.00
42.155 710.00
42.4593 785.00
42.7635 1100.00
43.0678 1089.00
43.3721 1171.00
43.6763 841.00
43.9806 947.00
44.2849 845.00
44.5891 1027.00
44.8934 777.00
45.1976 686.00
45.5019 678.00
45.8062 746.00
46.1104 726.00
46.4147 714.00
46.7189 666.00
47.0232 724.00
47.3275 774.00
47.6317 762.00
47.936 773.00
48.2402 738.00
48.5445 669.00
48.8488 735.00
49.153 780.00
49.4573 804.00
49.7615 956.00
50.0658 1131.00
50.3701 920.00
50.6743 751.00
50.9786 755.00
51.2828 953.00
51.5871 1488.00
51.8914 2204.00
52.1956 2877.00
52.4999 1566.00
52.8041 1136.00
53.1084 1009.00
53.4127 985.00
53.7169 933.00
54.0212 872.00
54.3254 922.00
54.6297 979.00
54.934 1006.00
55.2382 923.00
55.5425 727.00
55.8467 631.00
56.151 714.00
56.4553 776.00
56.7595 799.00
57.0638 806.00
57.368 810.00
57.6723 871.00
57.9766 927.00
58.2808 909.00
58.5851 916.00
58.8893 813.00
59.1936 763.00
59.4979 706.00
59.8021 684.00
60.1064 645.00
60.4106 763.00
60.7149 801.00
61.0192 755.00
61.3234 666.00
61.6277 803.00
61.932 914.00
62.2362 1125.00
62.5405 898.00
62.8447 785.00
63.149 795.00
63.4533 802.00
63.7575 911.00
64.0618 980.00
64.366 768.00
64.6703 816.00
64.9745 1234.00
65.2788 833.00
65.5831 785.00
65.8873 856.00
66.1916 1142.00
66.4959 874.00
66.8001 674.00
67.1044 640.00
67.4086 583.00
67.7129 544.00
68.0172 586.00
68.3214 608.00
68.6257 526.00
68.9299 505.00
69.2342 525.00
69.5385 487.00
69.8427 528.00
70.147 610.00
70.4512 599.00
70.7555 547.00
71.0598 596.00
71.364 689.00
71.6683 751.00
71.9725 549.00
72.2768 502.00
72.5811 478.00
72.8853 457.00
73.1896 415.00
73.4938 432.00
73.7981 424.00
74.1024 432.00
74.4066 464.00
74.7109 463.00
75.0151 425.00
75.3194 425.00
75.6237 446.00
75.9279 439.00
76.2322 554.00
76.5364 446.00
76.8407 424.00
77.145 420.00
77.4492 388.00
77.7535 406.00
78.0577 429.00
78.362 517.00
78.6663 546.00
78.9705 825.00
79.2748 669.00
79.579 510.00
79.8833 514.00
80.1876 452.00
80.4918 396.00
80.7961 485.00
81.1003 453.00
81.4046 558.00
81.7089 484.00
82.0131 441.00
82.3174 453.00
82.6217 384.00
82.9259 405.00
83.2302 421.00
83.5344 394.00
83.8387 634.00
84.143 583.00
84.4472 507.00
84.7515 439.00
85.0557 444.00
85.36 408.00
85.6643 372.00
85.9685 440.00
86.2728 428.00
86.577 406.00
86.8813 401.00
87.1856 424.00
87.4898 524.00
87.7941 507.00
88.0983 466.00
88.4026 450.00
88.7069 484.00
89.0111 487.00
89.3154 493.00
89.6196 531.00
89.9239 628.00
90.2282 622.00
90.5324 576.00
90.8367 562.00
91.1409 751.00
91.4452 578.00
91.7495 494.00
92.0537 475.00
92.358 477.00
92.6622 458.00
92.9665 454.00
93.2708 512.00
93.575 520.00
93.8793 472.00
94.1835 433.00
94.4878 430.00
94.7921 444.00
95.0963 437.00
95.4006 457.00
95.7048 439.00
96.0091 460.00
96.3134 522.00
96.6176 438.00
96.9219 419.00
97.2261 368.00
97.5304 367.00
97.8347 321.00
98.1389 341.00
98.4432 393.00
98.7474 332.00
99.0517 425.00
99.356 367.00
99.6602 405.00
99.9645 396.00
100.095 398.00

File: Na_105.xy
9.903433 2590.00
10.2077 2479.00
10.512 2346.00
10.8162 2314.00
11.1205 2178.00
11.4247 2103.00
11.729 2006.00
12.0333 1927.00
12.3375 1849.00
12.6418 1791.00
12.946 1661.00
13.2503 1575.00
13.5546 1504.00
13.8588 1599.00
14.1631 1445.00
14.4673 1487.00
14.7716 1415.00
15.0759 1486.00
15.3801 1371.00
15.6844 1284.00
15.9886 1497.00
16.2929 1334.00
16.5972 1182.00
16.9014 1186.00
17.2057 1156.00
17.5099 1137.00
17.8142 1114.00
18.1185 1156.00
18.4227 1113.00
18.727 1153.00
19.0312 1038.00
19.3355 1010.00
19.6398 932.00
19.944 970.00
20.2483 946.00
20.5525 1011.00
20.8568 938.00
21.1611 949.00
21.4653 974.00
21.7696 890.00
22.0738 871.00
22.3781 930.00
22.6824 889.00
22.9866 888.00
23.2909 862.00
23.5951 780.00
23.8994 776.00
24.2037 706.00
24.5079 772.00
24.8122 735.00
25.1164 764.00
25.4207 704.00
25.725 660.00
26.0292 725.00
26.3335 905.00
26.6378 1310.00
26.942 664.00
27.2463 690.00
27.5505 761.00
27.8548 674.00
28.1591 676.00
28.4633 652.00
28.7676 701.00
29.0718 810.00
29.3761 686.00
29.6804 554.00
29.9846 569.00
30.2889 515.00
30.5931 516.00
30.8974 547.00
31.2017 598.00
31.5059 535.00
31.8102 599.00
32.1144 546.00
32.4187 499.00
32.723 462.00
33.0272 496.00
33.3315 521.00
33.6357 760.00
33.94 1070.00
34.2443 537.00
34.5485 480.00
34.8528 471.00
35.157 515.00
35.4613 492.00
35.7656 464.00
36.0698 443.00
36.3741 529.00
36.6783 384.00
36.9826 369.00
37.2869 398.00
37.5911 405.00
37.8954 548.00
38.1996 439.00
38.5039 386.00
38.8082 408.00
39.1124 423.00
39.4167 365.00
39.7209 434.00
40.0252 359.00
40.3295 347.00
40.6337 363.00
40.938 335.00
41.2422 344.00
41.5465 293.00
41.8508 297.00
42.155 329.00
42.4593 272.00
42.7635 356.00
43.0678 377.00
43.3721 335.00
43.6763 375.00
43.9806 374.00
44.2849 353.00
44.5891 334.00
44.8934 316.00
45.1976 303.00
45.5019 320.00
45.8062 284.00
46.1104 288.00
46.4147 265.00
46.7189 288.00
47.0232 284.00
47.3275 305.00
47.6317 273.00
47.936 302.00
48.2402 262.00
48.5445 325.00
48.8488 315.00
49.153 303.00
49.4573 273.00
49.7615 271.00
50.0658 258.00
50.3701 277.00
50.6743 287.00
50.9786 321.00
51.2828 293.00
51.5871 427.00
51.8914 550.00
52.1956 290.00
52.4999 267.00
52.8041 234.00
53.1084 247.00
53.4127 239.00
53.7169 233.00
54.0212 238.00
54.3254 263.00
54.6297 347.00
54.934 335.00
55.2382 287.00
55.5425 258.00
55.8467 257.00
56.151 257.00
56.4553 216.00
56.7595 271.00
57.0638 257.00
57.368 257.00
57.6723 265.00
57.9766 277.00
58.2808 257.00
58.5851 205.00
58.8893 275.00
59.1936 227.00
59.4979 206.00
59.8021 200.00
60.1064 201.00
60.4106 209.00
60.7149 219.00
61.0192 225.00
61.3234 224.00
61.6277 241.00
61.932 282.00
62.2362 226.00
62.5405 201.00
62.8447 202.00
63.149 184.00
63.4533 233.00
63.7575 228.00
64.0618 215.00
64.366 203.00
64.6703 307.00
64.9745 257.00
65.2788 207.00
65.5831 229.00
65.8873 295.00
66.1916 248.00
66.4959 212.00
66.8001 185.00
67.1044 186.00
67.4086 194.00
67.7129 199.00
68.0172 179.00
68.3214 198.00
68.6257 209.00
68.9299 202.00
69.2342 183.00
69.5385 212.00
69.8427 190.00
70.147 207.00
70.4512 178.00
70.7555 222.00
71.0598 185.00
71.364 237.00
71.6683 197.00
71.9725 217.00
72.2768 209.00
72.5811 196.00
72.8853 193.00
73.1896 209.00
73.4938 180.00
73.7981 216.00
74.1024 182.00
74.4066 206.00
74.7109 203.00
75.0151 204.00
75.3194 192.00
75.6237 214.00
75.9279 219.00
76.2322 197.00
76.5364 201.00
76.8407 202.00
77.145 193.00
77.4492 210.00
77.7535 221.00
78.0577 215.00
78.362 221.00
78.6663 274.00
78.9705 278.00
79.2748 262.00
79.579 218.00
79.8833 213.00
80.1876 204.00
80.4918 228.00
80.7961 248.00
81.1003 257.00
81.4046 203.00
81.7089 227.00
82.0131 227.00
82.3174 242.00
82.6217 228.00
82.9259 216.00
83.2302 194.00
83.5344 223.00
83.8387 223.00
84.143 235.00
84.4472 210.00
84.7515 209.00
85.0557 205.00
85.36 201.00
85.6643 231.00
85.9685 214.00
86.2728 196.00
86.577 181.00
86.8813 209.00
87.1856 225.00
87.4898 195.00
87.7941 228.00
88.0983 218.00
88.4026 205.00
88.7069 189.00
89.0111 185.00
89.3154 193.00
89.6196 193.00
89.9239 199.00
90.2282 212.00
90.5324 209.00
90.8367 232.00
91.1409 220.00
91.4452 209.00
91.7495 188.00
92.0537 197.00
92.358 190.00
92.6622 198.00
92.9665 169.00
93.2708 217.00
93.575 200.00
93.8793 170.00
94.1835 196.00
94.4878 182.00
94.7921 189.00
95.0963 201.00
95.4006 188.00
95.7048 214.00
96.0091 192.00
96.3134 195.00
96.6176 176.00
96.9219 192.00
97.2261 165.00
97.5304 177.00
97.8347 224.00
98.1389 205.00
98.4432 199.00
98.7474 187.00
99.0517 189.00
99.356 166.00
99.6602 163.00
99.9645 188.00
100.095 187.00

File: Na_106.xy
9.903433 2816.00
10.2077 2644.00
10.512 2641.00
10.8162 2468.00
11.1205 2348.00
11.4247 2352.00
11.729 2290.00
12.0333 2178.00
12.3375 2194.00
12.6418 2069.00
12.946 2104.00
13.2503 2057.00
13.5546 1851.00
13.8588 1928.00
14.1631 1896.00
14.4673 1894.00
14.7716 1897.00
15.0759 2105.00
15.3801 4432.00
15.6844 1980.00
15.9886 1977.00
16.2929 3654.00
16.5972 2673.00
16.9014 1795.00
17.2057 2237.00
17.5099 1717.00
17.8142 1651.00
18.1185 1513.00
18.4227 1523.00
18.727 1565.00
19.0312 2266.00
19.3355 1883.00
19.6398 1500.00
19.944 1386.00
20.2483 1462.00
20.5525 1568.00
20.8568 2489.00
21.1611 1358.00
21.4653 1314.00
21.7696 1912.00
22.0738 1436.00
22.3781 1493.00
22.6824 3698.00
22.9866 2396.00
23.2909 1837.00
23.5951 2620.00
23.8994 2044.00
24.2037 1369.00
24.5079 1381.00
24.8122 1529.00
25.1164 2662.00
25.4207 2036.00
25.725 2122.00
26.0292 1609.00
26.3335 2293.00
26.6378 2935.00
26.942 4254.00
27.2463 2734.00
27.5505 1894.00
27.8548 2179.00
28.1591 2455.00
28.4633 1414.00
28.7676 1198.00
29.0718 1500.00
29.3761 2185.00
29.6804 4431.00
29.9846 1273.00
30.2889 1280.00
30.5931 1009.00
30.8974 1015.00
31.2017 943.00
31.5059 1593.00
31.8102 1505.00
32.1144 1860.00
32.4187 1005.00
32.723 1046.00
33.0272 1104.00
33.3315 1227.00
33.6357 2196.00
33.94 3105.00
34.2443 5660.00
34.5485 3535.00
34.8528 1689.00
35.157 1269.00
35.4613 1166.00
35.7656 2378.00
36.0698 1472.00
36.3741 1109.00
36.6783 1758.00
36.9826 937.00
37.2869 805.00
37.5911 928.00
37.8954 1111.00
38.1996 1413.00
38.5039 1522.00
38.8082 1302.00
39.1124 896.00
39.4167 935.00
39.7209 1118.00
40.0252 2500.00
40.3295 791.00
40.6337 765.00
40.938 818.00
41.2422 811.00
41.5465 724.00
41.8508 695.00
42.155 633.00
42.4593 611.00
42.7635 642.00
43.0678 745.00
43.3721 1187.00
43.6763 782.00
43.9806 736.00
44.2849 1539.00
44.5891 963.00
44.8934 1582.00
45.1976 635.00
45.5019 533.00
45.8062 782.00
46.1104 515.00
46.4147 511.00
46.7189 583.00
47.0232 512.00
47.3275 545.00
47.6317 631.00
47.936 623.00
48.2402 707.00
48.5445 761.00
48.8488 1123.00
49.153 1085.00
49.4573 667.00
49.7615 700.00
50.0658 583.00
50.3701 543.00
50.6743 684.00
50.9786 1061.00
51.2828 1415.00
51.5871 1796.00
51.8914 2296.00
52.1956 2911.00
52.4999 1869.00
52.8041 1115.00
53.1084 747.00
53.4127 670.00
53.7169 754.00
54.0212 885.00
54.3254 808.00
54.6297 767.00
54.934 1257.00
55.2382 946.00
55.5425 1036.00
55.8467 671.00
56.151 880.00
56.4553 617.00
56.7595 608.00
57.0638 1174.00
57.368 834.00
57.6723 902.00
57.9766 853.00
58.2808 1027.00
58.5851 1106.00
58.8893 723.00
59.1936 937.00
59.4979 610.00
59.8021 585.00
60.1064 574.00
60.4106 603.00
60.7149 671.00
61.0192 735.00
61.3234 1203.00
61.6277 907.00
61.932 919.00
62.2362 1014.00
62.5405 964.00
62.8447 896.00
63.149 712.00
63.4533 663.00
63.7575 899.00
64.0618 807.00
64.366 876.00
64.6703 995.00
64.9745 1176.00
65.2788 1347.00
65.5831 1014.00
65.8873 1003.00
66.1916 1304.00
66.4959 980.00
66.8001 852.00
67.1044 651.00
67.4086 565.00
67.7129 648.00
68.0172 499.00
68.3214 457.00
68.6257 500.00
68.9299 518.00
69.2342 517.00
69.5385 535.00
69.8427 504.00
70.147 516.00
70.4512 546.00
70.7555 726.00
71.0598 553.00
71.364 637.00
71.6683 612.00
71.9725 530.00
72.2768 435.00
72.5811 463.00
72.8853 513.00
73.1896 488.00
73.4938 618.00
73.7981 473.00
74.1024 489.00
74.4066 543.00
74.7109 483.00
75.0151 536.00
75.3194 545.00
75.6237 515.00
75.9279 434.00
76.2322 539.00
76.5364 497.00
76.8407 456.00
77.145 451.00
77.4492 451.00
77.7535 439.00
78.0577 436.00
78.362 472.00
78.6663 548.00
78.9705 650.00
79.2748 640.00
79.579 574.00
79.8833 509.00
80.1876 518.00
80.4918 509.00
80.7961 563.00
81.1003 602.00
81.4046 538.00
81.7089 498.00
82.0131 524.00
82.3174 521.00
82.6217 450.00
82.9259 441.00
83.2302 437.00
83.5344 440.00
83.8387 550.00
84.143 675.00
84.4472 504.00
84.7515 430.00
85.0557 436.00
85.36 491.00
85.6643 473.00
85.9685 489.00
86.2728 448.00
86.577 386.00
86.8813 415.00
87.1856 411.00
87.4898 467.00
87.7941 439.00
88.0983 400.00
88.4026 431.00
88.7069 430.00
89.0111 439.00
89.3154 501.00
89.6196 556.00
89.9239 586.00
90.2282 656.00
90.5324 645.00
90.8367 646.00
91.1409 714.00
91.4452 621.00
91.7495 597.00
92.0537 491.00
92.358 535.00
92.6622 586.00
92.9665 581.00
93.2708 550.00
93.575 532.00
93.8793 470.00
94.1835 402.00
94.4878 400.00
94.7921 385.00
95.0963 399.00
95.4006 418.00
95.7048 490.00
96.0091 435.00
96.3134 457.00
96.6176 430.00
96.9219 445.00
97.2261 410.00
97.5304 374.00
97.8347 350.00
98.1389 361.00
98.4432 409.00
98.7474 439.00
99.0517 394.00
99.356 385.00
99.6602 398.00
99.9645 456.00
100.095 516.00