Folder: alab-pipeline/data/xrd_creation/results (part 95)

File: PG_2046-1.xy
9.903433 2588.00
10.2077 2643.00
10.512 2449.00
10.8162 2427.00
11.1205 2413.00
11.4247 2259.00
11.729 2144.00
12.0333 2127.00
12.3375 2064.00
12.6418 1900.00
12.946 1908.00
13.2503 1856.00
13.5546 1878.00
13.8588 1692.00
14.1631 1715.00
14.4673 1785.00
14.7716 1649.00
15.0759 1616.00
15.3801 1600.00
15.6844 1541.00
15.9886 1591.00
16.2929 1559.00
16.5972 1454.00
16.9014 1435.00
17.2057 1495.00
17.5099 1798.00
17.8142 1987.00
18.1185 1214.00
18.4227 1270.00
18.727 1238.00
19.0312 1274.00
19.3355 1217.00
19.6398 1174.00
19.944 1146.00
20.2483 1143.00
20.5525 1154.00
20.8568 1076.00
21.1611 1071.00
21.4653 1070.00
21.7696 1008.00
22.0738 1062.00
22.3781 983.00
22.6824 979.00
22.9866 960.00
23.2909 990.00
23.5951 1089.00
23.8994 1533.00
24.2037 16816.00
24.5079 1161.00
24.8122 1077.00
25.1164 1288.00
25.4207 3113.00
25.725 6933.00
26.0292 1035.00
26.3335 952.00
26.6378 878.00
26.942 795.00
27.2463 785.00
27.5505 762.00
27.8548 790.00
28.1591 743.00
28.4633 710.00
28.7676 680.00
29.0718 671.00
29.3761 697.00
29.6804 770.00
29.9846 2717.00
30.2889 709.00
30.5931 831.00
30.8974 3466.00
31.2017 1337.00
31.5059 618.00
31.8102 639.00
32.1144 639.00
32.4187 621.00
32.723 584.00
33.0272 559.00
33.3315 571.00
33.6357 568.00
33.94 564.00
34.2443 2915.00
34.5485 655.00
34.8528 569.00
35.157 559.00
35.4613 1175.00
35.7656 523.00
36.0698 525.00
36.3741 527.00
36.6783 442.00
36.9826 528.00
37.2869 1380.00
37.5911 600.00
37.8954 864.00
38.1996 2340.00
38.5039 1053.00
38.8082 2332.00
39.1124 536.00
39.4167 421.00
39.7209 457.00
40.0252 414.00
40.3295 404.00
40.6337 456.00
40.938 1189.00
41.2422 413.00
41.5465 426.00
41.8508 379.00
42.155 388.00
42.4593 371.00
42.7635 361.00
43.0678 367.00
43.3721 368.00
43.6763 340.00
43.9806 341.00
44.2849 371.00
44.5891 376.00
44.8934 372.00
45.1976 357.00
45.5019 416.00
45.8062 442.00
46.1104 1313.00
46.4147 520.00
46.7189 6205.00
47.0232 598.00
47.3275 363.00
47.6317 382.00
47.936 1086.00
48.2402 2238.00
48.5445 1001.00
48.8488 438.00
49.153 561.00
49.4573 314.00
49.7615 326.00
50.0658 303.00
50.3701 360.00
50.6743 269.00
50.9786 310.00
51.2828 336.00
51.5871 318.00
51.8914 341.00
52.1956 295.00
52.4999 495.00
52.8041 330.00
53.1084 325.00
53.4127 329.00
53.7169 379.00
54.0212 791.00
54.3254 1862.00
54.6297 428.00
54.934 391.00
55.2382 1451.00
55.5425 1399.00
55.8467 358.00
56.151 335.00
56.4553 267.00
56.7595 298.00
57.0638 275.00
57.368 257.00
57.6723 284.00
57.9766 301.00
58.2808 276.00
58.5851 675.00
58.8893 448.00
59.1936 854.00
59.4979 303.00
59.8021 292.00
60.1064 677.00
60.4106 274.00
60.7149 290.00
61.0192 282.00
61.3234 258.00
61.6277 226.00
61.932 336.00
62.2362 349.00
62.5405 553.00
62.8447 857.00
63.149 1241.00
63.4533 281.00
63.7575 297.00
64.0618 557.00
64.366 678.00
64.6703 265.00
64.9745 261.00
65.2788 235.00
65.5831 286.00
65.8873 237.00
66.1916 249.00
66.4959 250.00
66.8001 256.00
67.1044 280.00
67.4086 241.00
67.7129 240.00
68.0172 215.00
68.3214 224.00
68.6257 305.00
68.9299 608.00
69.2342 641.00
69.5385 262.00
69.8427 465.00
70.147 1010.00
70.4512 655.00
70.7555 717.00
71.0598 275.00
71.364 237.00
71.6683 281.00
71.9725 404.00
72.2768 234.00
72.5811 231.00
72.8853 217.00
73.1896 218.00
73.4938 198.00
73.7981 264.00
74.1024 237.00
74.4066 314.00
74.7109 1518.00
75.0151 406.00
75.3194 1535.00
75.6237 447.00
75.9279 311.00
76.2322 549.00
76.5364 361.00
76.8407 366.00
77.145 319.00
77.4492 223.00
77.7535 215.00
78.0577 246.00
78.362 206.00
78.6663 232.00
78.9705 233.00
79.2748 211.00
79.579 383.00
79.8833 466.00
80.1876 421.00
80.4918 271.00
80.7961 227.00
81.1003 229.00
81.4046 218.00
81.7089 248.00
82.0131 307.00
82.3174 311.00
82.6217 373.00
82.9259 931.00
83.2302 452.00
83.5344 338.00
83.8387 262.00
84.143 216.00
84.4472 209.00
84.7515 186.00
85.0557 191.00
85.36 168.00
85.6643 501.00
85.9685 367.00
86.2728 186.00
86.577 209.00
86.8813 202.00
87.1856 214.00
87.4898 205.00
87.7941 186.00
88.0983 179.00
88.4026 177.00
88.7069 196.00
89.0111 162.00
89.3154 226.00
89.6196 172.00
89.9239 202.00
90.2282 176.00
90.5324 200.00
90.8367 186.00
91.1409 203.00
91.4452 187.00
91.7495 184.00
92.0537 167.00
92.358 187.00
92.6622 163.00
92.9665 173.00
93.2708 211.00
93.575 212.00
93.8793 226.00
94.1835 241.00
94.4878 514.00
94.7921 361.00
95.0963 230.00
95.4006 736.00
95.7048 530.00
96.0091 226.00
96.3134 211.00
96.6176 329.00
96.9219 389.00
97.2261 207.00
97.5304 214.00
97.8347 194.00
98.1389 207.00
98.4432 331.00
98.7474 257.00
99.0517 239.00
99.356 411.00
99.6602 568.00
99.9645 423.00
100.095 558.00

File: PG_2047-1.xy
9.903433 2742.00
10.2077 2577.00
10.512 2467.00
10.8162 2470.00
11.1205 2336.00
11.4247 2276.00
11.729 2257.00
12.0333 2063.00
12.3375 1945.00
12.6418 2015.00
12.946 1842.00
13.2503 1897.00
13.5546 1870.00
13.8588 1796.00
14.1631 1663.00
14.4673 1758.00
14.7716 1736.00
15.0759 1591.00
15.3801 1638.00
15.6844 1642.00
15.9886 1600.00
16.2929 1514.00
16.5972 1503.00
16.9014 1512.00
17.2057 1525.00
17.5099 1821.00
17.8142 2029.00
18.1185 1394.00
18.4227 1378.00
18.727 1312.00
19.0312 1302.00
19.3355 1282.00
19.6398 1242.00
19.944 1221.00
20.2483 1226.00
20.5525 1199.00
20.8568 1188.00
21.1611 1187.00
21.4653 1092.00
21.7696 1235.00
22.0738 999.00
22.3781 1089.00
22.6824 1075.00
22.9866 1046.00
23.2909 1091.00
23.5951 1223.00
23.8994 1631.00
24.2037 15431.00
24.5079 2571.00
24.8122 1265.00
25.1164 1033.00
25.4207 988.00
25.725 1009.00
26.0292 958.00
26.3335 957.00
26.6378 941.00
26.942 917.00
27.2463 907.00
27.5505 903.00
27.8548 926.00
28.1591 855.00
28.4633 809.00
28.7676 898.00
29.0718 783.00
29.3761 836.00
29.6804 856.00
29.9846 2626.00
30.2889 895.00
30.5931 964.00
30.8974 3492.00
31.2017 1551.00
31.5059 869.00
31.8102 757.00
32.1144 775.00
32.4187 777.00
32.723 745.00
33.0272 915.00
33.3315 5904.00
33.6357 822.00
33.94 756.00
34.2443 2727.00
34.5485 734.00
34.8528 630.00
35.157 694.00
35.4613 1222.00
35.7656 682.00
36.0698 700.00
36.3741 1099.00
36.6783 2166.00
36.9826 666.00
37.2869 598.00
37.5911 579.00
37.8954 577.00
38.1996 619.00
38.5039 978.00
38.8082 1843.00
39.1124 527.00
39.4167 513.00
39.7209 505.00
40.0252 504.00
40.3295 520.00
40.6337 507.00
40.938 1190.00
41.2422 573.00
41.5465 2413.00
41.8508 558.00
42.155 516.00
42.4593 486.00
42.7635 495.00
43.0678 506.00
43.3721 500.00
43.6763 443.00
43.9806 458.00
44.2849 503.00
44.5891 560.00
44.8934 471.00
45.1976 440.00
45.5019 485.00
45.8062 535.00
46.1104 1342.00
46.4147 591.00
46.7189 5557.00
47.0232 731.00
47.3275 468.00
47.6317 513.00
47.936 981.00
48.2402 435.00
48.5445 465.00
48.8488 466.00
49.153 652.00
49.4573 437.00
49.7615 488.00
50.0658 1835.00
50.3701 567.00
50.6743 451.00
50.9786 412.00
51.2828 411.00
51.5871 403.00
51.8914 392.00
52.1956 413.00
52.4999 538.00
52.8041 407.00
53.1084 416.00
53.4127 403.00
53.7169 466.00
54.0212 901.00
54.3254 3111.00
54.6297 582.00
54.934 459.00
55.2382 674.00
55.5425 704.00
55.8467 399.00
56.151 420.00
56.4553 389.00
56.7595 372.00
57.0638 433.00
57.368 402.00
57.6723 348.00
57.9766 402.00
58.2808 410.00
58.5851 964.00
58.8893 699.00
59.1936 843.00
59.4979 422.00
59.8021 382.00
60.1064 697.00
60.4106 378.00
60.7149 342.00
61.0192 382.00
61.3234 343.00
61.6277 383.00
61.932 428.00
62.2362 320.00
62.5405 315.00
62.8447 395.00
63.149 464.00
63.4533 1316.00
63.7575 501.00
64.0618 631.00
64.366 751.00
64.6703 358.00
64.9745 400.00
65.2788 606.00
65.5831 1153.00
65.8873 430.00
66.1916 386.00
66.4959 317.00
66.8001 356.00
67.1044 352.00
67.4086 339.00
67.7129 316.00
68.0172 333.00
68.3214 311.00
68.6257 363.00
68.9299 314.00
69.2342 319.00
69.5385 362.00
69.8427 572.00
70.147 1013.00
70.4512 378.00
70.7555 416.00
71.0598 665.00
71.364 420.00
71.6683 422.00
71.9725 571.00
72.2768 336.00
72.5811 328.00
72.8853 295.00
73.1896 325.00
73.4938 321.00
73.7981 335.00
74.1024 320.00
74.4066 434.00
74.7109 1325.00
75.0151 428.00
75.3194 314.00
75.6237 281.00
75.9279 362.00
76.2322 336.00
76.5364 296.00
76.8407 431.00
77.145 570.00
77.4492 427.00
77.7535 302.00
78.0577 271.00
78.362 347.00
78.6663 456.00
78.9705 316.00
79.2748 307.00
79.579 449.00
79.8833 511.00
80.1876 537.00
80.4918 346.00
80.7961 323.00
81.1003 301.00
81.4046 321.00
81.7089 351.00
82.0131 459.00
82.3174 649.00
82.6217 562.00
82.9259 341.00
83.2302 303.00
83.5344 306.00
83.8387 341.00
84.143 291.00
84.4472 318.00
84.7515 300.00
85.0557 300.00
85.36 298.00
85.6643 582.00
85.9685 442.00
86.2728 312.00
86.577 514.00
86.8813 357.00
87.1856 312.00
87.4898 262.00
87.7941 272.00
88.0983 262.00
88.4026 272.00
88.7069 288.00
89.0111 282.00
89.3154 315.00
89.6196 505.00
89.9239 512.00
90.2282 342.00
90.5324 274.00
90.8367 306.00
91.1409 244.00
91.4452 272.00
91.7495 330.00
92.0537 259.00
92.358 276.00
92.6622 256.00
92.9665 312.00
93.2708 395.00
93.575 518.00
93.8793 448.00
94.1835 345.00
94.4878 385.00
94.7921 365.00
95.0963 311.00
95.4006 427.00
95.7048 416.00
96.0091 361.00
96.3134 297.00
96.6176 416.00
96.9219 401.00
97.2261 347.00
97.5304 358.00
97.8347 307.00
98.1389 314.00
98.4432 319.00
98.7474 293.00
99.0517 326.00
99.356 543.00
99.6602 604.00
99.9645 373.00
100.095 532.00

File: PG_2048-1.xy
9.903433 2724.00
10.2077 2770.00
10.512 2554.00
10.8162 2560.00
11.1205 2408.00
11.4247 2290.00
11.729 2227.00
12.0333 2131.00
12.3375 2080.00
12.6418 2076.00
12.946 1941.00
13.2503 1857.00
13.5546 1919.00
13.8588 1801.00
14.1631 1902.00
14.4673 1745.00
14.7716 1679.00
15.0759 1617.00
15.3801 1797.00
15.6844 3109.00
15.9886 1762.00
16.2929 1676.00
16.5972 1549.00
16.9014 1572.00
17.2057 1578.00
17.5099 1753.00
17.8142 2473.00
18.1185 1458.00
18.4227 1420.00
18.727 1445.00
19.0312 1399.00
19.3355 1379.00
19.6398 1258.00
19.944 1406.00
20.2483 1583.00
20.5525 4578.00
20.8568 1562.00
21.1611 1207.00
21.4653 1252.00
21.7696 1384.00
22.0738 2407.00
22.3781 1237.00
22.6824 1192.00
22.9866 1170.00
23.2909 1137.00
23.5951 1189.00
23.8994 1507.00
24.2037 15859.00
24.5079 1233.00
24.8122 1098.00
25.1164 1026.00
25.4207 1004.00
25.725 1133.00
26.0292 1108.00
26.3335 2218.00
26.6378 1394.00
26.942 1001.00
27.2463 919.00
27.5505 991.00
27.8548 927.00
28.1591 951.00
28.4633 981.00
28.7676 937.00
29.0718 906.00
29.3761 975.00
29.6804 948.00
29.9846 2350.00
30.2889 1017.00
30.5931 1099.00
30.8974 2909.00
31.2017 3040.00
31.5059 1916.00
31.8102 990.00
32.1144 886.00
32.4187 949.00
32.723 1878.00
33.0272 857.00
33.3315 800.00
33.6357 1184.00
33.94 751.00
34.2443 2175.00
34.5485 1584.00
34.8528 837.00
35.157 716.00
35.4613 1116.00
35.7656 662.00
36.0698 633.00
36.3741 722.00
36.6783 642.00
36.9826 654.00
37.2869 584.00
37.5911 635.00
37.8954 586.00
38.1996 609.00
38.5039 1057.00
38.8082 1690.00
39.1124 603.00
39.4167 535.00
39.7209 524.00
40.0252 533.00
40.3295 551.00
40.6337 579.00
40.938 1225.00
41.2422 593.00
41.5465 1064.00
41.8508 592.00
42.155 581.00
42.4593 677.00
42.7635 508.00
43.0678 487.00
43.3721 498.00
43.6763 519.00
43.9806 479.00
44.2849 499.00
44.5891 516.00
44.8934 490.00
45.1976 515.00
45.5019 557.00
45.8062 1060.00
46.1104 1468.00
46.4147 669.00
46.7189 4104.00
47.0232 831.00
47.3275 627.00
47.6317 1324.00
47.936 1166.00
48.2402 766.00
48.5445 566.00
48.8488 521.00
49.153 1064.00
49.4573 533.00
49.7615 574.00
50.0658 475.00
50.3701 472.00
50.6743 462.00
50.9786 422.00
51.2828 562.00
51.5871 1027.00
51.8914 546.00
52.1956 524.00
52.4999 732.00
52.8041 567.00
53.1084 459.00
53.4127 432.00
53.7169 442.00
54.0212 521.00
54.3254 489.00
54.6297 465.00
54.934 414.00
55.2382 631.00
55.5425 836.00
55.8467 628.00
56.151 499.00
56.4553 467.00
56.7595 472.00
57.0638 448.00
57.368 408.00
57.6723 408.00
57.9766 406.00
58.2808 440.00
58.5851 752.00
58.8893 831.00
59.1936 1023.00
59.4979 563.00
59.8021 412.00
60.1064 764.00
60.4106 507.00
60.7149 412.00
61.0192 396.00
61.3234 789.00
61.6277 449.00
61.932 462.00
62.2362 497.00
62.5405 751.00
62.8447 443.00
63.149 354.00
63.4533 347.00
63.7575 386.00
64.0618 543.00
64.366 693.00
64.6703 480.00
64.9745 477.00
65.2788 439.00
65.5831 410.00
65.8873 385.00
66.1916 416.00
66.4959 508.00
66.8001 381.00
67.1044 420.00
67.4086 374.00
67.7129 400.00
68.0172 440.00
68.3214 462.00
68.6257 526.00
68.9299 426.00
69.2342 454.00
69.5385 438.00
69.8427 671.00
70.147 1023.00
70.4512 425.00
70.7555 456.00
71.0598 371.00
71.364 361.00
71.6683 397.00
71.9725 577.00
72.2768 404.00
72.5811 651.00
72.8853 561.00
73.1896 486.00
73.4938 328.00
73.7981 370.00
74.1024 371.00
74.4066 482.00
74.7109 1370.00
75.0151 586.00
75.3194 343.00
75.6237 363.00
75.9279 353.00
76.2322 489.00
76.5364 405.00
76.8407 394.00
77.145 417.00
77.4492 376.00
77.7535 381.00
78.0577 306.00
78.362 424.00
78.6663 395.00
78.9705 344.00
79.2748 331.00
79.579 471.00
79.8833 587.00
80.1876 546.00
80.4918 360.00
80.7961 328.00
81.1003 302.00
81.4046 312.00
81.7089 373.00
82.0131 415.00
82.3174 335.00
82.6217 345.00
82.9259 331.00
83.2302 359.00
83.5344 339.00
83.8387 366.00
84.143 331.00
84.4472 340.00
84.7515 317.00
85.0557 351.00
85.36 360.00
85.6643 563.00
85.9685 515.00
86.2728 298.00
86.577 333.00
86.8813 371.00
87.1856 353.00
87.4898 315.00
87.7941 318.00
88.0983 312.00
88.4026 292.00
88.7069 358.00
89.0111 329.00
89.3154 315.00
89.6196 327.00
89.9239 326.00
90.2282 321.00
90.5324 297.00
90.8367 360.00
91.1409 352.00
91.4452 306.00
91.7495 270.00
92.0537 286.00
92.358 275.00
92.6622 313.00
92.9665 338.00
93.2708 337.00
93.575 354.00
93.8793 344.00
94.1835 335.00
94.4878 424.00
94.7921 382.00
95.0963 356.00
95.4006 457.00
95.7048 429.00
96.0091 357.00
96.3134 322.00
96.6176 435.00
96.9219 436.00
97.2261 355.00
97.5304 292.00
97.8347 298.00
98.1389 309.00
98.4432 327.00
98.7474 332.00
99.0517 312.00
99.356 521.00
99.6602 604.00
99.9645 470.00
100.095 562.00

File: PG_2049-1.xy
9.903433 2357.00
10.2077 2304.00
10.512 2147.00
10.8162 2138.00
11.1205 1981.00
11.4247 1967.00
11.729 1872.00
12.0333 1813.00
12.3375 1711.00
12.6418 1707.00
12.946 1687.00
13.2503 1571.00
13.5546 1540.00
13.8588 1437.00
14.1631 1471.00
14.4673 1355.00
14.7716 1368.00
15.0759 1395.00
15.3801 1329.00
15.6844 1364.00
15.9886 1316.00
16.2929 1252.00
16.5972 1253.00
16.9014 1212.00
17.2057 1181.00
17.5099 1183.00
17.8142 1223.00
18.1185 1213.00
18.4227 1147.00
18.727 1017.00
19.0312 1079.00
19.3355 1022.00
19.6398 989.00
19.944 1014.00
20.2483 987.00
20.5525 912.00
20.8568 1019.00
21.1611 992.00
21.4653 956.00
21.7696 955.00
22.0738 911.00
22.3781 914.00
22.6824 1005.00
22.9866 1599.00
23.2909 5447.00
23.5951 3662.00
23.8994 9221.00
24.2037 4335.00
24.5079 5734.00
24.8122 2550.00
25.1164 992.00
25.4207 871.00
25.725 882.00
26.0292 842.00
26.3335 846.00
26.6378 1176.00
26.942 1956.00
27.2463 874.00
27.5505 783.00
27.8548 727.00
28.1591 770.00
28.4633 852.00
28.7676 1482.00
29.0718 2120.00
29.3761 1255.00
29.6804 733.00
29.9846 928.00
30.2889 707.00
30.5931 665.00
30.8974 1617.00
31.2017 759.00
31.5059 584.00
31.8102 549.00
32.1144 551.00
32.4187 545.00
32.723 620.00
33.0272 836.00
33.3315 2011.00
33.6357 3491.00
33.94 3664.00
34.2443 4344.00
34.5485 3675.00
34.8528 1147.00
35.157 707.00
35.4613 865.00
35.7656 1086.00
36.0698 903.00
36.3741 549.00
36.6783 497.00
36.9826 486.00
37.2869 445.00
37.5911 477.00
37.8954 422.00
38.1996 459.00
38.5039 538.00
38.8082 625.00
39.1124 440.00
39.4167 434.00
39.7209 446.00
40.0252 498.00
40.3295 377.00
40.6337 426.00
40.938 633.00
41.2422 633.00
41.5465 834.00
41.8508 1382.00
42.155 1982.00
42.4593 607.00
42.7635 400.00
43.0678 412.00
43.3721 416.00
43.6763 414.00
43.9806 403.00
44.2849 482.00
44.5891 741.00
44.8934 716.00
45.1976 789.00
45.5019 772.00
45.8062 782.00
46.1104 900.00
46.4147 643.00
46.7189 1753.00
47.0232 461.00
47.3275 745.00
47.6317 1168.00
47.936 570.00
48.2402 521.00
48.5445 1438.00
48.8488 641.00
49.153 515.00
49.4573 502.00
49.7615 611.00
50.0658 2061.00
50.3701 2273.00
50.6743 1749.00
50.9786 1825.00
51.2828 693.00
51.5871 439.00
51.8914 366.00
52.1956 366.00
52.4999 396.00
52.8041 355.00
53.1084 436.00
53.4127 701.00
53.7169 1481.00
54.0212 998.00
54.3254 1293.00
54.6297 1177.00
54.934 1270.00
55.2382 1312.00
55.5425 1727.00
55.8467 1859.00
56.151 2545.00
56.4553 1357.00
56.7595 535.00
57.0638 422.00
57.368 386.00
57.6723 381.00
57.9766 431.00
58.2808 423.00
58.5851 617.00
58.8893 502.00
59.1936 538.00
59.4979 594.00
59.8021 609.00
60.1064 886.00
60.4106 974.00
60.7149 1040.00
61.0192 772.00
61.3234 888.00
61.6277 957.00
61.932 1291.00
62.2362 1115.00
62.5405 1394.00
62.8447 776.00
63.149 660.00
63.4533 739.00
63.7575 521.00
64.0618 403.00
64.366 426.00
64.6703 315.00
64.9745 292.00
65.2788 311.00
65.5831 304.00
65.8873 302.00
66.1916 401.00
66.4959 433.00
66.8001 518.00
67.1044 493.00
67.4086 604.00
67.7129 526.00
68.0172 553.00
68.3214 389.00
68.6257 380.00
68.9299 346.00
69.2342 357.00
69.5385 418.00
69.8427 569.00
70.147 648.00
70.4512 440.00
70.7555 614.00
71.0598 542.00
71.364 457.00
71.6683 572.00
71.9725 693.00
72.2768 755.00
72.5811 485.00
72.8853 482.00
73.1896 417.00
73.4938 403.00
73.7981 556.00
74.1024 489.00
74.4066 479.00
74.7109 593.00
75.0151 424.00
75.3194 488.00
75.6237 536.00
75.9279 638.00
76.2322 718.00
76.5364 910.00
76.8407 1198.00
77.145 1310.00
77.4492 792.00
77.7535 467.00
78.0577 385.00
78.362 359.00
78.6663 535.00
78.9705 466.00
79.2748 290.00
79.579 414.00
79.8833 474.00
80.1876 421.00
80.4918 430.00
80.7961 407.00
81.1003 509.00
81.4046 532.00
81.7089 678.00
82.0131 739.00
82.3174 611.00
82.6217 599.00
82.9259 632.00
83.2302 642.00
83.5344 724.00
83.8387 826.00
84.143 593.00
84.4472 406.00
84.7515 428.00
85.0557 567.00
85.36 536.00
85.6643 486.00
85.9685 716.00
86.2728 839.00
86.577 772.00
86.8813 626.00
87.1856 594.00
87.4898 807.00
87.7941 769.00
88.0983 618.00
88.4026 607.00
88.7069 567.00
89.0111 492.00
89.3154 414.00
89.6196 384.00
89.9239 343.00
90.2282 361.00
90.5324 350.00
90.8367 371.00
91.1409 346.00
91.4452 383.00
91.7495 425.00
92.0537 429.00
92.358 507.00
92.6622 394.00
92.9665 387.00
93.2708 399.00
93.575 389.00
93.8793 308.00
94.1835 356.00
94.4878 372.00
94.7921 451.00
95.0963 404.00
95.4006 429.00
95.7048 488.00
96.0091 466.00
96.3134 427.00
96.6176 444.00
96.9219 447.00
97.2261 470.00
97.5304 414.00
97.8347 438.00
98.1389 390.00
98.4432 359.00
98.7474 343.00
99.0517 303.00
99.356 398.00
99.6602 430.00
99.9645 352.00
100.095 434.00

File: PG_2050-1.xy
9.903433 3104.00
10.2077 2833.00
10.512 2814.00
10.8162 2804.00
11.1205 2765.00
11.4247 2730.00
11.729 2553.00
12.0333 2437.00
12.3375 2488.00
12.6418 2353.00
12.946 2333.00
13.2503 2364.00
13.5546 2245.00
13.8588 2356.00
14.1631 2486.00
14.4673 2423.00
14.7716 2337.00
15.0759 2287.00
15.3801 2380.00
15.6844 2245.00
15.9886 2223.00
16.2929 2322.00
16.5972 2317.00
16.9014 2251.00
17.2057 2367.00
17.5099 2316.00
17.8142 3639.00
18.1185 2041.00
18.4227 2010.00
18.727 2127.00
19.0312 2035.00
19.3355 2036.00
19.6398 2017.00
19.944 1949.00
20.2483 1999.00
20.5525 2140.00
20.8568 4572.00
21.1611 2129.00
21.4653 1918.00
21.7696 1941.00
22.0738 1907.00
22.3781 1869.00
22.6824 1840.00
22.9866 1863.00
23.2909 1793.00
23.5951 1871.00
23.8994 1995.00
24.2037 7074.00
24.5079 2154.00
24.8122 1887.00
25.1164 1790.00
25.4207 1808.00
25.725 1740.00
26.0292 1725.00
26.3335 1738.00
26.6378 1855.00
26.942 1782.00
27.2463 1744.00
27.5505 1868.00
27.8548 1818.00
28.1591 1817.00
28.4633 1858.00
28.7676 2073.00
29.0718 2415.00
29.3761 6842.00
29.6804 19781.00
29.9846 2849.00
30.2889 1939.00
30.5931 1967.00
30.8974 2082.00
31.2017 9236.00
31.5059 1849.00
31.8102 1756.00
32.1144 1701.00
32.4187 1566.00
32.723 1719.00
33.0272 1671.00
33.3315 1601.00
33.6357 1724.00
33.94 2082.00
34.2443 10232.00
34.5485 2858.00
34.8528 1653.00
35.157 1610.00
35.4613 1587.00
35.7656 1819.00
36.0698 1677.00
36.3741 2986.00
36.6783 1464.00
36.9826 1539.00
37.2869 1442.00
37.5911 1387.00
37.8954 1474.00
38.1996 1540.00
38.5039 1755.00
38.8082 2432.00
39.1124 1413.00
39.4167 1446.00
39.7209 1445.00
40.0252 1592.00
40.3295 2991.00
40.6337 1471.00
40.938 1526.00
41.2422 1400.00
41.5465 1419.00
41.8508 1372.00
42.155 1682.00
42.4593 1427.00
42.7635 1405.00
43.0678 1388.00
43.3721 1406.00
43.6763 1682.00
43.9806 3402.00
44.2849 1501.00
44.5891 1395.00
44.8934 1362.00
45.1976 1322.00
45.5019 1409.00
45.8062 1427.00
46.1104 2327.00
46.4147 1462.00
46.7189 1884.00
47.0232 3935.00
47.3275 2321.00
47.6317 1528.00
47.936 1446.00
48.2402 1627.00
48.5445 1763.00
48.8488 9147.00
49.153 3885.00
49.4573 1584.00
49.7615 1388.00
50.0658 1387.00
50.3701 1450.00
50.6743 1698.00
50.9786 1348.00
51.2828 1311.00
51.5871 1346.00
51.8914 1364.00
52.1956 1480.00
52.4999 1322.00
52.8041 1377.00
53.1084 1337.00
53.4127 1528.00
53.7169 2331.00
54.0212 1347.00
54.3254 1438.00
54.6297 1337.00
54.934 1314.00
55.2382 1524.00
55.5425 1686.00
55.8467 1402.00
56.151 1374.00
56.4553 1811.00
56.7595 1816.00
57.0638 1376.00
57.368 1372.00
57.6723 1773.00
57.9766 10335.00
58.2808 2355.00
58.5851 1476.00
58.8893 1765.00
59.1936 2689.00
59.4979 2511.00
59.8021 1375.00
60.1064 1289.00
60.4106 1420.00
60.7149 1819.00
61.0192 1924.00
61.3234 1299.00
61.6277 1310.00
61.932 1372.00
62.2362 1794.00
62.5405 1260.00
62.8447 1293.00
63.149 1244.00
63.4533 1317.00
63.7575 1435.00
64.0618 1310.00
64.366 2178.00
64.6703 1347.00
64.9745 1819.00
65.2788 1300.00
65.5831 1225.00
65.8873 1286.00
66.1916 1658.00
66.4959 1385.00
66.8001 1221.00
67.1044 1183.00
67.4086 1172.00
67.7129 1234.00
68.0172 1219.00
68.3214 1172.00
68.6257 1219.00
68.9299 1292.00
69.2342 1241.00
69.5385 1272.00
69.8427 1350.00
70.147 2080.00
70.4512 1332.00
70.7555 1147.00
71.0598 1274.00
71.364 2179.00
71.6683 1792.00
71.9725 1421.00
72.2768 1228.00
72.5811 1644.00
72.8853 1807.00
73.1896 1199.00
73.4938 1198.00
73.7981 1311.00
74.1024 1493.00
74.4066 1318.00
74.7109 1458.00
75.0151 1679.00
75.3194 1419.00
75.6237 1189.00
75.9279 1184.00
76.2322 1272.00
76.5364 1377.00
76.8407 1260.00
77.145 1225.00
77.4492 1222.00
77.7535 1866.00
78.0577 1359.00
78.362 1310.00
78.6663 1379.00
78.9705 2782.00
79.2748 1579.00
79.579 1281.00
79.8833 1516.00
80.1876 1996.00
80.4918 1405.00
80.7961 1204.00
81.1003 1242.00
81.4046 2472.00
81.7089 1504.00
82.0131 1482.00
82.3174 1230.00
82.6217 1576.00
82.9259 1346.00
83.2302 1218.00
83.5344 1193.00
83.8387 1460.00
84.143 1320.00
84.4472 1233.00
84.7515 1225.00
85.0557 1707.00
85.36 1370.00
85.6643 1170.00
85.9685 1264.00
86.2728 1293.00
86.577 1100.00
86.8813 1224.00
87.1856 1257.00
87.4898 1690.00
87.7941 1407.00
88.0983 1142.00
88.4026 1184.00
88.7069 1173.00
89.0111 1225.00
89.3154 1196.00
89.6196 1264.00
89.9239 1607.00
90.2282 1336.00
90.5324 1288.00
90.8367 1319.00
91.1409 1889.00
91.4452 1441.00
91.7495 1235.00
92.0537 1328.00
92.358 1508.00
92.6622 1329.00
92.9665 1137.00
93.2708 1272.00
93.575 1372.00
93.8793 1242.00
94.1835 1191.00
94.4878 1266.00
94.7921 1269.00
95.0963 1250.00
95.4006 1284.00
95.7048 1329.00
96.0091 1592.00
96.3134 1434.00
96.6176 1344.00
96.9219 1268.00
97.2261 1231.00
97.5304 1265.00
97.8347 1286.00
98.1389 1391.00
98.4432 1571.00
98.7474 1446.00
99.0517 1316.00
99.356 1474.00
99.6602 1532.00
99.9645 1394.00
100.095 1389.00