Folder: alab-pipeline/data/xrd_creation/results (part 43)

File: NSC_44.xy
9.903433 3294.00
10.2077 3184.00
10.512 3402.00
10.8162 2986.00
11.1205 2797.00
11.4247 2830.00
11.729 2709.00
12.0333 2756.00
12.3375 2612.00
12.6418 2559.00
12.946 2557.00
13.2503 2512.00
13.5546 2374.00
13.8588 2369.00
14.1631 2333.00
14.4673 2341.00
14.7716 2295.00
15.0759 2324.00
15.3801 2170.00
15.6844 2166.00
15.9886 2104.00
16.2929 2043.00
16.5972 2107.00
16.9014 1985.00
17.2057 1994.00
17.5099 2019.00
17.8142 2138.00
18.1185 2283.00
18.4227 1786.00
18.727 1834.00
19.0312 1802.00
19.3355 1824.00
19.6398 1883.00
19.944 1728.00
20.2483 1943.00
20.5525 1926.00
20.8568 4991.00
21.1611 2457.00
21.4653 3122.00
21.7696 3914.00
22.0738 1644.00
22.3781 1677.00
22.6824 1655.00
22.9866 1686.00
23.2909 2413.00
23.5951 2453.00
23.8994 1658.00
24.2037 2778.00
24.5079 1591.00
24.8122 1448.00
25.1164 1482.00
25.4207 1473.00
25.725 1470.00
26.0292 1418.00
26.3335 1354.00
26.6378 1321.00
26.942 1404.00
27.2463 1399.00
27.5505 3843.00
27.8548 1479.00
28.1591 1475.00
28.4633 1402.00
28.7676 1361.00
29.0718 1397.00
29.3761 1436.00
29.6804 1954.00
29.9846 3839.00
30.2889 1818.00
30.5931 2017.00
30.8974 15869.00
31.2017 2092.00
31.5059 1697.00
31.8102 1335.00
32.1144 1280.00
32.4187 1501.00
32.723 1276.00
33.0272 1264.00
33.3315 1441.00
33.6357 1284.00
33.94 1350.00
34.2443 3181.00
34.5485 7999.00
34.8528 1409.00
35.157 2077.00
35.4613 1452.00
35.7656 5533.00
36.0698 1276.00
36.3741 1295.00
36.6783 1122.00
36.9826 1073.00
37.2869 1092.00
37.5911 1177.00
37.8954 1866.00
38.1996 1091.00
38.5039 1278.00
38.8082 2311.00
39.1124 1232.00
39.4167 1862.00
39.7209 1086.00
40.0252 1130.00
40.3295 994.00
40.6337 905.00
40.938 944.00
41.2422 897.00
41.5465 935.00
41.8508 1013.00
42.155 1619.00
42.4593 1249.00
42.7635 998.00
43.0678 1053.00
43.3721 939.00
43.6763 1321.00
43.9806 1149.00
44.2849 894.00
44.5891 876.00
44.8934 829.00
45.1976 800.00
45.5019 912.00
45.8062 1258.00
46.1104 1431.00
46.4147 930.00
46.7189 856.00
47.0232 815.00
47.3275 1058.00
47.6317 916.00
47.936 743.00
48.2402 832.00
48.5445 936.00
48.8488 883.00
49.153 1144.00
49.4573 2362.00
49.7615 921.00
50.0658 800.00
50.3701 798.00
50.6743 801.00
50.9786 1045.00
51.2828 5867.00
51.5871 1045.00
51.8914 740.00
52.1956 842.00
52.4999 772.00
52.8041 801.00
53.1084 920.00
53.4127 848.00
53.7169 778.00
54.0212 831.00
54.3254 819.00
54.6297 917.00
54.934 714.00
55.2382 717.00
55.5425 735.00
55.8467 712.00
56.151 1110.00
56.4553 873.00
56.7595 735.00
57.0638 755.00
57.368 927.00
57.6723 758.00
57.9766 865.00
58.2808 731.00
58.5851 701.00
58.8893 662.00
59.1936 884.00
59.4979 1478.00
59.8021 1035.00
60.1064 738.00
60.4106 804.00
60.7149 1292.00
61.0192 2857.00
61.3234 1695.00
61.6277 1641.00
61.932 695.00
62.2362 803.00
62.5405 1073.00
62.8447 673.00
63.149 620.00
63.4533 685.00
63.7575 924.00
64.0618 995.00
64.366 703.00
64.6703 655.00
64.9745 642.00
65.2788 762.00
65.5831 1006.00
65.8873 723.00
66.1916 634.00
66.4959 592.00
66.8001 764.00
67.1044 676.00
67.4086 631.00
67.7129 745.00
68.0172 937.00
68.3214 886.00
68.6257 677.00
68.9299 656.00
69.2342 531.00
69.5385 577.00
69.8427 664.00
70.147 560.00
70.4512 508.00
70.7555 467.00
71.0598 490.00
71.364 470.00
71.6683 554.00
71.9725 679.00
72.2768 966.00
72.5811 536.00
72.8853 483.00
73.1896 461.00
73.4938 449.00
73.7981 630.00
74.1024 596.00
74.4066 576.00
74.7109 606.00
75.0151 562.00
75.3194 773.00
75.6237 550.00
75.9279 503.00
76.2322 546.00
76.5364 688.00
76.8407 690.00
77.145 501.00
77.4492 512.00
77.7535 517.00
78.0577 551.00
78.362 489.00
78.6663 496.00
78.9705 492.00
79.2748 647.00
79.579 575.00
79.8833 517.00
80.1876 556.00
80.4918 520.00
80.7961 538.00
81.1003 481.00
81.4046 578.00
81.7089 549.00
82.0131 801.00
82.3174 891.00
82.6217 655.00
82.9259 531.00
83.2302 707.00
83.5344 809.00
83.8387 483.00
84.143 494.00
84.4472 484.00
84.7515 475.00
85.0557 456.00
85.36 538.00
85.6643 516.00
85.9685 854.00
86.2728 779.00
86.577 470.00
86.8813 438.00
87.1856 431.00
87.4898 474.00
87.7941 421.00
88.0983 397.00
88.4026 471.00
88.7069 505.00
89.0111 443.00
89.3154 464.00
89.6196 417.00
89.9239 544.00
90.2282 535.00
90.5324 456.00
90.8367 405.00
91.1409 415.00
91.4452 428.00
91.7495 441.00
92.0537 436.00
92.358 465.00
92.6622 594.00
92.9665 517.00
93.2708 435.00
93.575 399.00
93.8793 400.00
94.1835 384.00
94.4878 413.00
94.7921 433.00
95.0963 477.00
95.4006 548.00
95.7048 517.00
96.0091 421.00
96.3134 465.00
96.6176 797.00
96.9219 584.00
97.2261 463.00
97.5304 443.00
97.8347 479.00
98.1389 529.00
98.4432 419.00
98.7474 400.00
99.0517 412.00
99.356 547.00
99.6602 517.00
99.9645 440.00
100.095 392.00

File: NSC_45.xy
9.903433 2866.00
10.2077 2747.00
10.512 2688.00
10.8162 2530.00
11.1205 2436.00
11.4247 2439.00
11.729 2258.00
12.0333 2411.00
12.3375 2212.00
12.6418 2449.00
12.946 2283.00
13.2503 2004.00
13.5546 1992.00
13.8588 2059.00
14.1631 2163.00
14.4673 1933.00
14.7716 1846.00
15.0759 1820.00
15.3801 1863.00
15.6844 1813.00
15.9886 1754.00
16.2929 1730.00
16.5972 1753.00
16.9014 1725.00
17.2057 1775.00
17.5099 1682.00
17.8142 1667.00
18.1185 1697.00
18.4227 1640.00
18.727 1605.00
19.0312 1538.00
19.3355 1688.00
19.6398 1787.00
19.944 2528.00
20.2483 1601.00
20.5525 1502.00
20.8568 1733.00
21.1611 1607.00
21.4653 1565.00
21.7696 3407.00
22.0738 1488.00
22.3781 1486.00
22.6824 1435.00
22.9866 1385.00
23.2909 2195.00
23.5951 1360.00
23.8994 1328.00
24.2037 1809.00
24.5079 1363.00
24.8122 1229.00
25.1164 1183.00
25.4207 1252.00
25.725 1183.00
26.0292 1211.00
26.3335 1155.00
26.6378 1166.00
26.942 1091.00
27.2463 1152.00
27.5505 1123.00
27.8548 1144.00
28.1591 1406.00
28.4633 1072.00
28.7676 1095.00
29.0718 1133.00
29.3761 1096.00
29.6804 1261.00
29.9846 1210.00
30.2889 1210.00
30.5931 2254.00
30.8974 18643.00
31.2017 1553.00
31.5059 2136.00
31.8102 1316.00
32.1144 2056.00
32.4187 1254.00
32.723 1091.00
33.0272 1462.00
33.3315 1257.00
33.6357 1040.00
33.94 997.00
34.2443 1351.00
34.5485 2172.00
34.8528 1518.00
35.157 1040.00
35.4613 1897.00
35.7656 6406.00
36.0698 1077.00
36.3741 899.00
36.6783 818.00
36.9826 807.00
37.2869 817.00
37.5911 893.00
37.8954 1656.00
38.1996 875.00
38.5039 830.00
38.8082 769.00
39.1124 846.00
39.4167 801.00
39.7209 684.00
40.0252 954.00
40.3295 750.00
40.6337 696.00
40.938 716.00
41.2422 760.00
41.5465 830.00
41.8508 848.00
42.155 1626.00
42.4593 832.00
42.7635 806.00
43.0678 705.00
43.3721 853.00
43.6763 739.00
43.9806 898.00
44.2849 716.00
44.5891 706.00
44.8934 712.00
45.1976 788.00
45.5019 743.00
45.8062 1118.00
46.1104 1229.00
46.4147 615.00
46.7189 663.00
47.0232 680.00
47.3275 1224.00
47.6317 991.00
47.936 619.00
48.2402 638.00
48.5445 630.00
48.8488 640.00
49.153 706.00
49.4573 1225.00
49.7615 924.00
50.0658 669.00
50.3701 618.00
50.6743 732.00
50.9786 910.00
51.2828 7196.00
51.5871 1195.00
51.8914 840.00
52.1956 666.00
52.4999 648.00
52.8041 718.00
53.1084 989.00
53.4127 679.00
53.7169 604.00
54.0212 784.00
54.3254 813.00
54.6297 710.00
54.934 553.00
55.2382 579.00
55.5425 613.00
55.8467 703.00
56.151 1266.00
56.4553 825.00
56.7595 571.00
57.0638 537.00
57.368 556.00
57.6723 682.00
57.9766 719.00
58.2808 700.00
58.5851 582.00
58.8893 565.00
59.1936 692.00
59.4979 974.00
59.8021 704.00
60.1064 815.00
60.4106 792.00
60.7149 1374.00
61.0192 3514.00
61.3234 980.00
61.6277 771.00
61.932 732.00
62.2362 840.00
62.5405 1137.00
62.8447 611.00
63.149 547.00
63.4533 561.00
63.7575 772.00
64.0618 1067.00
64.366 597.00
64.6703 565.00
64.9745 497.00
65.2788 653.00
65.5831 704.00
65.8873 512.00
66.1916 516.00
66.4959 536.00
66.8001 686.00
67.1044 587.00
67.4086 582.00
67.7129 516.00
68.0172 535.00
68.3214 887.00
68.6257 559.00
68.9299 531.00
69.2342 568.00
69.5385 552.00
69.8427 707.00
70.147 470.00
70.4512 440.00
70.7555 415.00
71.0598 445.00
71.364 459.00
71.6683 393.00
71.9725 475.00
72.2768 460.00
72.5811 465.00
72.8853 455.00
73.1896 504.00
73.4938 482.00
73.7981 639.00
74.1024 610.00
74.4066 465.00
74.7109 464.00
75.0151 499.00
75.3194 823.00
75.6237 520.00
75.9279 444.00
76.2322 564.00
76.5364 759.00
76.8407 774.00
77.145 420.00
77.4492 472.00
77.7535 550.00
78.0577 672.00
78.362 450.00
78.6663 444.00
78.9705 444.00
79.2748 620.00
79.579 544.00
79.8833 416.00
80.1876 442.00
80.4918 470.00
80.7961 524.00
81.1003 468.00
81.4046 478.00
81.7089 537.00
82.0131 889.00
82.3174 660.00
82.6217 506.00
82.9259 479.00
83.2302 795.00
83.5344 964.00
83.8387 502.00
84.143 428.00
84.4472 422.00
84.7515 451.00
85.0557 419.00
85.36 479.00
85.6643 519.00
85.9685 989.00
86.2728 822.00
86.577 449.00
86.8813 399.00
87.1856 445.00
87.4898 466.00
87.7941 457.00
88.0983 447.00
88.4026 452.00
88.7069 562.00
89.0111 518.00
89.3154 440.00
89.6196 433.00
89.9239 644.00
90.2282 539.00
90.5324 423.00
90.8367 383.00
91.1409 412.00
91.4452 474.00
91.7495 434.00
92.0537 434.00
92.358 498.00
92.6622 684.00
92.9665 583.00
93.2708 396.00
93.575 416.00
93.8793 388.00
94.1835 410.00
94.4878 407.00
94.7921 448.00
95.0963 476.00
95.4006 643.00
95.7048 520.00
96.0091 460.00
96.3134 492.00
96.6176 960.00
96.9219 719.00
97.2261 494.00
97.5304 427.00
97.8347 512.00
98.1389 554.00
98.4432 487.00
98.7474 405.00
99.0517 443.00
99.356 604.00
99.6602 502.00
99.9645 418.00
100.095 416.00

File: NSC_46.xy
9.903433 2785.00
10.2077 2580.00
10.512 2691.00
10.8162 2575.00
11.1205 2519.00
11.4247 2369.00
11.729 2272.00
12.0333 2184.00
12.3375 2166.00
12.6418 2031.00
12.946 2095.00
13.2503 2024.00
13.5546 1961.00
13.8588 1811.00
14.1631 1843.00
14.4673 2172.00
14.7716 1891.00
15.0759 1710.00
15.3801 1676.00
15.6844 1698.00
15.9886 1635.00
16.2929 1629.00
16.5972 1718.00
16.9014 1717.00
17.2057 1605.00
17.5099 1564.00
17.8142 1484.00
18.1185 1504.00
18.4227 1516.00
18.727 1450.00
19.0312 1438.00
19.3355 1410.00
19.6398 1447.00
19.944 1431.00
20.2483 1332.00
20.5525 1389.00
20.8568 1652.00
21.1611 1324.00
21.4653 1973.00
21.7696 1430.00
22.0738 1378.00
22.3781 1854.00
22.6824 1277.00
22.9866 1180.00
23.2909 1199.00
23.5951 1100.00
23.8994 1342.00
24.2037 1300.00
24.5079 1048.00
24.8122 1085.00
25.1164 1024.00
25.4207 1020.00
25.725 1015.00
26.0292 1096.00
26.3335 992.00
26.6378 950.00
26.942 964.00
27.2463 1016.00
27.5505 1005.00
27.8548 945.00
28.1591 938.00
28.4633 967.00
28.7676 862.00
29.0718 965.00
29.3761 930.00
29.6804 961.00
29.9846 1086.00
30.2889 1286.00
30.5931 7054.00
30.8974 2063.00
31.2017 943.00
31.5059 895.00
31.8102 885.00
32.1144 983.00
32.4187 871.00
32.723 848.00
33.0272 1106.00
33.3315 824.00
33.6357 823.00
33.94 1244.00
34.2443 2836.00
34.5485 936.00
34.8528 809.00
35.157 895.00
35.4613 2500.00
35.7656 1183.00
36.0698 729.00
36.3741 690.00
36.6783 711.00
36.9826 706.00
37.2869 799.00
37.5911 830.00
37.8954 894.00
38.1996 649.00
38.5039 665.00
38.8082 645.00
39.1124 714.00
39.4167 641.00
39.7209 684.00
40.0252 626.00
40.3295 582.00
40.6337 644.00
40.938 646.00
41.2422 600.00
41.5465 648.00
41.8508 919.00
42.155 726.00
42.4593 588.00
42.7635 551.00
43.0678 576.00
43.3721 568.00
43.6763 561.00
43.9806 618.00
44.2849 546.00
44.5891 581.00
44.8934 627.00
45.1976 548.00
45.5019 663.00
45.8062 1145.00
46.1104 550.00
46.4147 602.00
46.7189 497.00
47.0232 557.00
47.3275 519.00
47.6317 471.00
47.936 518.00
48.2402 620.00
48.5445 580.00
48.8488 589.00
49.153 988.00
49.4573 748.00
49.7615 514.00
50.0658 500.00
50.3701 501.00
50.6743 605.00
50.9786 2541.00
51.2828 1914.00
51.5871 621.00
51.8914 494.00
52.1956 484.00
52.4999 475.00
52.8041 628.00
53.1084 538.00
53.4127 468.00
53.7169 474.00
54.0212 465.00
54.3254 545.00
54.6297 498.00
54.934 467.00
55.2382 500.00
55.5425 495.00
55.8467 633.00
56.151 804.00
56.4553 509.00
56.7595 421.00
57.0638 451.00
57.368 543.00
57.6723 635.00
57.9766 472.00
58.2808 453.00
58.5851 464.00
58.8893 490.00
59.1936 730.00
59.4979 503.00
59.8021 443.00
60.1064 448.00
60.4106 707.00
60.7149 2399.00
61.0192 1182.00
61.3234 805.00
61.6277 520.00
61.932 456.00
62.2362 855.00
62.5405 556.00
62.8447 375.00
63.149 438.00
63.4533 449.00
63.7575 807.00
64.0618 473.00
64.366 416.00
64.6703 375.00
64.9745 470.00
65.2788 539.00
65.5831 462.00
65.8873 471.00
66.1916 406.00
66.4959 441.00
66.8001 424.00
67.1044 411.00
67.4086 411.00
67.7129 400.00
68.0172 582.00
68.3214 501.00
68.6257 389.00
68.9299 423.00
69.2342 367.00
69.5385 499.00
69.8427 400.00
70.147 345.00
70.4512 345.00
70.7555 354.00
71.0598 353.00
71.364 399.00
71.6683 420.00
71.9725 459.00
72.2768 387.00
72.5811 370.00
72.8853 380.00
73.1896 377.00
73.4938 374.00
73.7981 514.00
74.1024 376.00
74.4066 327.00
74.7109 348.00
75.0151 554.00
75.3194 509.00
75.6237 334.00
75.9279 324.00
76.2322 372.00
76.5364 564.00
76.8407 398.00
77.145 356.00
77.4492 350.00
77.7535 454.00
78.0577 399.00
78.362 327.00
78.6663 358.00
78.9705 358.00
79.2748 433.00
79.579 331.00
79.8833 321.00
80.1876 302.00
80.4918 429.00
80.7961 370.00
81.1003 345.00
81.4046 320.00
81.7089 439.00
82.0131 525.00
82.3174 409.00
82.6217 362.00
82.9259 398.00
83.2302 771.00
83.5344 556.00
83.8387 346.00
84.143 352.00
84.4472 335.00
84.7515 377.00
85.0557 314.00
85.36 327.00
85.6643 433.00
85.9685 593.00
86.2728 435.00
86.577 345.00
86.8813 323.00
87.1856 395.00
87.4898 372.00
87.7941 350.00
88.0983 331.00
88.4026 371.00
88.7069 440.00
89.0111 345.00
89.3154 373.00
89.6196 377.00
89.9239 481.00
90.2282 378.00
90.5324 310.00
90.8367 323.00
91.1409 334.00
91.4452 306.00
91.7495 314.00
92.0537 338.00
92.358 408.00
92.6622 422.00
92.9665 366.00
93.2708 316.00
93.575 324.00
93.8793 311.00
94.1835 321.00
94.4878 308.00
94.7921 330.00
95.0963 452.00
95.4006 419.00
95.7048 306.00
96.0091 361.00
96.3134 459.00
96.6176 569.00
96.9219 481.00
97.2261 358.00
97.5304 348.00
97.8347 464.00
98.1389 403.00
98.4432 339.00
98.7474 301.00
99.0517 375.00
99.356 394.00
99.6602 333.00
99.9645 322.00
100.095 311.00

File: NSC_47.xy
9.903433 2801.00
10.2077 2670.00
10.512 2576.00
10.8162 2507.00
11.1205 2575.00
11.4247 2300.00
11.729 2284.00
12.0333 2278.00
12.3375 2968.00
12.6418 2795.00
12.946 1956.00
13.2503 1923.00
13.5546 1900.00
13.8588 1948.00
14.1631 1769.00
14.4673 1854.00
14.7716 1769.00
15.0759 1732.00
15.3801 1643.00
15.6844 1648.00
15.9886 1630.00
16.2929 1630.00
16.5972 1615.00
16.9014 1531.00
17.2057 1470.00
17.5099 1490.00
17.8142 1436.00
18.1185 1415.00
18.4227 1486.00
18.727 1473.00
19.0312 1797.00
19.3355 1771.00
19.6398 1705.00
19.944 1284.00
20.2483 1372.00
20.5525 1789.00
20.8568 1371.00
21.1611 1443.00
21.4653 1771.00
21.7696 1240.00
22.0738 1209.00
22.3781 1238.00
22.6824 1261.00
22.9866 4102.00
23.2909 1307.00
23.5951 1216.00
23.8994 1890.00
24.2037 1772.00
24.5079 1089.00
24.8122 1055.00
25.1164 1013.00
25.4207 978.00
25.725 954.00
26.0292 983.00
26.3335 923.00
26.6378 863.00
26.942 912.00
27.2463 1110.00
27.5505 905.00
27.8548 999.00
28.1591 930.00
28.4633 825.00
28.7676 911.00
29.0718 875.00
29.3761 920.00
29.6804 1088.00
29.9846 885.00
30.2889 1303.00
30.5931 5985.00
30.8974 1040.00
31.2017 1180.00
31.5059 1052.00
31.8102 4898.00
32.1144 1703.00
32.4187 1027.00
32.723 3084.00
33.0272 1127.00
33.3315 808.00
33.6357 739.00
33.94 907.00
34.2443 1290.00
34.5485 1002.00
34.8528 989.00
35.157 3943.00
35.4613 2673.00
35.7656 779.00
36.0698 669.00
36.3741 623.00
36.6783 619.00
36.9826 630.00
37.2869 787.00
37.5911 1367.00
37.8954 675.00
38.1996 763.00
38.5039 665.00
38.8082 572.00
39.1124 705.00
39.4167 565.00
39.7209 567.00
40.0252 531.00
40.3295 542.00
40.6337 527.00
40.938 627.00
41.2422 801.00
41.5465 663.00
41.8508 1812.00
42.155 642.00
42.4593 586.00
42.7635 547.00
43.0678 1129.00
43.3721 749.00
43.6763 1008.00
43.9806 663.00
44.2849 476.00
44.5891 486.00
44.8934 496.00
45.1976 495.00
45.5019 618.00
45.8062 720.00
46.1104 510.00
46.4147 485.00
46.7189 671.00
47.0232 2103.00
47.3275 760.00
47.6317 479.00
47.936 458.00
48.2402 445.00
48.5445 436.00
48.8488 483.00
49.153 726.00
49.4573 1074.00
49.7615 527.00
50.0658 418.00
50.3701 484.00
50.6743 535.00
50.9786 2551.00
51.2828 1208.00
51.5871 616.00
51.8914 709.00
52.1956 443.00
52.4999 519.00
52.8041 970.00
53.1084 736.00
53.4127 423.00
53.7169 484.00
54.0212 597.00
54.3254 523.00
54.6297 413.00
54.934 399.00
55.2382 437.00
55.5425 624.00
55.8467 1200.00
56.151 660.00
56.4553 625.00
56.7595 383.00
57.0638 435.00
57.368 620.00
57.6723 563.00
57.9766 1115.00
58.2808 564.00
58.5851 383.00
58.8893 402.00
59.1936 610.00
59.4979 448.00
59.8021 541.00
60.1064 990.00
60.4106 987.00
60.7149 2270.00
61.0192 623.00
61.3234 491.00
61.6277 554.00
61.932 798.00
62.2362 984.00
62.5405 594.00
62.8447 486.00
63.149 418.00
63.4533 469.00
63.7575 595.00
64.0618 729.00
64.366 612.00
64.6703 476.00
64.9745 385.00
65.2788 424.00
65.5831 382.00
65.8873 481.00
66.1916 513.00
66.4959 442.00
66.8001 486.00
67.1044 367.00
67.4086 375.00
67.7129 377.00
68.0172 673.00
68.3214 547.00
68.6257 561.00
68.9299 564.00
69.2342 346.00
69.5385 437.00
69.8427 504.00
70.147 436.00
70.4512 362.00
70.7555 287.00
71.0598 282.00
71.364 272.00
71.6683 298.00
71.9725 339.00
72.2768 293.00
72.5811 313.00
72.8853 339.00
73.1896 349.00
73.4938 410.00
73.7981 417.00
74.1024 427.00
74.4066 452.00
74.7109 346.00
75.0151 484.00
75.3194 337.00
75.6237 368.00
75.9279 581.00
76.2322 449.00
76.5364 404.00
76.8407 322.00
77.145 396.00
77.4492 429.00
77.7535 442.00
78.0577 439.00
78.362 395.00
78.6663 310.00
78.9705 323.00
79.2748 378.00
79.579 353.00
79.8833 399.00
80.1876 310.00
80.4918 381.00
80.7961 341.00
81.1003 366.00
81.4046 478.00
81.7089 524.00
82.0131 405.00
82.3174 304.00
82.6217 300.00
82.9259 390.00
83.2302 639.00
83.5344 478.00
83.8387 375.00
84.143 306.00
84.4472 297.00
84.7515 356.00
85.0557 627.00
85.36 638.00
85.6643 449.00
85.9685 447.00
86.2728 284.00
86.577 292.00
86.8813 318.00
87.1856 349.00
87.4898 329.00
87.7941 317.00
88.0983 284.00
88.4026 393.00
88.7069 390.00
89.0111 334.00
89.3154 407.00
89.6196 364.00
89.9239 331.00
90.2282 307.00
90.5324 263.00
90.8367 318.00
91.1409 391.00
91.4452 324.00
91.7495 370.00
92.0537 426.00
92.358 468.00
92.6622 379.00
92.9665 286.00
93.2708 262.00
93.575 246.00
93.8793 311.00
94.1835 281.00
94.4878 362.00
94.7921 510.00
95.0963 455.00
95.4006 437.00
95.7048 383.00
96.0091 448.00
96.3134 708.00
96.6176 576.00
96.9219 420.00
97.2261 295.00
97.5304 285.00
97.8347 416.00
98.1389 393.00
98.4432 360.00
98.7474 271.00
99.0517 351.00
99.356 365.00
99.6602 338.00
99.9645 271.00
100.095 327.00

File: NSC_48.xy
9.903433 3011.00
10.2077 2911.00
10.512 2810.00
10.8162 2588.00
11.1205 2713.00
11.4247 2511.00
11.729 2430.00
12.0333 2313.00
12.3375 2393.00
12.6418 2200.00
12.946 2281.00
13.2503 2170.00
13.5546 2234.00
13.8588 2176.00
14.1631 2138.00
14.4673 2259.00
14.7716 3134.00
15.0759 2130.00
15.3801 1991.00
15.6844 1858.00
15.9886 1896.00
16.2929 1954.00
16.5972 2074.00
16.9014 1928.00
17.2057 2009.00
17.5099 1797.00
17.8142 1795.00
18.1185 1882.00
18.4227 1698.00
18.727 1675.00
19.0312 1710.00
19.3355 1653.00
19.6398 1671.00
19.944 1649.00
20.2483 1709.00
20.5525 1696.00
20.8568 2152.00
21.1611 2002.00
21.4653 1834.00
21.7696 3713.00
22.0738 1714.00
22.3781 1806.00
22.6824 5194.00
22.9866 1573.00
23.2909 2014.00
23.5951 1486.00
23.8994 1410.00
24.2037 1747.00
24.5079 1492.00
24.8122 1454.00
25.1164 1370.00
25.4207 1322.00
25.725 1377.00
26.0292 1176.00
26.3335 1358.00
26.6378 1194.00
26.942 1167.00
27.2463 1208.00
27.5505 1708.00
27.8548 1455.00
28.1591 1204.00
28.4633 1356.00
28.7676 1220.00
29.0718 1252.00
29.3761 1157.00
29.6804 1360.00
29.9846 1740.00
30.2889 1728.00
30.5931 1971.00
30.8974 22993.00
31.2017 1744.00
31.5059 1366.00
31.8102 1209.00
32.1144 1456.00
32.4187 1612.00
32.723 1254.00
33.0272 1561.00
33.3315 2427.00
33.6357 1173.00
33.94 1210.00
34.2443 2633.00
34.5485 4748.00
34.8528 1351.00
35.157 1301.00
35.4613 1446.00
35.7656 7151.00
36.0698 1150.00
36.3741 967.00
36.6783 962.00
36.9826 899.00
37.2869 1045.00
37.5911 1329.00
37.8954 1495.00
38.1996 987.00
38.5039 905.00
38.8082 1062.00
39.1124 1010.00
39.4167 1015.00
39.7209 877.00
40.0252 945.00
40.3295 840.00
40.6337 816.00
40.938 895.00
41.2422 918.00
41.5465 1052.00
41.8508 886.00
42.155 1923.00
42.4593 1159.00
42.7635 818.00
43.0678 829.00
43.3721 895.00
43.6763 906.00
43.9806 908.00
44.2849 845.00
44.5891 764.00
44.8934 863.00
45.1976 979.00
45.5019 799.00
45.8062 968.00
46.1104 1581.00
46.4147 759.00
46.7189 739.00
47.0232 765.00
47.3275 942.00
47.6317 765.00
47.936 721.00
48.2402 902.00
48.5445 947.00
48.8488 831.00
49.153 844.00
49.4573 1587.00
49.7615 965.00
50.0658 771.00
50.3701 697.00
50.6743 728.00
50.9786 1000.00
51.2828 6993.00
51.5871 1631.00
51.8914 848.00
52.1956 693.00
52.4999 657.00
52.8041 668.00
53.1084 1057.00
53.4127 672.00
53.7169 690.00
54.0212 692.00
54.3254 691.00
54.6297 837.00
54.934 708.00
55.2382 693.00
55.5425 695.00
55.8467 777.00
56.151 1041.00
56.4553 996.00
56.7595 749.00
57.0638 654.00
57.368 782.00
57.6723 1093.00
57.9766 890.00
58.2808 646.00
58.5851 713.00
58.8893 756.00
59.1936 704.00
59.4979 1182.00
59.8021 729.00
60.1064 721.00
60.4106 747.00
60.7149 1185.00
61.0192 3746.00
61.3234 1281.00
61.6277 1044.00
61.932 642.00
62.2362 730.00
62.5405 1186.00
62.8447 695.00
63.149 650.00
63.4533 646.00
63.7575 708.00
64.0618 1045.00
64.366 685.00
64.6703 656.00
64.9745 628.00
65.2788 678.00
65.5831 800.00
65.8873 712.00
66.1916 731.00
66.4959 597.00
66.8001 663.00
67.1044 600.00
67.4086 575.00
67.7129 574.00
68.0172 616.00
68.3214 960.00
68.6257 700.00
68.9299 618.00
69.2342 527.00
69.5385 605.00
69.8427 631.00
70.147 517.00
70.4512 504.00
70.7555 516.00
71.0598 614.00
71.364 619.00
71.6683 603.00
71.9725 533.00
72.2768 696.00
72.5811 524.00
72.8853 458.00
73.1896 487.00
73.4938 483.00
73.7981 625.00
74.1024 685.00
74.4066 537.00
74.7109 464.00
75.0151 505.00
75.3194 912.00
75.6237 629.00
75.9279 421.00
76.2322 504.00
76.5364 683.00
76.8407 702.00
77.145 522.00
77.4492 524.00
77.7535 479.00
78.0577 643.00
78.362 487.00
78.6663 479.00
78.9705 476.00
79.2748 629.00
79.579 655.00
79.8833 460.00
80.1876 481.00
80.4918 527.00
80.7961 574.00
81.1003 499.00
81.4046 515.00
81.7089 537.00
82.0131 835.00
82.3174 756.00
82.6217 541.00
82.9259 483.00
83.2302 690.00
83.5344 920.00
83.8387 589.00
84.143 500.00
84.4472 434.00
84.7515 474.00
85.0557 454.00
85.36 505.00
85.6643 511.00
85.9685 807.00
86.2728 779.00
86.577 557.00
86.8813 486.00
87.1856 473.00
87.4898 526.00
87.7941 470.00
88.0983 452.00
88.4026 464.00
88.7069 572.00
89.0111 507.00
89.3154 401.00
89.6196 471.00
89.9239 567.00
90.2282 599.00
90.5324 448.00
90.8367 455.00
91.1409 460.00
91.4452 461.00
91.7495 428.00
92.0537 440.00
92.358 484.00
92.6622 688.00
92.9665 579.00
93.2708 494.00
93.575 432.00
93.8793 437.00
94.1835 425.00
94.4878 436.00
94.7921 445.00
95.0963 506.00
95.4006 668.00
95.7048 559.00
96.0091 447.00
96.3134 506.00
96.6176 873.00
96.9219 737.00
97.2261 503.00
97.5304 508.00
97.8347 535.00
98.1389 580.00
98.4432 568.00
98.7474 472.00
99.0517 462.00
99.356 563.00
99.6602 504.00
99.9645 465.00
100.095 439.00