Folder: alab-pipeline/data/xrd_creation/results (part 77)

File: PG_0922-1.xy
10.0094 7425.00
10.3137 7503.00
10.618 7600.00
10.9222 7678.00
11.2265 7897.00
11.5307 7882.00
11.835 7916.00
12.1393 8066.00
12.4435 8088.00
12.7478 8121.00
13.052 8422.00
13.3563 8476.00
13.6606 8670.00
13.9648 8797.00
14.2691 8816.00
14.5733 8799.00
14.8776 9087.00
15.1819 8944.00
15.4861 9221.00
15.7904 9195.00
16.0946 9232.00
16.3989 9326.00
16.7032 9421.00
17.0074 9513.00
17.3117 9685.00
17.6159 9710.00
17.9202 9824.00
18.2245 9898.00
18.5287 10165.00
18.833 10008.00
19.1372 10453.00
19.4415 10199.00
19.7458 10205.00
20.05 10411.00
20.3543 10242.00
20.6585 10387.00
20.9628 10414.00
21.2671 10439.00
21.5713 10990.00
21.8756 10437.00
22.1798 10451.00
22.4841 10607.00
22.7884 10366.00
23.0926 10664.00
23.3969 10469.00
23.7011 10756.00
24.0054 10718.00
24.3097 10839.00
24.6139 10784.00
24.9182 10792.00
25.2224 10767.00
25.5267 10757.00
25.831 10540.00
26.1352 10828.00
26.4395 10926.00
26.7438 10646.00
27.048 10994.00
27.3523 10801.00
27.6565 10769.00
27.9608 10993.00
28.2651 10824.00
28.5693 10854.00
28.8736 10804.00
29.1778 10982.00
29.4821 11088.00
29.7864 11298.00
30.0906 11084.00
30.3949 11120.00
30.6991 10863.00
31.0034 11517.00
31.3077 11244.00
31.6119 14376.00
31.9162 11400.00
32.2204 11451.00
32.5247 11096.00
32.829 11084.00
33.1332 10878.00
33.4375 11120.00
33.7417 11368.00
34.046 11326.00
34.3503 11334.00
34.6545 11034.00
34.9588 10929.00
35.263 11094.00
35.5673 11093.00
35.8716 11179.00
36.1758 11273.00
36.4801 11624.00
36.7843 11385.00
37.0886 19050.00
37.3929 12020.00
37.6971 11266.00
38.0014 11223.00
38.3056 11107.00
38.6099 11218.00
38.9142 11868.00
39.2184 11297.00
39.5227 11286.00
39.8269 11531.00
40.1312 11456.00
40.4355 11574.00
40.7397 11279.00
41.044 11173.00
41.3482 11339.00
41.6525 11564.00
41.9568 11054.00
42.261 11135.00
42.5653 11420.00
42.8695 11312.00
43.1738 11106.00
43.4781 11229.00
43.7823 11278.00
44.0866 11225.00
44.3909 11202.00
44.6951 11325.00
44.9994 11984.00
45.3036 11665.00
45.6079 11326.00
45.9122 11292.00
46.2164 11201.00
46.5207 11049.00
46.8249 11267.00
47.1292 11162.00
47.4335 11211.00
47.7377 11103.00
48.042 11194.00
48.3462 11287.00
48.6505 11143.00
48.9548 11321.00
49.259 11247.00
49.5633 11428.00
49.8675 11080.00
50.1718 11175.00
50.4761 11154.00
50.7803 11067.00
51.0846 11264.00
51.3888 11170.00
51.6931 11125.00
51.9974 11089.00
52.3016 11099.00
52.6059 11097.00
52.9101 11200.00
53.2144 11151.00
53.5187 11199.00
53.8229 11203.00
54.1272 11060.00
54.4314 11302.00
54.7357 11344.00
55.04 11226.00
55.3442 11196.00
55.6485 11331.00
55.9527 11998.00
56.257 11222.00
56.5613 11189.00
56.8655 11116.00
57.1698 11223.00
57.474 11014.00
57.7783 11189.00
58.0826 11216.00
58.3868 11297.00
58.6911 11332.00
58.9953 11303.00
59.2996 11260.00
59.6039 13911.00
59.9081 11891.00
60.2124 11390.00
60.5166 11195.00
60.8209 11207.00
61.1252 11369.00
61.4294 11304.00
61.7337 11124.00
62.0379 11042.00
62.3422 10869.00
62.6465 11206.00
62.9507 11325.00
63.255 11356.00
63.5592 11164.00
63.8635 11300.00
64.1678 11271.00
64.472 11257.00
64.7763 11245.00
65.0806 11338.00
65.3848 12324.00
65.6891 13576.00
65.9933 11341.00
66.2976 11283.00
66.6019 11391.00
66.9061 11199.00
67.2104 11152.00
67.5146 11293.00
67.8189 11173.00
68.1232 11222.00
68.4274 11109.00
68.7317 11330.00
69.0359 11367.00
69.3402 11328.00
69.6445 11373.00
69.9487 11369.00
70.253 11299.00
70.5572 11151.00
70.8615 11333.00
71.1658 11194.00
71.47 11410.00
71.7743 11091.00
72.0785 11237.00
72.3828 11404.00
72.6871 11109.00
72.9913 11247.00
73.2956 11183.00
73.5998 10910.00
73.9041 11203.00
74.2084 11273.00
74.5126 11445.00
74.8169 11304.00
75.1211 11233.00
75.4254 11334.00
75.7297 11046.00
76.0339 10985.00
76.3382 11248.00
76.6424 11349.00
76.9467 11236.00
77.251 11055.00
77.5552 11846.00
77.8595 11418.00
78.1637 11238.00
78.468 11461.00
78.7723 11326.00
79.0765 11345.00
79.3808 11225.00
79.685 11156.00
79.9893 10931.00
80.2936 11174.00
80.5978 11273.00
80.9021 11210.00
81.2063 11249.00
81.5106 11244.00
81.8149 11097.00
82.1191 11339.00
82.4234 11333.00
82.7277 11178.00
83.0319 11254.00
83.3362 11360.00
83.6404 11246.00
83.9447 11288.00
84.249 11161.00
84.5532 11277.00
84.8575 11192.00
85.1617 11252.00
85.466 11169.00
85.7703 11325.00
86.0745 11290.00
86.3788 11264.00
86.683 11112.00
86.9873 11485.00
87.2916 11192.00
87.5958 11085.00
87.9001 11261.00
88.2043 11083.00
88.5086 11339.00
88.8129 11283.00
89.1171 11128.00
89.4214 11312.00
89.7256 11181.00
90.0299 11258.00
90.3342 11174.00
90.6384 11097.00
90.9427 11180.00
91.2469 11529.00
91.5512 11247.00
91.8555 11140.00
92.1597 11372.00
92.464 11237.00
92.7682 11277.00
93.0725 11228.00
93.3768 11240.00
93.681 11277.00
93.9853 11254.00
94.2895 11813.00
94.5938 11563.00
94.8981 11436.00
95.2023 11375.00
95.5066 11199.00
95.8108 11209.00
96.1151 11117.00
96.4194 11279.00
96.7236 11139.00
97.0279 11248.00
97.3321 11271.00
97.6364 11287.00
97.9407 11190.00
98.2449 11440.00
98.5492 11171.00
98.8534 11299.00
99.1577 11227.00
99.462 11473.00
99.7662 11564.00
99.9944 11351.00

File: PG_1017-1.xy
10.0094 2220.00
10.3137 2193.00
10.618 2104.00
10.9222 2036.00
11.2265 1920.00
11.5307 1836.00
11.835 1745.00
12.1393 1693.00
12.4435 1627.00
12.7478 1598.00
13.052 1487.00
13.3563 1443.00
13.6606 1455.00
13.9648 1402.00
14.2691 1308.00
14.5733 1332.00
14.8776 1354.00
15.1819 1222.00
15.4861 1333.00
15.7904 1221.00
16.0946 1230.00
16.3989 1230.00
16.7032 1252.00
17.0074 1104.00
17.3117 1129.00
17.6159 1296.00
17.9202 1128.00
18.2245 1058.00
18.5287 1030.00
18.833 1069.00
19.1372 1054.00
19.4415 959.00
19.7458 941.00
20.05 987.00
20.3543 894.00
20.6585 978.00
20.9628 912.00
21.2671 895.00
21.5713 827.00
21.8756 903.00
22.1798 891.00
22.4841 894.00
22.7884 808.00
23.0926 834.00
23.3969 838.00
23.7011 822.00
24.0054 932.00
24.3097 1354.00
24.6139 1383.00
24.9182 1270.00
25.2224 791.00
25.5267 797.00
25.831 801.00
26.1352 740.00
26.4395 717.00
26.7438 713.00
27.048 658.00
27.3523 714.00
27.6565 775.00
27.9608 826.00
28.2651 1640.00
28.5693 6460.00
28.8736 1316.00
29.1778 772.00
29.4821 718.00
29.7864 629.00
30.0906 662.00
30.3949 643.00
30.6991 703.00
31.0034 738.00
31.3077 812.00
31.6119 1566.00
31.9162 5397.00
32.2204 1007.00
32.5247 706.00
32.829 672.00
33.1332 621.00
33.4375 616.00
33.7417 1160.00
34.046 741.00
34.3503 1143.00
34.6545 2069.00
34.9588 1591.00
35.263 726.00
35.5673 1044.00
35.8716 1540.00
36.1758 939.00
36.4801 1438.00
36.7843 555.00
37.0886 532.00
37.3929 560.00
37.6971 559.00
38.0014 521.00
38.3056 532.00
38.6099 535.00
38.9142 898.00
39.2184 752.00
39.5227 536.00
39.8269 565.00
40.1312 557.00
40.4355 560.00
40.7397 540.00
41.044 908.00
41.3482 1110.00
41.6525 1143.00
41.9568 737.00
42.261 513.00
42.5653 474.00
42.8695 524.00
43.1738 514.00
43.4781 551.00
43.7823 479.00
44.0866 498.00
44.3909 503.00
44.6951 484.00
44.9994 506.00
45.3036 862.00
45.6079 599.00
45.9122 920.00
46.2164 616.00
46.5207 495.00
46.8249 508.00
47.1292 465.00
47.4335 443.00
47.7377 472.00
48.042 467.00
48.3462 480.00
48.6505 474.00
48.9548 491.00
49.259 602.00
49.5633 947.00
49.8675 1820.00
50.1718 686.00
50.4761 1371.00
50.7803 2045.00
51.0846 1608.00
51.3888 683.00
51.6931 899.00
51.9974 584.00
52.3016 462.00
52.6059 451.00
52.9101 474.00
53.2144 469.00
53.5187 502.00
53.8229 474.00
54.1272 574.00
54.4314 883.00
54.7357 1357.00
55.04 1591.00
55.3442 717.00
55.6485 928.00
55.9527 1898.00
56.257 1066.00
56.5613 1254.00
56.8655 647.00
57.1698 548.00
57.474 663.00
57.7783 1205.00
58.0826 662.00
58.3868 970.00
58.6911 994.00
58.9953 830.00
59.2996 534.00
59.6039 553.00
59.9081 534.00
60.2124 746.00
60.5166 1426.00
60.8209 863.00
61.1252 572.00
61.4294 555.00
61.7337 754.00
62.0379 1026.00
62.3422 902.00
62.6465 1098.00
62.9507 705.00
63.255 800.00
63.5592 1367.00
63.8635 780.00
64.1678 505.00
64.472 605.00
64.7763 854.00
65.0806 695.00
65.3848 823.00
65.6891 599.00
65.9933 908.00
66.2976 1314.00
66.6019 883.00
66.9061 521.00
67.2104 521.00
67.5146 444.00
67.8189 448.00
68.1232 489.00
68.4274 475.00
68.7317 452.00
69.0359 500.00
69.3402 500.00
69.6445 722.00
69.9487 560.00
70.253 557.00
70.5572 527.00
70.8615 538.00
71.1658 517.00
71.47 664.00
71.7743 1078.00
72.0785 762.00
72.3828 574.00
72.6871 716.00
72.9913 744.00
73.2956 782.00
73.5998 579.00
73.9041 521.00
74.2084 567.00
74.5126 499.00
74.8169 489.00
75.1211 554.00
75.4254 740.00
75.7297 871.00
76.0339 820.00
76.3382 591.00
76.6424 557.00
76.9467 707.00
77.251 745.00
77.5552 578.00
77.8595 629.00
78.1637 740.00
78.468 618.00
78.7723 673.00
79.0765 656.00
79.3808 626.00
79.685 800.00
79.9893 588.00
80.2936 534.00
80.5978 523.00
80.9021 515.00
81.2063 546.00
81.5106 554.00
81.8149 537.00
82.1191 706.00
82.4234 705.00
82.7277 606.00
83.0319 649.00
83.3362 798.00
83.6404 778.00
83.9447 797.00
84.249 740.00
84.5532 788.00
84.8575 817.00
85.1617 750.00
85.466 617.00
85.7703 716.00
86.0745 641.00
86.3788 584.00
86.683 697.00
86.9873 729.00
87.2916 588.00
87.5958 572.00
87.9001 613.00
88.2043 739.00
88.5086 739.00
88.8129 747.00
89.1171 813.00
89.4214 860.00
89.7256 695.00
90.0299 638.00
90.3342 837.00
90.6384 983.00
90.9427 713.00
91.2469 606.00
91.5512 559.00
91.8555 598.00
92.1597 719.00
92.464 586.00
92.7682 553.00
93.0725 566.00
93.3768 536.00
93.681 567.00
93.9853 567.00
94.2895 559.00
94.5938 726.00
94.8981 690.00
95.2023 640.00
95.5066 824.00
95.8108 852.00
96.1151 779.00
96.4194 669.00
96.7236 714.00
97.0279 911.00
97.3321 907.00
97.6364 1024.00
97.9407 908.00
98.2449 708.00
98.5492 599.00
98.8534 775.00
99.1577 734.00
99.462 791.00
99.7662 843.00
99.9944 877.00

File: PG_1018-1.xy
10.0094 2101.00
10.3137 2131.00
10.618 1992.00
10.9222 2002.00
11.2265 1865.00
11.5307 1699.00
11.835 1660.00
12.1393 1562.00
12.4435 1552.00
12.7478 1537.00
13.052 1476.00
13.3563 1376.00
13.6606 1352.00
13.9648 1312.00
14.2691 1277.00
14.5733 1246.00
14.8776 1245.00
15.1819 1213.00
15.4861 1175.00
15.7904 1162.00
16.0946 1082.00
16.3989 1096.00
16.7032 1071.00
17.0074 1097.00
17.3117 1025.00
17.6159 930.00
17.9202 994.00
18.2245 908.00
18.5287 962.00
18.833 895.00
19.1372 914.00
19.4415 889.00
19.7458 840.00
20.05 866.00
20.3543 819.00
20.6585 795.00
20.9628 769.00
21.2671 919.00
21.5713 779.00
21.8756 732.00
22.1798 699.00
22.4841 697.00
22.7884 721.00
23.0926 658.00
23.3969 693.00
23.7011 641.00
24.0054 628.00
24.3097 728.00
24.6139 602.00
24.9182 631.00
25.2224 617.00
25.5267 535.00
25.831 612.00
26.1352 584.00
26.4395 515.00
26.7438 531.00
27.048 501.00
27.3523 532.00
27.6565 493.00
27.9608 497.00
28.2651 491.00
28.5693 516.00
28.8736 463.00
29.1778 486.00
29.4821 470.00
29.7864 493.00
30.0906 541.00
30.3949 1578.00
30.6991 603.00
31.0034 487.00
31.3077 479.00
31.6119 440.00
31.9162 470.00
32.2204 422.00
32.5247 442.00
32.829 430.00
33.1332 443.00
33.4375 572.00
33.7417 382.00
34.046 419.00
34.3503 378.00
34.6545 357.00
34.9588 382.00
35.263 626.00
35.5673 464.00
35.8716 374.00
36.1758 467.00
36.4801 336.00
36.7843 326.00
37.0886 336.00
37.3929 365.00
37.6971 349.00
38.0014 313.00
38.3056 302.00
38.6099 319.00
38.9142 310.00
39.2184 313.00
39.5227 324.00
39.8269 330.00
40.1312 282.00
40.4355 278.00
40.7397 290.00
41.044 297.00
41.3482 369.00
41.6525 300.00
41.9568 270.00
42.261 310.00
42.5653 259.00
42.8695 264.00
43.1738 272.00
43.4781 292.00
43.7823 281.00
44.0866 270.00
44.3909 271.00
44.6951 272.00
44.9994 277.00
45.3036 292.00
45.6079 353.00
45.9122 248.00
46.2164 246.00
46.5207 258.00
46.8249 247.00
47.1292 222.00
47.4335 237.00
47.7377 219.00
48.042 259.00
48.3462 221.00
48.6505 239.00
48.9548 213.00
49.259 222.00
49.5633 245.00
49.8675 234.00
50.1718 272.00
50.4761 219.00
50.7803 324.00
51.0846 391.00
51.3888 274.00
51.6931 217.00
51.9974 227.00
52.3016 238.00
52.6059 245.00
52.9101 196.00
53.2144 218.00
53.5187 208.00
53.8229 216.00
54.1272 161.00
54.4314 225.00
54.7357 311.00
55.04 218.00
55.3442 167.00
55.6485 218.00
55.9527 248.00
56.257 201.00
56.5613 194.00
56.8655 198.00
57.1698 189.00
57.474 208.00
57.7783 179.00
58.0826 177.00
58.3868 189.00
58.6911 192.00
58.9953 216.00
59.2996 182.00
59.6039 170.00
59.9081 170.00
60.2124 177.00
60.5166 399.00
60.8209 222.00
61.1252 173.00
61.4294 178.00
61.7337 182.00
62.0379 213.00
62.3422 190.00
62.6465 150.00
62.9507 170.00
63.255 175.00
63.5592 234.00
63.8635 169.00
64.1678 144.00
64.472 169.00
64.7763 163.00
65.0806 200.00
65.3848 172.00
65.6891 196.00
65.9933 158.00
66.2976 167.00
66.6019 187.00
66.9061 133.00
67.2104 141.00
67.5146 157.00
67.8189 160.00
68.1232 169.00
68.4274 157.00
68.7317 176.00
69.0359 177.00
69.3402 189.00
69.6445 151.00
69.9487 161.00
70.253 183.00
70.5572 142.00
70.8615 146.00
71.1658 176.00
71.47 170.00
71.7743 153.00
72.0785 181.00
72.3828 153.00
72.6871 177.00
72.9913 149.00
73.2956 184.00
73.5998 207.00
73.9041 179.00
74.2084 176.00
74.5126 161.00
74.8169 175.00
75.1211 189.00
75.4254 169.00
75.7297 169.00
76.0339 181.00
76.3382 185.00
76.6424 186.00
76.9467 170.00
77.251 180.00
77.5552 196.00
77.8595 176.00
78.1637 159.00
78.468 181.00
78.7723 200.00
79.0765 189.00
79.3808 175.00
79.685 183.00
79.9893 199.00
80.2936 200.00
80.5978 181.00
80.9021 225.00
81.2063 190.00
81.5106 201.00
81.8149 171.00
82.1191 202.00
82.4234 202.00
82.7277 167.00
83.0319 198.00
83.3362 210.00
83.6404 201.00
83.9447 171.00
84.249 180.00
84.5532 175.00
84.8575 208.00
85.1617 193.00
85.466 181.00
85.7703 194.00
86.0745 177.00
86.3788 173.00
86.683 164.00
86.9873 174.00
87.2916 178.00
87.5958 171.00
87.9001 172.00
88.2043 141.00
88.5086 161.00
88.8129 159.00
89.1171 155.00
89.4214 176.00
89.7256 149.00
90.0299 175.00
90.3342 190.00
90.6384 146.00
90.9427 167.00
91.2469 165.00
91.5512 166.00
91.8555 151.00
92.1597 146.00
92.464 167.00
92.7682 175.00
93.0725 134.00
93.3768 155.00
93.681 147.00
93.9853 167.00
94.2895 147.00
94.5938 172.00
94.8981 166.00
95.2023 187.00
95.5066 156.00
95.8108 152.00
96.1151 172.00
96.4194 146.00
96.7236 171.00
97.0279 141.00
97.3321 183.00
97.6364 157.00
97.9407 181.00
98.2449 157.00
98.5492 144.00
98.8534 174.00
99.1577 145.00
99.462 170.00
99.7662 178.00
99.9944 164.00

File: PG_1019-1.xy
10.0094 2426.00
10.3137 2404.00
10.618 2303.00
10.9222 2206.00
11.2265 2118.00
11.5307 2087.00
11.835 2021.00
12.1393 1969.00
12.4435 1848.00
12.7478 1838.00
13.052 1816.00
13.3563 1694.00
13.6606 1614.00
13.9648 1624.00
14.2691 1668.00
14.5733 1669.00
14.8776 1574.00
15.1819 1486.00
15.4861 1489.00
15.7904 1528.00
16.0946 1459.00
16.3989 1505.00
16.7032 1471.00
17.0074 1433.00
17.3117 1648.00
17.6159 1476.00
17.9202 1301.00
18.2245 1307.00
18.5287 1258.00
18.833 1329.00
19.1372 1250.00
19.4415 1261.00
19.7458 1170.00
20.05 1197.00
20.3543 1193.00
20.6585 1233.00
20.9628 2174.00
21.2671 1232.00
21.5713 1114.00
21.8756 1120.00
22.1798 1161.00
22.4841 1049.00
22.7884 1050.00
23.0926 1080.00
23.3969 1336.00
23.7011 1033.00
24.0054 1067.00
24.3097 1029.00
24.6139 1492.00
24.9182 1345.00
25.2224 995.00
25.5267 914.00
25.831 1183.00
26.1352 938.00
26.4395 950.00
26.7438 884.00
27.048 934.00
27.3523 894.00
27.6565 900.00
27.9608 1118.00
28.2651 922.00
28.5693 976.00
28.8736 916.00
29.1778 2080.00
29.4821 930.00
29.7864 907.00
30.0906 3301.00
30.3949 2489.00
30.6991 865.00
31.0034 804.00
31.3077 867.00
31.6119 1093.00
31.9162 795.00
32.2204 774.00
32.5247 811.00
32.829 829.00
33.1332 773.00
33.4375 780.00
33.7417 1486.00
34.046 1143.00
34.3503 830.00
34.6545 851.00
34.9588 832.00
35.263 1004.00
35.5673 697.00
35.8716 731.00
36.1758 834.00
36.4801 3625.00
36.7843 746.00
37.0886 806.00
37.3929 652.00
37.6971 727.00
38.0014 706.00
38.3056 727.00
38.6099 651.00
38.9142 686.00
39.2184 638.00
39.5227 1343.00
39.8269 931.00
40.1312 755.00
40.4355 618.00
40.7397 626.00
41.044 647.00
41.3482 648.00
41.6525 937.00
41.9568 824.00
42.261 919.00
42.5653 1653.00
42.8695 661.00
43.1738 597.00
43.4781 620.00
43.7823 595.00
44.0866 575.00
44.3909 799.00
44.6951 624.00
44.9994 629.00
45.3036 608.00
45.6079 608.00
45.9122 580.00
46.2164 598.00
46.5207 688.00
46.8249 559.00
47.1292 786.00
47.4335 602.00
47.7377 698.00
48.042 796.00
48.3462 547.00
48.6505 659.00
48.9548 592.00
49.259 566.00
49.5633 576.00
49.8675 588.00
50.1718 726.00
50.4761 1535.00
50.7803 629.00
51.0846 627.00
51.3888 532.00
51.6931 559.00
51.9974 540.00
52.3016 615.00
52.6059 641.00
52.9101 685.00
53.2144 690.00
53.5187 597.00
53.8229 659.00
54.1272 496.00
54.4314 535.00
54.7357 601.00
55.04 2250.00
55.3442 917.00
55.6485 671.00
55.9527 513.00
56.257 576.00
56.5613 572.00
56.8655 563.00
57.1698 559.00
57.474 799.00
57.7783 572.00
58.0826 544.00
58.3868 573.00
58.6911 685.00
58.9953 541.00
59.2996 521.00
59.6039 612.00
59.9081 568.00
60.2124 542.00
60.5166 535.00
60.8209 580.00
61.1252 580.00
61.4294 524.00
61.7337 568.00
62.0379 510.00
62.3422 612.00
62.6465 558.00
62.9507 777.00
63.255 612.00
63.5592 775.00
63.8635 946.00
64.1678 622.00
64.472 543.00
64.7763 574.00
65.0806 600.00
65.3848 1253.00
65.6891 619.00
65.9933 515.00
66.2976 556.00
66.6019 590.00
66.9061 501.00
67.2104 545.00
67.5146 644.00
67.8189 543.00
68.1232 510.00
68.4274 569.00
68.7317 516.00
69.0359 522.00
69.3402 494.00
69.6445 529.00
69.9487 509.00
70.253 466.00
70.5572 562.00
70.8615 561.00
71.1658 495.00
71.47 545.00
71.7743 601.00
72.0785 565.00
72.3828 480.00
72.6871 513.00
72.9913 585.00
73.2956 659.00
73.5998 674.00
73.9041 558.00
74.2084 541.00
74.5126 533.00
74.8169 535.00
75.1211 495.00
75.4254 489.00
75.7297 514.00
76.0339 546.00
76.3382 504.00
76.6424 503.00
76.9467 608.00
77.251 581.00
77.5552 513.00
77.8595 518.00
78.1637 471.00
78.468 503.00
78.7723 538.00
79.0765 536.00
79.3808 595.00
79.685 610.00
79.9893 539.00
80.2936 522.00
80.5978 518.00
80.9021 562.00
81.2063 534.00
81.5106 543.00
81.8149 498.00
82.1191 523.00
82.4234 574.00
82.7277 520.00
83.0319 505.00
83.3362 468.00
83.6404 539.00
83.9447 509.00
84.249 584.00
84.5532 607.00
84.8575 552.00
85.1617 496.00
85.466 524.00
85.7703 503.00
86.0745 538.00
86.3788 496.00
86.683 692.00
86.9873 627.00
87.2916 555.00
87.5958 495.00
87.9001 482.00
88.2043 490.00
88.5086 542.00
88.8129 519.00
89.1171 464.00
89.4214 531.00
89.7256 506.00
90.0299 512.00
90.3342 765.00
90.6384 640.00
90.9427 484.00
91.2469 496.00
91.5512 550.00
91.8555 489.00
92.1597 538.00
92.464 527.00
92.7682 490.00
93.0725 507.00
93.3768 548.00
93.681 500.00
93.9853 490.00
94.2895 546.00
94.5938 533.00
94.8981 503.00
95.2023 536.00
95.5066 720.00
95.8108 645.00
96.1151 528.00
96.4194 505.00
96.7236 527.00
97.0279 461.00
97.3321 497.00
97.6364 514.00
97.9407 540.00
98.2449 501.00
98.5492 547.00
98.8534 490.00
99.1577 544.00
99.462 547.00
99.7662 526.00
99.9944 516.00

File: PG_1020-1.xy
10.0094 2637.00
10.3137 2448.00
10.618 2388.00
10.9222 2335.00
11.2265 2237.00
11.5307 2149.00
11.835 2117.00
12.1393 2068.00
12.4435 1951.00
12.7478 1952.00
13.052 1923.00
13.3563 1849.00
13.6606 1806.00
13.9648 1810.00
14.2691 1722.00
14.5733 1739.00
14.8776 1705.00
15.1819 1653.00
15.4861 1680.00
15.7904 1637.00
16.0946 1627.00
16.3989 1590.00
16.7032 1599.00
17.0074 1496.00
17.3117 1570.00
17.6159 2158.00
17.9202 1507.00
18.2245 1570.00
18.5287 1437.00
18.833 1451.00
19.1372 1361.00
19.4415 1379.00
19.7458 1297.00
20.05 1398.00
20.3543 1323.00
20.6585 1313.00
20.9628 1274.00
21.2671 1317.00
21.5713 1201.00
21.8756 1179.00
22.1798 1217.00
22.4841 1225.00
22.7884 1211.00
23.0926 1141.00
23.3969 1213.00
23.7011 1276.00
24.0054 2654.00
24.3097 3583.00
24.6139 1642.00
24.9182 3326.00
25.2224 1216.00
25.5267 1075.00
25.831 1101.00
26.1352 1091.00
26.4395 1077.00
26.7438 1083.00
27.048 1034.00
27.3523 973.00
27.6565 988.00
27.9608 990.00
28.2651 935.00
28.5693 1004.00
28.8736 1028.00
29.1778 914.00
29.4821 945.00
29.7864 1007.00
30.0906 1790.00
30.3949 976.00
30.6991 1051.00
31.0034 8487.00
31.3077 1163.00
31.6119 916.00
31.9162 865.00
32.2204 855.00
32.5247 860.00
32.829 823.00
33.1332 904.00
33.4375 944.00
33.7417 1470.00
34.046 3243.00
34.3503 3831.00
34.6545 905.00
34.9588 857.00
35.263 877.00
35.5673 1797.00
35.8716 868.00
36.1758 933.00
36.4801 4540.00
36.7843 1071.00
37.0886 811.00
37.3929 803.00
37.6971 854.00
38.0014 732.00
38.3056 830.00
38.6099 1114.00
38.9142 989.00
39.2184 750.00
39.5227 766.00
39.8269 765.00
40.1312 1010.00
40.4355 738.00
40.7397 699.00
41.044 993.00
41.3482 743.00
41.6525 1004.00
41.9568 1344.00
42.261 708.00
42.5653 733.00
42.8695 722.00
43.1738 668.00
43.4781 698.00
43.7823 617.00
44.0866 653.00
44.3909 776.00
44.6951 758.00
44.9994 698.00
45.3036 696.00
45.6079 688.00
45.9122 841.00
46.2164 1165.00
46.5207 892.00
46.8249 4411.00
47.1292 770.00
47.4335 686.00
47.7377 685.00
48.042 907.00
48.3462 681.00
48.6505 675.00
48.9548 666.00
49.259 750.00
49.5633 668.00
49.8675 690.00
50.1718 650.00
50.4761 2053.00
50.7803 818.00
51.0846 645.00
51.3888 609.00
51.6931 633.00
51.9974 652.00
52.3016 667.00
52.6059 687.00
52.9101 611.00
53.2144 646.00
53.5187 669.00
53.8229 637.00
54.1272 622.00
54.4314 693.00
54.7357 770.00
55.04 2147.00
55.3442 3214.00
55.6485 763.00
55.9527 658.00
56.257 665.00
56.5613 687.00
56.8655 561.00
57.1698 647.00
57.474 632.00
57.7783 656.00
58.0826 675.00
58.3868 686.00
58.6911 1911.00
58.9953 901.00
59.2996 1051.00
59.6039 646.00
59.9081 569.00
60.2124 737.00
60.5166 629.00
60.8209 623.00
61.1252 607.00
61.4294 592.00
61.7337 638.00
62.0379 593.00
62.3422 665.00
62.6465 590.00
62.9507 586.00
63.255 631.00
63.5592 768.00
63.8635 1461.00
64.1678 951.00
64.472 965.00
64.7763 623.00
65.0806 672.00
65.3848 2165.00
65.6891 943.00
65.9933 560.00
66.2976 576.00
66.6019 618.00
66.9061 622.00
67.2104 608.00
67.5146 608.00
67.8189 575.00
68.1232 572.00
68.4274 623.00
68.7317 611.00
69.0359 601.00
69.3402 615.00
69.6445 614.00
69.9487 1541.00
70.253 717.00
70.5572 621.00
70.8615 588.00
71.1658 580.00
71.47 621.00
71.7743 790.00
72.0785 673.00
72.3828 606.00
72.6871 627.00
72.9913 626.00
73.2956 962.00
73.5998 742.00
73.9041 650.00
74.2084 633.00
74.5126 651.00
74.8169 802.00
75.1211 585.00
75.4254 563.00
75.7297 561.00
76.0339 616.00
76.3382 566.00
76.6424 617.00
76.9467 819.00
77.251 775.00
77.5552 605.00
77.8595 595.00
78.1637 563.00
78.468 566.00
78.7723 604.00
79.0765 641.00
79.3808 795.00
79.685 960.00
79.9893 1069.00
80.2936 759.00
80.5978 549.00
80.9021 615.00
81.2063 612.00
81.5106 599.00
81.8149 753.00
82.1191 831.00
82.4234 666.00
82.7277 602.00
83.0319 644.00
83.3362 548.00
83.6404 600.00
83.9447 594.00
84.249 629.00
84.5532 806.00
84.8575 651.00
85.1617 570.00
85.466 613.00
85.7703 694.00
86.0745 600.00
86.3788 563.00
86.683 767.00
86.9873 708.00
87.2916 635.00
87.5958 577.00
87.9001 544.00
88.2043 537.00
88.5086 570.00
88.8129 551.00
89.1171 573.00
89.4214 622.00
89.7256 551.00
90.0299 584.00
90.3342 854.00
90.6384 809.00
90.9427 623.00
91.2469 573.00
91.5512 552.00
91.8555 584.00
92.1597 597.00
92.464 558.00
92.7682 552.00
93.0725 549.00
93.3768 619.00
93.681 623.00
93.9853 552.00
94.2895 613.00
94.5938 589.00
94.8981 562.00
95.2023 593.00
95.5066 1390.00
95.8108 995.00
96.1151 607.00
96.4194 565.00
96.7236 578.00
97.0279 648.00
97.3321 600.00
97.6364 592.00
97.9407 585.00
98.2449 571.00
98.5492 600.00
98.8534 562.00
99.1577 603.00
99.462 649.00
99.7662 1082.00
99.9944 668.00