Folder: alab-pipeline/data/xrd_creation/results (part 66)

File: NSC_172.xy
9.903433 2836.00
10.2077 2715.00
10.512 2537.00
10.8162 2450.00
11.1205 2394.00
11.4247 2279.00
11.729 2199.00
12.0333 2201.00
12.3375 2192.00
12.6418 2062.00
12.946 2029.00
13.2503 2025.00
13.5546 1964.00
13.8588 2035.00
14.1631 2148.00
14.4673 3410.00
14.7716 1858.00
15.0759 1748.00
15.3801 1788.00
15.6844 1750.00
15.9886 1820.00
16.2929 1821.00
16.5972 1723.00
16.9014 1699.00
17.2057 1711.00
17.5099 1634.00
17.8142 1619.00
18.1185 1535.00
18.4227 1560.00
18.727 1552.00
19.0312 1389.00
19.3355 1581.00
19.6398 1602.00
19.944 4622.00
20.2483 2107.00
20.5525 7015.00
20.8568 1580.00
21.1611 1380.00
21.4653 1412.00
21.7696 1446.00
22.0738 1330.00
22.3781 1310.00
22.6824 1299.00
22.9866 1229.00
23.2909 1496.00
23.5951 2002.00
23.8994 7907.00
24.2037 1434.00
24.5079 1225.00
24.8122 1234.00
25.1164 1171.00
25.4207 1117.00
25.725 1076.00
26.0292 1119.00
26.3335 1118.00
26.6378 1228.00
26.942 4597.00
27.2463 1142.00
27.5505 1045.00
27.8548 1002.00
28.1591 1038.00
28.4633 1298.00
28.7676 5027.00
29.0718 997.00
29.3761 870.00
29.6804 909.00
29.9846 995.00
30.2889 905.00
30.5931 871.00
30.8974 924.00
31.2017 979.00
31.5059 1556.00
31.8102 9756.00
32.1144 1119.00
32.4187 886.00
32.723 851.00
33.0272 866.00
33.3315 831.00
33.6357 824.00
33.94 943.00
34.2443 3283.00
34.5485 1006.00
34.8528 773.00
35.157 968.00
35.4613 2481.00
35.7656 4564.00
36.0698 882.00
36.3741 725.00
36.6783 715.00
36.9826 690.00
37.2869 659.00
37.5911 664.00
37.8954 685.00
38.1996 1112.00
38.5039 841.00
38.8082 659.00
39.1124 668.00
39.4167 698.00
39.7209 644.00
40.0252 642.00
40.3295 966.00
40.6337 669.00
40.938 620.00
41.2422 610.00
41.5465 660.00
41.8508 657.00
42.155 912.00
42.4593 809.00
42.7635 735.00
43.0678 677.00
43.3721 1149.00
43.6763 730.00
43.9806 749.00
44.2849 549.00
44.5891 538.00
44.8934 556.00
45.1976 609.00
45.5019 1236.00
45.8062 841.00
46.1104 718.00
46.4147 1253.00
46.7189 615.00
47.0232 549.00
47.3275 770.00
47.6317 915.00
47.936 714.00
48.2402 1145.00
48.5445 2341.00
48.8488 912.00
49.153 780.00
49.4573 681.00
49.7615 481.00
50.0658 522.00
50.3701 531.00
50.6743 498.00
50.9786 542.00
51.2828 502.00
51.5871 564.00
51.8914 1196.00
52.1956 3641.00
52.4999 790.00
52.8041 598.00
53.1084 547.00
53.4127 497.00
53.7169 495.00
54.0212 470.00
54.3254 469.00
54.6297 521.00
54.934 983.00
55.2382 935.00
55.5425 1741.00
55.8467 1309.00
56.151 558.00
56.4553 472.00
56.7595 487.00
57.0638 636.00
57.368 510.00
57.6723 442.00
57.9766 502.00
58.2808 524.00
58.5851 422.00
58.8893 514.00
59.1936 648.00
59.4979 691.00
59.8021 491.00
60.1064 464.00
60.4106 615.00
60.7149 1280.00
61.0192 605.00
61.3234 984.00
61.6277 1062.00
61.932 666.00
62.2362 884.00
62.5405 510.00
62.8447 488.00
63.149 612.00
63.4533 786.00
63.7575 1018.00
64.0618 717.00
64.366 523.00
64.6703 704.00
64.9745 886.00
65.2788 590.00
65.5831 454.00
65.8873 462.00
66.1916 766.00
66.4959 670.00
66.8001 522.00
67.1044 559.00
67.4086 858.00
67.7129 663.00
68.0172 440.00
68.3214 639.00
68.6257 594.00
68.9299 544.00
69.2342 572.00
69.5385 455.00
69.8427 374.00
70.147 378.00
70.4512 369.00
70.7555 397.00
71.0598 514.00
71.364 851.00
71.6683 704.00
71.9725 426.00
72.2768 487.00
72.5811 452.00
72.8853 368.00
73.1896 347.00
73.4938 347.00
73.7981 344.00
74.1024 354.00
74.4066 467.00
74.7109 563.00
75.0151 655.00
75.3194 676.00
75.6237 496.00
75.9279 527.00
76.2322 431.00
76.5364 379.00
76.8407 419.00
77.145 501.00
77.4492 387.00
77.7535 338.00
78.0577 365.00
78.362 421.00
78.6663 466.00
78.9705 716.00
79.2748 531.00
79.579 460.00
79.8833 402.00
80.1876 357.00
80.4918 362.00
80.7961 347.00
81.1003 361.00
81.4046 425.00
81.7089 405.00
82.0131 490.00
82.3174 479.00
82.6217 327.00
82.9259 328.00
83.2302 396.00
83.5344 428.00
83.8387 610.00
84.143 607.00
84.4472 425.00
84.7515 350.00
85.0557 411.00
85.36 414.00
85.6643 373.00
85.9685 471.00
86.2728 350.00
86.577 336.00
86.8813 324.00
87.1856 337.00
87.4898 411.00
87.7941 409.00
88.0983 384.00
88.4026 395.00
88.7069 382.00
89.0111 460.00
89.3154 446.00
89.6196 475.00
89.9239 644.00
90.2282 776.00
90.5324 536.00
90.8367 427.00
91.1409 532.00
91.4452 400.00
91.7495 365.00
92.0537 351.00
92.358 444.00
92.6622 490.00
92.9665 400.00
93.2708 347.00
93.575 405.00
93.8793 368.00
94.1835 375.00
94.4878 394.00
94.7921 376.00
95.0963 375.00
95.4006 330.00
95.7048 401.00
96.0091 512.00
96.3134 655.00
96.6176 532.00
96.9219 409.00
97.2261 459.00
97.5304 432.00
97.8347 354.00
98.1389 330.00
98.4432 280.00
98.7474 284.00
99.0517 334.00
99.356 379.00
99.6602 369.00
99.9645 353.00
100.095 382.00

File: NSC_173.xy
9.903433 2699.00
10.2077 2643.00
10.512 2462.00
10.8162 2467.00
11.1205 2362.00
11.4247 2285.00
11.729 2295.00
12.0333 2203.00
12.3375 2026.00
12.6418 2018.00
12.946 2048.00
13.2503 1835.00
13.5546 1952.00
13.8588 1902.00
14.1631 2283.00
14.4673 3755.00
14.7716 1881.00
15.0759 1739.00
15.3801 1724.00
15.6844 1648.00
15.9886 1643.00
16.2929 1620.00
16.5972 1622.00
16.9014 1570.00
17.2057 1604.00
17.5099 1501.00
17.8142 1506.00
18.1185 1484.00
18.4227 1525.00
18.727 1543.00
19.0312 1509.00
19.3355 1668.00
19.6398 2406.00
19.944 6407.00
20.2483 5398.00
20.5525 5820.00
20.8568 11263.00
21.1611 1703.00
21.4653 1605.00
21.7696 1654.00
22.0738 1738.00
22.3781 1432.00
22.6824 1337.00
22.9866 1428.00
23.2909 1659.00
23.5951 1941.00
23.8994 4625.00
24.2037 4376.00
24.5079 1333.00
24.8122 1367.00
25.1164 1342.00
25.4207 1258.00
25.725 1284.00
26.0292 1179.00
26.3335 1182.00
26.6378 1245.00
26.942 1218.00
27.2463 1224.00
27.5505 1506.00
27.8548 1507.00
28.1591 1349.00
28.4633 1734.00
28.7676 4078.00
29.0718 5003.00
29.3761 1200.00
29.6804 1172.00
29.9846 1144.00
30.2889 1085.00
30.5931 1075.00
30.8974 1184.00
31.2017 1279.00
31.5059 2538.00
31.8102 5677.00
32.1144 6724.00
32.4187 1332.00
32.723 1133.00
33.0272 1076.00
33.3315 1008.00
33.6357 1044.00
33.94 1070.00
34.2443 1246.00
34.5485 1457.00
34.8528 1103.00
35.157 1149.00
35.4613 2138.00
35.7656 4294.00
36.0698 4094.00
36.3741 3737.00
36.6783 1046.00
36.9826 997.00
37.2869 982.00
37.5911 962.00
37.8954 995.00
38.1996 939.00
38.5039 959.00
38.8082 969.00
39.1124 984.00
39.4167 983.00
39.7209 941.00
40.0252 1080.00
40.3295 1222.00
40.6337 1439.00
40.938 981.00
41.2422 980.00
41.5465 1487.00
41.8508 1568.00
42.155 1786.00
42.4593 1493.00
42.7635 1123.00
43.0678 1047.00
43.3721 1227.00
43.6763 1561.00
43.9806 1931.00
44.2849 1087.00
44.5891 1078.00
44.8934 936.00
45.1976 1104.00
45.5019 1455.00
45.8062 2082.00
46.1104 1775.00
46.4147 1391.00
46.7189 1853.00
47.0232 2120.00
47.3275 1344.00
47.6317 1504.00
47.936 1189.00
48.2402 1308.00
48.5445 1669.00
48.8488 2575.00
49.153 2165.00
49.4573 1175.00
49.7615 1019.00
50.0658 872.00
50.3701 828.00
50.6743 857.00
50.9786 914.00
51.2828 988.00
51.5871 1287.00
51.8914 1442.00
52.1956 1911.00
52.4999 2328.00
52.8041 1304.00
53.1084 975.00
53.4127 808.00
53.7169 869.00
54.0212 861.00
54.3254 967.00
54.6297 1629.00
54.934 1088.00
55.2382 1409.00
55.5425 1615.00
55.8467 1814.00
56.151 2468.00
56.4553 2957.00
56.7595 1820.00
57.0638 1083.00
57.368 859.00
57.6723 925.00
57.9766 974.00
58.2808 890.00
58.5851 945.00
58.8893 988.00
59.1936 1162.00
59.4979 1356.00
59.8021 1165.00
60.1064 965.00
60.4106 1060.00
60.7149 1240.00
61.0192 1579.00
61.3234 1704.00
61.6277 1260.00
61.932 1416.00
62.2362 1800.00
62.5405 1285.00
62.8447 1070.00
63.149 1124.00
63.4533 1213.00
63.7575 1410.00
64.0618 1374.00
64.366 1349.00
64.6703 1441.00
64.9745 1448.00
65.2788 1197.00
65.5831 943.00
65.8873 822.00
66.1916 838.00
66.4959 998.00
66.8001 1029.00
67.1044 997.00
67.4086 1183.00
67.7129 1320.00
68.0172 1131.00
68.3214 1108.00
68.6257 1181.00
68.9299 1138.00
69.2342 1296.00
69.5385 981.00
69.8427 945.00
70.147 997.00
70.4512 881.00
70.7555 736.00
71.0598 809.00
71.364 845.00
71.6683 864.00
71.9725 958.00
72.2768 1124.00
72.5811 1180.00
72.8853 813.00
73.1896 777.00
73.4938 818.00
73.7981 767.00
74.1024 812.00
74.4066 814.00
74.7109 862.00
75.0151 1014.00
75.3194 1136.00
75.6237 1023.00
75.9279 1014.00
76.2322 1107.00
76.5364 1227.00
76.8407 1027.00
77.145 905.00
77.4492 820.00
77.7535 794.00
78.0577 813.00
78.362 799.00
78.6663 803.00
78.9705 859.00
79.2748 924.00
79.579 1040.00
79.8833 1067.00
80.1876 1178.00
80.4918 1122.00
80.7961 931.00
81.1003 847.00
81.4046 899.00
81.7089 857.00
82.0131 855.00
82.3174 876.00
82.6217 995.00
82.9259 939.00
83.2302 819.00
83.5344 787.00
83.8387 770.00
84.143 833.00
84.4472 861.00
84.7515 909.00
85.0557 1034.00
85.36 961.00
85.6643 855.00
85.9685 874.00
86.2728 842.00
86.577 911.00
86.8813 902.00
87.1856 885.00
87.4898 836.00
87.7941 860.00
88.0983 842.00
88.4026 859.00
88.7069 860.00
89.0111 818.00
89.3154 840.00
89.6196 872.00
89.9239 906.00
90.2282 940.00
90.5324 936.00
90.8367 1046.00
91.1409 1042.00
91.4452 1006.00
91.7495 972.00
92.0537 815.00
92.358 874.00
92.6622 873.00
92.9665 858.00
93.2708 889.00
93.575 948.00
93.8793 931.00
94.1835 882.00
94.4878 834.00
94.7921 868.00
95.0963 794.00
95.4006 822.00
95.7048 865.00
96.0091 980.00
96.3134 932.00
96.6176 973.00
96.9219 927.00
97.2261 1011.00
97.5304 981.00
97.8347 973.00
98.1389 931.00
98.4432 907.00
98.7474 869.00
99.0517 825.00
99.356 733.00
99.6602 744.00
99.9645 748.00
100.095 758.00

File: NSC_174.xy
9.903433 2638.00
10.2077 2432.00
10.512 2371.00
10.8162 2213.00
11.1205 2152.00
11.4247 2064.00
11.729 2023.00
12.0333 1928.00
12.3375 1885.00
12.6418 1774.00
12.946 1818.00
13.2503 1715.00
13.5546 1637.00
13.8588 1689.00
14.1631 1623.00
14.4673 1556.00
14.7716 1759.00
15.0759 3725.00
15.3801 1521.00
15.6844 1434.00
15.9886 1513.00
16.2929 1477.00
16.5972 1323.00
16.9014 1382.00
17.2057 1381.00
17.5099 1301.00
17.8142 1313.00
18.1185 1233.00
18.4227 1201.00
18.727 1251.00
19.0312 1260.00
19.3355 1208.00
19.6398 1193.00
19.944 1159.00
20.2483 1191.00
20.5525 1664.00
20.8568 8502.00
21.1611 1435.00
21.4653 2375.00
21.7696 8980.00
22.0738 1309.00
22.3781 1036.00
22.6824 1112.00
22.9866 991.00
23.2909 980.00
23.5951 1009.00
23.8994 978.00
24.2037 1052.00
24.5079 1131.00
24.8122 3665.00
25.1164 14672.00
25.4207 1249.00
25.725 947.00
26.0292 1114.00
26.3335 2921.00
26.6378 934.00
26.942 811.00
27.2463 845.00
27.5505 884.00
27.8548 815.00
28.1591 806.00
28.4633 810.00
28.7676 759.00
29.0718 801.00
29.3761 790.00
29.6804 893.00
29.9846 3348.00
30.2889 2137.00
30.5931 837.00
30.8974 736.00
31.2017 701.00
31.5059 691.00
31.8102 682.00
32.1144 724.00
32.4187 764.00
32.723 908.00
33.0272 4662.00
33.3315 3911.00
33.6357 1802.00
33.94 744.00
34.2443 878.00
34.5485 695.00
34.8528 645.00
35.157 611.00
35.4613 671.00
35.7656 845.00
36.0698 633.00
36.3741 725.00
36.6783 646.00
36.9826 669.00
37.2869 1399.00
37.5911 1673.00
37.8954 2617.00
38.1996 762.00
38.5039 869.00
38.8082 600.00
39.1124 594.00
39.4167 551.00
39.7209 730.00
40.0252 670.00
40.3295 562.00
40.6337 552.00
40.938 548.00
41.2422 522.00
41.5465 554.00
41.8508 682.00
42.155 989.00
42.4593 571.00
42.7635 524.00
43.0678 437.00
43.3721 544.00
43.6763 1555.00
43.9806 648.00
44.2849 549.00
44.5891 886.00
44.8934 535.00
45.1976 547.00
45.5019 952.00
45.8062 1185.00
46.1104 558.00
46.4147 576.00
46.7189 515.00
47.0232 482.00
47.3275 690.00
47.6317 3032.00
47.936 650.00
48.2402 529.00
48.5445 574.00
48.8488 1351.00
49.153 876.00
49.4573 835.00
49.7615 481.00
50.0658 476.00
50.3701 583.00
50.6743 1392.00
50.9786 3592.00
51.2828 743.00
51.5871 752.00
51.8914 754.00
52.1956 434.00
52.4999 456.00
52.8041 485.00
53.1084 424.00
53.4127 514.00
53.7169 521.00
54.0212 616.00
54.3254 2364.00
54.6297 808.00
54.934 1278.00
55.2382 574.00
55.5425 482.00
55.8467 444.00
56.151 504.00
56.4553 495.00
56.7595 434.00
57.0638 482.00
57.368 809.00
57.6723 1196.00
57.9766 543.00
58.2808 580.00
58.5851 1324.00
58.8893 2210.00
59.1936 1617.00
59.4979 574.00
59.8021 511.00
60.1064 743.00
60.4106 815.00
60.7149 647.00
61.0192 457.00
61.3234 619.00
61.6277 644.00
61.932 732.00
62.2362 916.00
62.5405 458.00
62.8447 418.00
63.149 521.00
63.4533 1344.00
63.7575 1041.00
64.0618 661.00
64.366 599.00
64.6703 1004.00
64.9745 1599.00
65.2788 604.00
65.5831 596.00
65.8873 1393.00
66.1916 794.00
66.4959 629.00
66.8001 635.00
67.1044 632.00
67.4086 780.00
67.7129 1097.00
68.0172 975.00
68.3214 538.00
68.6257 483.00
68.9299 846.00
69.2342 684.00
69.5385 429.00
69.8427 576.00
70.147 1146.00
70.4512 549.00
70.7555 406.00
71.0598 467.00
71.364 481.00
71.6683 665.00
71.9725 666.00
72.2768 553.00
72.5811 412.00
72.8853 457.00
73.1896 559.00
73.4938 760.00
73.7981 528.00
74.1024 506.00
74.4066 424.00
74.7109 404.00
75.0151 451.00
75.3194 559.00
75.6237 757.00
75.9279 833.00
76.2322 437.00
76.5364 460.00
76.8407 453.00
77.145 523.00
77.4492 432.00
77.7535 449.00
78.0577 550.00
78.362 742.00
78.6663 487.00
78.9705 429.00
79.2748 449.00
79.579 596.00
79.8833 860.00
80.1876 899.00
80.4918 684.00
80.7961 585.00
81.1003 453.00
81.4046 403.00
81.7089 443.00
82.0131 498.00
82.3174 558.00
82.6217 411.00
82.9259 362.00
83.2302 339.00
83.5344 414.00
83.8387 640.00
84.143 682.00
84.4472 477.00
84.7515 390.00
85.0557 396.00
85.36 469.00
85.6643 434.00
85.9685 538.00
86.2728 681.00
86.577 491.00
86.8813 369.00
87.1856 393.00
87.4898 307.00
87.7941 349.00
88.0983 374.00
88.4026 418.00
88.7069 437.00
89.0111 551.00
89.3154 596.00
89.6196 523.00
89.9239 419.00
90.2282 467.00
90.5324 551.00
90.8367 707.00
91.1409 601.00
91.4452 611.00
91.7495 588.00
92.0537 603.00
92.358 526.00
92.6622 436.00
92.9665 426.00
93.2708 373.00
93.575 387.00
93.8793 468.00
94.1835 475.00
94.4878 421.00
94.7921 462.00
95.0963 427.00
95.4006 435.00
95.7048 650.00
96.0091 759.00
96.3134 573.00
96.6176 409.00
96.9219 374.00
97.2261 407.00
97.5304 491.00
97.8347 552.00
98.1389 558.00
98.4432 504.00
98.7474 414.00
99.0517 414.00
99.356 471.00
99.6602 496.00
99.9645 474.00
100.095 505.00

File: NSC_175.xy
9.903433 2719.00
10.2077 2529.00
10.512 2405.00
10.8162 2357.00
11.1205 2423.00
11.4247 2196.00
11.729 2232.00
12.0333 2077.00
12.3375 2155.00
12.6418 1927.00
12.946 1844.00
13.2503 1873.00
13.5546 1826.00
13.8588 1733.00
14.1631 1774.00
14.4673 2669.00
14.7716 1680.00
15.0759 1646.00
15.3801 1536.00
15.6844 1646.00
15.9886 1531.00
16.2929 1538.00
16.5972 1451.00
16.9014 1443.00
17.2057 1421.00
17.5099 1430.00
17.8142 1322.00
18.1185 1306.00
18.4227 1301.00
18.727 1354.00
19.0312 1282.00
19.3355 1234.00
19.6398 1311.00
19.944 1491.00
20.2483 4544.00
20.5525 2377.00
20.8568 1746.00
21.1611 1185.00
21.4653 1141.00
21.7696 1197.00
22.0738 1071.00
22.3781 1088.00
22.6824 1071.00
22.9866 1026.00
23.2909 1211.00
23.5951 1624.00
23.8994 4998.00
24.2037 3926.00
24.5079 2260.00
24.8122 1051.00
25.1164 1005.00
25.4207 1020.00
25.725 940.00
26.0292 884.00
26.3335 935.00
26.6378 898.00
26.942 869.00
27.2463 834.00
27.5505 931.00
27.8548 1596.00
28.1591 826.00
28.4633 907.00
28.7676 1328.00
29.0718 2838.00
29.3761 879.00
29.6804 734.00
29.9846 735.00
30.2889 732.00
30.5931 737.00
30.8974 777.00
31.2017 807.00
31.5059 1029.00
31.8102 2319.00
32.1144 8562.00
32.4187 1201.00
32.723 875.00
33.0272 668.00
33.3315 633.00
33.6357 692.00
33.94 644.00
34.2443 558.00
34.5485 627.00
34.8528 580.00
35.157 696.00
35.4613 787.00
35.7656 1336.00
36.0698 3084.00
36.3741 1109.00
36.6783 511.00
36.9826 552.00
37.2869 431.00
37.5911 492.00
37.8954 502.00
38.1996 486.00
38.5039 459.00
38.8082 417.00
39.1124 467.00
39.4167 485.00
39.7209 500.00
40.0252 453.00
40.3295 471.00
40.6337 539.00
40.938 649.00
41.2422 469.00
41.5465 694.00
41.8508 446.00
42.155 453.00
42.4593 643.00
42.7635 706.00
43.0678 812.00
43.3721 553.00
43.6763 1256.00
43.9806 586.00
44.2849 514.00
44.5891 480.00
44.8934 431.00
45.1976 409.00
45.5019 470.00
45.8062 629.00
46.1104 1475.00
46.4147 475.00
46.7189 734.00
47.0232 423.00
47.3275 423.00
47.6317 454.00
47.936 655.00
48.2402 692.00
48.5445 795.00
48.8488 2582.00
49.153 967.00
49.4573 658.00
49.7615 693.00
50.0658 585.00
50.3701 338.00
50.6743 349.00
50.9786 360.00
51.2828 351.00
51.5871 376.00
51.8914 402.00
52.1956 444.00
52.4999 769.00
52.8041 1916.00
53.1084 498.00
53.4127 442.00
53.7169 352.00
54.0212 339.00
54.3254 410.00
54.6297 1020.00
54.934 449.00
55.2382 577.00
55.5425 631.00
55.8467 822.00
56.151 1369.00
56.4553 558.00
56.7595 453.00
57.0638 565.00
57.368 546.00
57.6723 611.00
57.9766 338.00
58.2808 302.00
58.5851 337.00
58.8893 317.00
59.1936 287.00
59.4979 418.00
59.8021 434.00
60.1064 419.00
60.4106 456.00
60.7149 384.00
61.0192 442.00
61.3234 956.00
61.6277 550.00
61.932 964.00
62.2362 657.00
62.5405 349.00
62.8447 727.00
63.149 463.00
63.4533 367.00
63.7575 406.00
64.0618 576.00
64.366 992.00
64.6703 596.00
64.9745 355.00
65.2788 474.00
65.5831 371.00
65.8873 350.00
66.1916 305.00
66.4959 248.00
66.8001 311.00
67.1044 310.00
67.4086 452.00
67.7129 397.00
68.0172 435.00
68.3214 541.00
68.6257 346.00
68.9299 412.00
69.2342 611.00
69.5385 576.00
69.8427 475.00
70.147 362.00
70.4512 287.00
70.7555 262.00
71.0598 281.00
71.364 294.00
71.6683 421.00
71.9725 672.00
72.2768 456.00
72.5811 317.00
72.8853 267.00
73.1896 371.00
73.4938 323.00
73.7981 265.00
74.1024 263.00
74.4066 212.00
74.7109 234.00
75.0151 239.00
75.3194 308.00
75.6237 444.00
75.9279 686.00
76.2322 395.00
76.5364 355.00
76.8407 460.00
77.145 308.00
77.4492 293.00
77.7535 319.00
78.0577 318.00
78.362 329.00
78.6663 237.00
78.9705 287.00
79.2748 333.00
79.579 267.00
79.8833 243.00
80.1876 272.00
80.4918 225.00
80.7961 234.00
81.1003 247.00
81.4046 228.00
81.7089 271.00
82.0131 229.00
82.3174 210.00
82.6217 315.00
82.9259 302.00
83.2302 355.00
83.5344 246.00
83.8387 228.00
84.143 257.00
84.4472 368.00
84.7515 401.00
85.0557 288.00
85.36 298.00
85.6643 240.00
85.9685 303.00
86.2728 335.00
86.577 298.00
86.8813 301.00
87.1856 277.00
87.4898 238.00
87.7941 245.00
88.0983 215.00
88.4026 203.00
88.7069 232.00
89.0111 303.00
89.3154 283.00
89.6196 322.00
89.9239 369.00
90.2282 370.00
90.5324 322.00
90.8367 353.00
91.1409 481.00
91.4452 382.00
91.7495 319.00
92.0537 247.00
92.358 248.00
92.6622 248.00
92.9665 208.00
93.2708 280.00
93.575 306.00
93.8793 307.00
94.1835 280.00
94.4878 217.00
94.7921 229.00
95.0963 284.00
95.4006 295.00
95.7048 280.00
96.0091 289.00
96.3134 283.00
96.6176 282.00
96.9219 285.00
97.2261 404.00
97.5304 409.00
97.8347 313.00
98.1389 322.00
98.4432 318.00
98.7474 250.00
99.0517 256.00
99.356 216.00
99.6602 235.00
99.9645 242.00
100.095 204.00

File: NSC_176.xy
9.903433 2613.00
10.2077 2542.00
10.512 2405.00
10.8162 2276.00
11.1205 2279.00
11.4247 2086.00
11.729 2171.00
12.0333 1954.00
12.3375 1953.00
12.6418 1846.00
12.946 1829.00
13.2503 1842.00
13.5546 1736.00
13.8588 1879.00
14.1631 2369.00
14.4673 2811.00
14.7716 1707.00
15.0759 1762.00
15.3801 2099.00
15.6844 1638.00
15.9886 1551.00
16.2929 1592.00
16.5972 1510.00
16.9014 1444.00
17.2057 1561.00
17.5099 1479.00
17.8142 1485.00
18.1185 1439.00
18.4227 1386.00
18.727 1370.00
19.0312 1360.00
19.3355 1616.00
19.6398 3684.00
19.944 8736.00
20.2483 2280.00
20.5525 12909.00
20.8568 3355.00
21.1611 1816.00
21.4653 1348.00
21.7696 1470.00
22.0738 3383.00
22.3781 1370.00
22.6824 1276.00
22.9866 1219.00
23.2909 1257.00
23.5951 2314.00
23.8994 4228.00
24.2037 1223.00
24.5079 1188.00
24.8122 1237.00
25.1164 1460.00
25.4207 3759.00
25.725 1218.00
26.0292 1638.00
26.3335 2122.00
26.6378 1093.00
26.942 1083.00
27.2463 943.00
27.5505 1074.00
27.8548 1109.00
28.1591 1129.00
28.4633 3114.00
28.7676 4244.00
29.0718 1076.00
29.3761 980.00
29.6804 943.00
29.9846 915.00
30.2889 1136.00
30.5931 2275.00
30.8974 1008.00
31.2017 1323.00
31.5059 8526.00
31.8102 2771.00
32.1144 1083.00
32.4187 1026.00
32.723 978.00
33.0272 933.00
33.3315 1946.00
33.6357 2036.00
33.94 1449.00
34.2443 1361.00
34.5485 872.00
34.8528 944.00
35.157 1619.00
35.4613 4890.00
35.7656 4906.00
36.0698 2235.00
36.3741 1049.00
36.6783 835.00
36.9826 808.00
37.2869 826.00
37.5911 892.00
37.8954 1188.00
38.1996 1120.00
38.5039 1528.00
38.8082 990.00
39.1124 787.00
39.4167 783.00
39.7209 1070.00
40.0252 1635.00
40.3295 881.00
40.6337 945.00
40.938 817.00
41.2422 899.00
41.5465 2158.00
41.8508 2216.00
42.155 1157.00
42.4593 996.00
42.7635 820.00
43.0678 975.00
43.3721 2510.00
43.6763 991.00
43.9806 1098.00
44.2849 930.00
44.5891 800.00
44.8934 1001.00
45.1976 2262.00
45.5019 1386.00
45.8062 797.00
46.1104 1253.00
46.4147 2886.00
46.7189 1415.00
47.0232 1944.00
47.3275 882.00
47.6317 845.00
47.936 1024.00
48.2402 3103.00
48.5445 2346.00
48.8488 1131.00
49.153 1045.00
49.4573 874.00
49.7615 1152.00
50.0658 843.00
50.3701 742.00
50.6743 802.00
50.9786 1062.00
51.2828 1226.00
51.5871 3129.00
51.8914 2474.00
52.1956 1052.00
52.4999 775.00
52.8041 838.00
53.1084 799.00
53.4127 779.00
53.7169 792.00
54.0212 775.00
54.3254 875.00
54.6297 1670.00
54.934 1472.00
55.2382 1036.00
55.5425 2479.00
55.8467 3603.00
56.151 1754.00
56.4553 844.00
56.7595 771.00
57.0638 761.00
57.368 778.00
57.6723 779.00
57.9766 670.00
58.2808 1090.00
58.5851 1659.00
58.8893 1377.00
59.1936 991.00
59.4979 746.00
59.8021 1013.00
60.1064 1690.00
60.4106 2244.00
60.7149 1074.00
61.0192 869.00
61.3234 1829.00
61.6277 1904.00
61.932 1105.00
62.2362 935.00
62.5405 1291.00
62.8447 1355.00
63.149 1042.00
63.4533 933.00
63.7575 1226.00
64.0618 1663.00
64.366 1766.00
64.6703 1050.00
64.9745 800.00
65.2788 838.00
65.5831 882.00
65.8873 1034.00
66.1916 1484.00
66.4959 1898.00
66.8001 1301.00
67.1044 913.00
67.4086 938.00
67.7129 1318.00
68.0172 1308.00
68.3214 1344.00
68.6257 921.00
68.9299 955.00
69.2342 1163.00
69.5385 1058.00
69.8427 855.00
70.147 763.00
70.4512 808.00
70.7555 940.00
71.0598 889.00
71.364 1250.00
71.6683 1181.00
71.9725 813.00
72.2768 757.00
72.5811 701.00
72.8853 750.00
73.1896 706.00
73.4938 784.00
73.7981 930.00
74.1024 1244.00
74.4066 1217.00
74.7109 890.00
75.0151 902.00
75.3194 1092.00
75.6237 1227.00
75.9279 1034.00
76.2322 787.00
76.5364 745.00
76.8407 680.00
77.145 721.00
77.4492 867.00
77.7535 1002.00
78.0577 922.00
78.362 727.00
78.6663 891.00
78.9705 1239.00
79.2748 1600.00
79.579 1329.00
79.8833 933.00
80.1876 860.00
80.4918 884.00
80.7961 800.00
81.1003 877.00
81.4046 1195.00
81.7089 1041.00
82.0131 791.00
82.3174 807.00
82.6217 820.00
82.9259 819.00
83.2302 792.00
83.5344 749.00
83.8387 1040.00
84.143 1078.00
84.4472 894.00
84.7515 785.00
85.0557 842.00
85.36 938.00
85.6643 877.00
85.9685 969.00
86.2728 1040.00
86.577 1016.00
86.8813 946.00
87.1856 874.00
87.4898 824.00
87.7941 802.00
88.0983 755.00
88.4026 856.00
88.7069 872.00
89.0111 754.00
89.3154 761.00
89.6196 917.00
89.9239 1216.00
90.2282 1192.00
90.5324 936.00
90.8367 872.00
91.1409 813.00
91.4452 787.00
91.7495 845.00
92.0537 1043.00
92.358 1119.00
92.6622 991.00
92.9665 949.00
93.2708 981.00
93.575 824.00
93.8793 843.00
94.1835 918.00
94.4878 953.00
94.7921 884.00
95.0963 815.00
95.4006 863.00
95.7048 1073.00
96.0091 922.00
96.3134 885.00
96.6176 921.00
96.9219 1018.00
97.2261 991.00
97.5304 904.00
97.8347 801.00
98.1389 756.00
98.4432 784.00
98.7474 752.00
99.0517 797.00
99.356 838.00
99.6602 884.00
99.9645 915.00
100.095 911.00