Folder: alab-pipeline/data/xrd_creation/results (part 33)

File: Na_309.xy
9.903433 2663.00
10.2077 2618.00
10.512 2438.00
10.8162 2341.00
11.1205 2271.00
11.4247 2203.00
11.729 2278.00
12.0333 2382.00
12.3375 1968.00
12.6418 1856.00
12.946 1772.00
13.2503 1727.00
13.5546 1676.00
13.8588 1606.00
14.1631 1525.00
14.4673 1564.00
14.7716 1507.00
15.0759 1486.00
15.3801 1482.00
15.6844 1422.00
15.9886 1432.00
16.2929 1327.00
16.5972 1339.00
16.9014 1284.00
17.2057 1289.00
17.5099 1279.00
17.8142 1196.00
18.1185 1207.00
18.4227 1183.00
18.727 1192.00
19.0312 1129.00
19.3355 1172.00
19.6398 1216.00
19.944 1193.00
20.2483 1032.00
20.5525 1132.00
20.8568 1169.00
21.1611 973.00
21.4653 985.00
21.7696 958.00
22.0738 954.00
22.3781 937.00
22.6824 1049.00
22.9866 1218.00
23.2909 1076.00
23.5951 975.00
23.8994 1008.00
24.2037 1036.00
24.5079 958.00
24.8122 853.00
25.1164 831.00
25.4207 838.00
25.725 781.00
26.0292 809.00
26.3335 851.00
26.6378 734.00
26.942 818.00
27.2463 708.00
27.5505 822.00
27.8548 818.00
28.1591 1206.00
28.4633 1005.00
28.7676 733.00
29.0718 717.00
29.3761 728.00
29.6804 685.00
29.9846 703.00
30.2889 795.00
30.5931 804.00
30.8974 703.00
31.2017 903.00
31.5059 1272.00
31.8102 918.00
32.1144 608.00
32.4187 626.00
32.723 582.00
33.0272 591.00
33.3315 602.00
33.6357 649.00
33.94 1040.00
34.2443 1045.00
34.5485 624.00
34.8528 542.00
35.157 570.00
35.4613 595.00
35.7656 524.00
36.0698 551.00
36.3741 539.00
36.6783 514.00
36.9826 518.00
37.2869 502.00
37.5911 468.00
37.8954 476.00
38.1996 491.00
38.5039 460.00
38.8082 445.00
39.1124 475.00
39.4167 455.00
39.7209 395.00
40.0252 419.00
40.3295 448.00
40.6337 413.00
40.938 429.00
41.2422 417.00
41.5465 440.00
41.8508 422.00
42.155 431.00
42.4593 417.00
42.7635 370.00
43.0678 390.00
43.3721 401.00
43.6763 386.00
43.9806 390.00
44.2849 392.00
44.5891 391.00
44.8934 385.00
45.1976 368.00
45.5019 361.00
45.8062 362.00
46.1104 392.00
46.4147 391.00
46.7189 404.00
47.0232 413.00
47.3275 362.00
47.6317 355.00
47.936 334.00
48.2402 330.00
48.5445 364.00
48.8488 382.00
49.153 394.00
49.4573 409.00
49.7615 330.00
50.0658 384.00
50.3701 377.00
50.6743 345.00
50.9786 370.00
51.2828 322.00
51.5871 356.00
51.8914 352.00
52.1956 268.00
52.4999 325.00
52.8041 269.00
53.1084 337.00
53.4127 301.00
53.7169 279.00
54.0212 346.00
54.3254 308.00
54.6297 305.00
54.934 282.00
55.2382 304.00
55.5425 305.00
55.8467 317.00
56.151 294.00
56.4553 297.00
56.7595 276.00
57.0638 293.00
57.368 310.00
57.6723 285.00
57.9766 299.00
58.2808 306.00
58.5851 280.00
58.8893 294.00
59.1936 279.00
59.4979 272.00
59.8021 290.00
60.1064 292.00
60.4106 269.00
60.7149 313.00
61.0192 308.00
61.3234 286.00
61.6277 275.00
61.932 319.00
62.2362 259.00
62.5405 256.00
62.8447 301.00
63.149 290.00
63.4533 257.00
63.7575 221.00
64.0618 259.00
64.366 251.00
64.6703 234.00
64.9745 260.00
65.2788 238.00
65.5831 223.00
65.8873 288.00
66.1916 228.00
66.4959 203.00
66.8001 245.00
67.1044 236.00
67.4086 236.00
67.7129 237.00
68.0172 242.00
68.3214 224.00
68.6257 248.00
68.9299 228.00
69.2342 214.00
69.5385 222.00
69.8427 212.00
70.147 242.00
70.4512 269.00
70.7555 231.00
71.0598 220.00
71.364 234.00
71.6683 250.00
71.9725 230.00
72.2768 211.00
72.5811 259.00
72.8853 218.00
73.1896 230.00
73.4938 221.00
73.7981 213.00
74.1024 209.00
74.4066 236.00
74.7109 246.00
75.0151 263.00
75.3194 211.00
75.6237 263.00
75.9279 224.00
76.2322 221.00
76.5364 240.00
76.8407 213.00
77.145 247.00
77.4492 244.00
77.7535 233.00
78.0577 258.00
78.362 249.00
78.6663 274.00
78.9705 227.00
79.2748 262.00
79.579 239.00
79.8833 263.00
80.1876 265.00
80.4918 267.00
80.7961 275.00
81.1003 260.00
81.4046 245.00
81.7089 248.00
82.0131 290.00
82.3174 259.00
82.6217 265.00
82.9259 244.00
83.2302 250.00
83.5344 261.00
83.8387 282.00
84.143 225.00
84.4472 260.00
84.7515 230.00
85.0557 222.00
85.36 211.00
85.6643 225.00
85.9685 243.00
86.2728 234.00
86.577 205.00
86.8813 224.00
87.1856 221.00
87.4898 225.00
87.7941 231.00
88.0983 225.00
88.4026 267.00
88.7069 257.00
89.0111 197.00
89.3154 223.00
89.6196 226.00
89.9239 200.00
90.2282 232.00
90.5324 201.00
90.8367 242.00
91.1409 205.00
91.4452 215.00
91.7495 221.00
92.0537 226.00
92.358 232.00
92.6622 220.00
92.9665 239.00
93.2708 204.00
93.575 202.00
93.8793 197.00
94.1835 214.00
94.4878 205.00
94.7921 222.00
95.0963 196.00
95.4006 201.00
95.7048 228.00
96.0091 240.00
96.3134 208.00
96.6176 192.00
96.9219 190.00
97.2261 200.00
97.5304 194.00
97.8347 211.00
98.1389 227.00
98.4432 207.00
98.7474 218.00
99.0517 210.00
99.356 199.00
99.6602 210.00
99.9645 219.00
100.095 196.00

File: Na_310.xy
9.903433 3005.00
10.2077 2909.00
10.512 2908.00
10.8162 2827.00
11.1205 2726.00
11.4247 2789.00
11.729 2785.00
12.0333 2691.00
12.3375 2593.00
12.6418 2564.00
12.946 2693.00
13.2503 2676.00
13.5546 2516.00
13.8588 2614.00
14.1631 2520.00
14.4673 2491.00
14.7716 2571.00
15.0759 2505.00
15.3801 2602.00
15.6844 2476.00
15.9886 2530.00
16.2929 2590.00
16.5972 2567.00
16.9014 2683.00
17.2057 2690.00
17.5099 2637.00
17.8142 2667.00
18.1185 2693.00
18.4227 2751.00
18.727 2742.00
19.0312 2835.00
19.3355 2798.00
19.6398 2860.00
19.944 2914.00
20.2483 3048.00
20.5525 3157.00
20.8568 3100.00
21.1611 3036.00
21.4653 3181.00
21.7696 3147.00
22.0738 3072.00
22.3781 3019.00
22.6824 2980.00
22.9866 2906.00
23.2909 2917.00
23.5951 2764.00
23.8994 2882.00
24.2037 2827.00
24.5079 2836.00
24.8122 2790.00
25.1164 2857.00
25.4207 2801.00
25.725 2860.00
26.0292 2850.00
26.3335 2983.00
26.6378 2839.00
26.942 2914.00
27.2463 2952.00
27.5505 2965.00
27.8548 3029.00
28.1591 2928.00
28.4633 3000.00
28.7676 2987.00
29.0718 2984.00
29.3761 3020.00
29.6804 3056.00
29.9846 3091.00
30.2889 3075.00
30.5931 2989.00
30.8974 2956.00
31.2017 2928.00
31.5059 3019.00
31.8102 2814.00
32.1144 2770.00
32.4187 2598.00
32.723 2652.00
33.0272 2584.00
33.3315 2519.00
33.6357 2494.00
33.94 2504.00
34.2443 2337.00
34.5485 2338.00
34.8528 2206.00
35.157 2149.00
35.4613 2159.00
35.7656 2122.00
36.0698 2008.00
36.3741 2014.00
36.6783 1990.00
36.9826 1975.00
37.2869 2029.00
37.5911 1930.00
37.8954 1902.00
38.1996 1860.00
38.5039 1832.00
38.8082 1827.00
39.1124 1880.00
39.4167 1806.00
39.7209 1797.00
40.0252 1755.00
40.3295 1803.00
40.6337 1806.00
40.938 1736.00
41.2422 1755.00
41.5465 1749.00
41.8508 1831.00
42.155 1733.00
42.4593 1786.00
42.7635 1707.00
43.0678 1769.00
43.3721 1734.00
43.6763 1725.00
43.9806 1771.00
44.2849 1769.00
44.5891 1823.00
44.8934 1745.00
45.1976 1788.00
45.5019 1842.00
45.8062 1708.00
46.1104 1816.00
46.4147 1756.00
46.7189 1756.00
47.0232 1744.00
47.3275 1669.00
47.6317 1786.00
47.936 1804.00
48.2402 1764.00
48.5445 1697.00
48.8488 1820.00
49.153 1709.00
49.4573 1748.00
49.7615 1667.00
50.0658 1717.00
50.3701 1738.00
50.6743 1821.00
50.9786 1802.00
51.2828 1773.00
51.5871 1786.00
51.8914 1749.00
52.1956 1706.00
52.4999 1722.00
52.8041 1780.00
53.1084 1745.00
53.4127 1656.00
53.7169 1691.00
54.0212 1701.00
54.3254 1699.00
54.6297 1612.00
54.934 1664.00
55.2382 1705.00
55.5425 1679.00
55.8467 1634.00
56.151 1667.00
56.4553 1697.00
56.7595 1615.00
57.0638 1616.00
57.368 1605.00
57.6723 1507.00
57.9766 1626.00
58.2808 1600.00
58.5851 1590.00
58.8893 1585.00
59.1936 1582.00
59.4979 1667.00
59.8021 1616.00
60.1064 1668.00
60.4106 1591.00
60.7149 1573.00
61.0192 1571.00
61.3234 1535.00
61.6277 1482.00
61.932 1581.00
62.2362 1544.00
62.5405 1512.00
62.8447 1560.00
63.149 1509.00
63.4533 1553.00
63.7575 1540.00
64.0618 1519.00
64.366 1566.00
64.6703 1472.00
64.9745 1501.00
65.2788 1514.00
65.5831 1440.00
65.8873 1536.00
66.1916 1447.00
66.4959 1425.00
66.8001 1524.00
67.1044 1379.00
67.4086 1338.00
67.7129 1382.00
68.0172 1489.00
68.3214 1394.00
68.6257 1424.00
68.9299 1460.00
69.2342 1348.00
69.5385 1310.00
69.8427 1282.00
70.147 1317.00
70.4512 1345.00
70.7555 1372.00
71.0598 1326.00
71.364 1381.00
71.6683 1338.00
71.9725 1270.00
72.2768 1322.00
72.5811 1354.00
72.8853 1319.00
73.1896 1294.00
73.4938 1275.00
73.7981 1237.00
74.1024 1318.00
74.4066 1306.00
74.7109 1300.00
75.0151 1261.00
75.3194 1273.00
75.6237 1238.00
75.9279 1323.00
76.2322 1269.00
76.5364 1289.00
76.8407 1264.00
77.145 1309.00
77.4492 1262.00
77.7535 1199.00
78.0577 1264.00
78.362 1274.00
78.6663 1256.00
78.9705 1229.00
79.2748 1218.00
79.579 1225.00
79.8833 1290.00
80.1876 1184.00
80.4918 1192.00
80.7961 1259.00
81.1003 1216.00
81.4046 1163.00
81.7089 1280.00
82.0131 1189.00
82.3174 1194.00
82.6217 1148.00
82.9259 1130.00
83.2302 1153.00
83.5344 1150.00
83.8387 1180.00
84.143 1193.00
84.4472 1159.00
84.7515 1241.00
85.0557 1156.00
85.36 1176.00
85.6643 1166.00
85.9685 1187.00
86.2728 1174.00
86.577 1148.00
86.8813 1132.00
87.1856 1151.00
87.4898 1147.00
87.7941 1141.00
88.0983 1169.00
88.4026 1090.00
88.7069 1112.00
89.0111 1120.00
89.3154 1153.00
89.6196 1202.00
89.9239 1097.00
90.2282 1088.00
90.5324 1145.00
90.8367 1149.00
91.1409 1184.00
91.4452 1027.00
91.7495 1061.00
92.0537 1079.00
92.358 1163.00
92.6622 1089.00
92.9665 1082.00
93.2708 1141.00
93.575 1092.00
93.8793 1144.00
94.1835 1134.00
94.4878 1065.00
94.7921 1128.00
95.0963 1145.00
95.4006 1151.00
95.7048 1099.00
96.0091 1088.00
96.3134 1161.00
96.6176 1066.00
96.9219 1203.00
97.2261 1075.00
97.5304 1059.00
97.8347 1106.00
98.1389 1132.00
98.4432 1112.00
98.7474 1048.00
99.0517 1086.00
99.356 1054.00
99.6602 1115.00
99.9645 1098.00
100.095 1083.00

File: Na_-1.xy
9.903433 2794.00
10.2077 2689.00
10.512 2613.00
10.8162 2492.00
11.1205 2340.00
11.4247 2350.00
11.729 2496.00
12.0333 2113.00
12.3375 2043.00
12.6418 2113.00
12.946 1945.00
13.2503 1944.00
13.5546 1840.00
13.8588 1912.00
14.1631 1711.00
14.4673 1753.00
14.7716 1766.00
15.0759 1671.00
15.3801 1611.00
15.6844 1578.00
15.9886 1567.00
16.2929 1537.00
16.5972 1521.00
16.9014 1418.00
17.2057 1567.00
17.5099 1626.00
17.8142 2534.00
18.1185 1426.00
18.4227 1325.00
18.727 1478.00
19.0312 1507.00
19.3355 1485.00
19.6398 1351.00
19.944 1604.00
20.2483 3395.00
20.5525 2099.00
20.8568 1246.00
21.1611 1361.00
21.4653 1434.00
21.7696 1618.00
22.0738 1093.00
22.3781 1351.00
22.6824 3369.00
22.9866 1537.00
23.2909 3534.00
23.5951 1908.00
23.8994 1207.00
24.2037 1101.00
24.5079 1191.00
24.8122 1141.00
25.1164 1109.00
25.4207 2726.00
25.725 1969.00
26.0292 1170.00
26.3335 1135.00
26.6378 1602.00
26.942 1681.00
27.2463 857.00
27.5505 927.00
27.8548 938.00
28.1591 1199.00
28.4633 910.00
28.7676 1010.00
29.0718 1486.00
29.3761 1388.00
29.6804 6471.00
29.9846 1107.00
30.2889 954.00
30.5931 756.00
30.8974 1062.00
31.2017 1456.00
31.5059 1436.00
31.8102 3792.00
32.1144 2013.00
32.4187 3297.00
32.723 2779.00
33.0272 3291.00
33.3315 4055.00
33.6357 1844.00
33.94 1400.00
34.2443 2067.00
34.5485 1438.00
34.8528 1174.00
35.157 1048.00
35.4613 1055.00
35.7656 1219.00
36.0698 1016.00
36.3741 1316.00
36.6783 778.00
36.9826 1009.00
37.2869 810.00
37.5911 1092.00
37.8954 670.00
38.1996 706.00
38.5039 752.00
38.8082 1072.00
39.1124 809.00
39.4167 941.00
39.7209 1351.00
40.0252 793.00
40.3295 895.00
40.6337 603.00
40.938 929.00
41.2422 1185.00
41.5465 737.00
41.8508 1158.00
42.155 757.00
42.4593 846.00
42.7635 683.00
43.0678 697.00
43.3721 1331.00
43.6763 1217.00
43.9806 1417.00
44.2849 720.00
44.5891 605.00
44.8934 659.00
45.1976 699.00
45.5019 751.00
45.8062 848.00
46.1104 995.00
46.4147 686.00
46.7189 697.00
47.0232 1198.00
47.3275 1741.00
47.6317 2129.00
47.936 1233.00
48.2402 748.00
48.5445 749.00
48.8488 1045.00
49.153 592.00
49.4573 553.00
49.7615 693.00
50.0658 647.00
50.3701 532.00
50.6743 579.00
50.9786 642.00
51.2828 553.00
51.5871 627.00
51.8914 819.00
52.1956 744.00
52.4999 927.00
52.8041 1119.00
53.1084 708.00
53.4127 889.00
53.7169 724.00
54.0212 629.00
54.3254 581.00
54.6297 842.00
54.934 800.00
55.2382 535.00
55.5425 502.00
55.8467 510.00
56.151 607.00
56.4553 702.00
56.7595 806.00
57.0638 848.00
57.368 906.00
57.6723 1065.00
57.9766 726.00
58.2808 521.00
58.5851 532.00
58.8893 746.00
59.1936 746.00
59.4979 775.00
59.8021 867.00
60.1064 735.00
60.4106 611.00
60.7149 822.00
61.0192 799.00
61.3234 560.00
61.6277 513.00
61.932 469.00
62.2362 483.00
62.5405 502.00
62.8447 565.00
63.149 690.00
63.4533 671.00
63.7575 593.00
64.0618 528.00
64.366 570.00
64.6703 587.00
64.9745 710.00
65.2788 535.00
65.5831 693.00
65.8873 676.00
66.1916 602.00
66.4959 625.00
66.8001 482.00
67.1044 498.00
67.4086 427.00
67.7129 594.00
68.0172 490.00
68.3214 401.00
68.6257 308.00
68.9299 348.00
69.2342 575.00
69.5385 575.00
69.8427 521.00
70.147 494.00
70.4512 622.00
70.7555 536.00
71.0598 404.00
71.364 399.00
71.6683 440.00
71.9725 624.00
72.2768 440.00
72.5811 448.00
72.8853 564.00
73.1896 514.00
73.4938 410.00
73.7981 394.00
74.1024 423.00
74.4066 398.00
74.7109 394.00
75.0151 392.00
75.3194 415.00
75.6237 477.00
75.9279 398.00
76.2322 492.00
76.5364 467.00
76.8407 396.00
77.145 501.00
77.4492 451.00
77.7535 399.00
78.0577 445.00
78.362 456.00
78.6663 346.00
78.9705 398.00
79.2748 450.00
79.579 452.00
79.8833 405.00
80.1876 394.00
80.4918 436.00
80.7961 465.00
81.1003 433.00
81.4046 519.00
81.7089 523.00
82.0131 395.00
82.3174 344.00
82.6217 375.00
82.9259 310.00
83.2302 370.00
83.5344 408.00
83.8387 429.00
84.143 428.00
84.4472 395.00
84.7515 403.00
85.0557 458.00
85.36 413.00
85.6643 365.00
85.9685 403.00
86.2728 455.00
86.577 400.00
86.8813 427.00
87.1856 384.00
87.4898 399.00
87.7941 404.00
88.0983 393.00
88.4026 401.00
88.7069 391.00
89.0111 395.00
89.3154 312.00
89.6196 308.00
89.9239 320.00
90.2282 349.00
90.5324 376.00
90.8367 341.00
91.1409 334.00
91.4452 355.00
91.7495 352.00
92.0537 322.00
92.358 352.00
92.6622 372.00
92.9665 388.00
93.2708 356.00
93.575 370.00
93.8793 374.00
94.1835 396.00
94.4878 355.00
94.7921 407.00
95.0963 530.00
95.4006 462.00
95.7048 465.00
96.0091 403.00
96.3134 394.00
96.6176 333.00
96.9219 335.00
97.2261 332.00
97.5304 298.00
97.8347 326.00
98.1389 317.00
98.4432 358.00
98.7474 361.00
99.0517 400.00
99.356 365.00
99.6602 376.00
99.9645 340.00
100.095 373.00

File: Na_-2.xy
9.903433 2745.00
10.2077 2662.00
10.512 2583.00
10.8162 2510.00
11.1205 2482.00
11.4247 2385.00
11.729 2530.00
12.0333 2143.00
12.3375 2051.00
12.6418 2032.00
12.946 1966.00
13.2503 1955.00
13.5546 1892.00
13.8588 1813.00
14.1631 1737.00
14.4673 1800.00
14.7716 1706.00
15.0759 1675.00
15.3801 1629.00
15.6844 1596.00
15.9886 1551.00
16.2929 1586.00
16.5972 1615.00
16.9014 1515.00
17.2057 1560.00
17.5099 1755.00
17.8142 2910.00
18.1185 1411.00
18.4227 1508.00
18.727 1527.00
19.0312 1459.00
19.3355 1551.00
19.6398 1365.00
19.944 1491.00
20.2483 3595.00
20.5525 2151.00
20.8568 1367.00
21.1611 1558.00
21.4653 1640.00
21.7696 1749.00
22.0738 1308.00
22.3781 1464.00
22.6824 3746.00
22.9866 1587.00
23.2909 3568.00
23.5951 2291.00
23.8994 1189.00
24.2037 1084.00
24.5079 1098.00
24.8122 1027.00
25.1164 1043.00
25.4207 2981.00
25.725 2091.00
26.0292 1210.00
26.3335 1157.00
26.6378 1451.00
26.942 1815.00
27.2463 951.00
27.5505 1032.00
27.8548 891.00
28.1591 1337.00
28.4633 974.00
28.7676 973.00
29.0718 1565.00
29.3761 1398.00
29.6804 5732.00
29.9846 1239.00
30.2889 1095.00
30.5931 932.00
30.8974 1163.00
31.2017 1826.00
31.5059 1468.00
31.8102 3901.00
32.1144 1803.00
32.4187 3462.00
32.723 3095.00
33.0272 3283.00
33.3315 4296.00
33.6357 1776.00
33.94 1513.00
34.2443 2135.00
34.5485 1561.00
34.8528 1096.00
35.157 1048.00
35.4613 1034.00
35.7656 1202.00
36.0698 973.00
36.3741 1273.00
36.6783 740.00
36.9826 843.00
37.2869 828.00
37.5911 1214.00
37.8954 631.00
38.1996 697.00
38.5039 805.00
38.8082 1083.00
39.1124 842.00
39.4167 925.00
39.7209 1365.00
40.0252 714.00
40.3295 993.00
40.6337 631.00
40.938 934.00
41.2422 1196.00
41.5465 751.00
41.8508 1173.00
42.155 709.00
42.4593 839.00
42.7635 647.00
43.0678 714.00
43.3721 1255.00
43.6763 1294.00
43.9806 1473.00
44.2849 740.00
44.5891 602.00
44.8934 629.00
45.1976 855.00
45.5019 822.00
45.8062 945.00
46.1104 1104.00
46.4147 667.00
46.7189 676.00
47.0232 1255.00
47.3275 1867.00
47.6317 1973.00
47.936 1354.00
48.2402 761.00
48.5445 694.00
48.8488 975.00
49.153 588.00
49.4573 545.00
49.7615 687.00
50.0658 655.00
50.3701 523.00
50.6743 531.00
50.9786 676.00
51.2828 578.00
51.5871 575.00
51.8914 881.00
52.1956 795.00
52.4999 928.00
52.8041 1209.00
53.1084 745.00
53.4127 872.00
53.7169 731.00
54.0212 681.00
54.3254 611.00
54.6297 850.00
54.934 793.00
55.2382 571.00
55.5425 490.00
55.8467 485.00
56.151 659.00
56.4553 691.00
56.7595 758.00
57.0638 802.00
57.368 971.00
57.6723 1085.00
57.9766 692.00
58.2808 518.00
58.5851 522.00
58.8893 702.00
59.1936 707.00
59.4979 763.00
59.8021 877.00
60.1064 744.00
60.4106 550.00
60.7149 795.00
61.0192 731.00
61.3234 557.00
61.6277 532.00
61.932 472.00
62.2362 489.00
62.5405 506.00
62.8447 533.00
63.149 682.00
63.4533 614.00
63.7575 587.00
64.0618 507.00
64.366 594.00
64.6703 546.00
64.9745 662.00
65.2788 535.00
65.5831 666.00
65.8873 713.00
66.1916 620.00
66.4959 639.00
66.8001 574.00
67.1044 442.00
67.4086 455.00
67.7129 566.00
68.0172 538.00
68.3214 367.00
68.6257 348.00
68.9299 366.00
69.2342 621.00
69.5385 656.00
69.8427 511.00
70.147 461.00
70.4512 604.00
70.7555 534.00
71.0598 431.00
71.364 411.00
71.6683 452.00
71.9725 658.00
72.2768 498.00
72.5811 461.00
72.8853 564.00
73.1896 518.00
73.4938 431.00
73.7981 383.00
74.1024 398.00
74.4066 391.00
74.7109 405.00
75.0151 401.00
75.3194 445.00
75.6237 435.00
75.9279 421.00
76.2322 463.00
76.5364 473.00
76.8407 404.00
77.145 453.00
77.4492 415.00
77.7535 392.00
78.0577 480.00
78.362 427.00
78.6663 389.00
78.9705 353.00
79.2748 432.00
79.579 462.00
79.8833 435.00
80.1876 431.00
80.4918 502.00
80.7961 416.00
81.1003 460.00
81.4046 518.00
81.7089 493.00
82.0131 401.00
82.3174 379.00
82.6217 373.00
82.9259 319.00
83.2302 367.00
83.5344 422.00
83.8387 451.00
84.143 464.00
84.4472 434.00
84.7515 386.00
85.0557 427.00
85.36 390.00
85.6643 358.00
85.9685 388.00
86.2728 395.00
86.577 410.00
86.8813 397.00
87.1856 392.00
87.4898 396.00
87.7941 391.00
88.0983 360.00
88.4026 460.00
88.7069 460.00
89.0111 437.00
89.3154 393.00
89.6196 305.00
89.9239 368.00
90.2282 363.00
90.5324 365.00
90.8367 382.00
91.1409 350.00
91.4452 311.00
91.7495 361.00
92.0537 367.00
92.358 364.00
92.6622 370.00
92.9665 395.00
93.2708 381.00
93.575 413.00
93.8793 389.00
94.1835 358.00
94.4878 318.00
94.7921 430.00
95.0963 470.00
95.4006 460.00
95.7048 449.00
96.0091 433.00
96.3134 412.00
96.6176 361.00
96.9219 341.00
97.2261 337.00
97.5304 322.00
97.8347 326.00
98.1389 337.00
98.4432 354.00
98.7474 344.00
99.0517 362.00
99.356 405.00
99.6602 347.00
99.9645 348.00
100.095 383.00

File: Na_-3.xy
9.903433 2804.00
10.2077 2683.00
10.512 2659.00
10.8162 2606.00
11.1205 2411.00
11.4247 2330.00
11.729 2605.00
12.0333 2149.00
12.3375 2069.00
12.6418 2193.00
12.946 1912.00
13.2503 2057.00
13.5546 1945.00
13.8588 1841.00
14.1631 1799.00
14.4673 1890.00
14.7716 1759.00
15.0759 1704.00
15.3801 1589.00
15.6844 1623.00
15.9886 1620.00
16.2929 1628.00
16.5972 1674.00
16.9014 1559.00
17.2057 1604.00
17.5099 1708.00
17.8142 2682.00
18.1185 1449.00
18.4227 1411.00
18.727 1724.00
19.0312 1592.00
19.3355 1498.00
19.6398 1435.00
19.944 1522.00
20.2483 3813.00
20.5525 2303.00
20.8568 1405.00
21.1611 1745.00
21.4653 1465.00
21.7696 1853.00
22.0738 1300.00
22.3781 1392.00
22.6824 3535.00
22.9866 1485.00
23.2909 3709.00
23.5951 2154.00
23.8994 1304.00
24.2037 1152.00
24.5079 1175.00
24.8122 1150.00
25.1164 1084.00
25.4207 2770.00
25.725 1920.00
26.0292 1202.00
26.3335 1129.00
26.6378 1642.00
26.942 1703.00
27.2463 951.00
27.5505 1003.00
27.8548 969.00
28.1591 1309.00
28.4633 1022.00
28.7676 956.00
29.0718 1700.00
29.3761 1592.00
29.6804 7690.00
29.9846 1212.00
30.2889 1133.00
30.5931 903.00
30.8974 1321.00
31.2017 2120.00
31.5059 1511.00
31.8102 3490.00
32.1144 1927.00
32.4187 3131.00
32.723 2970.00
33.0272 3044.00
33.3315 4156.00
33.6357 1797.00
33.94 1474.00
34.2443 2021.00
34.5485 1511.00
34.8528 1164.00
35.157 1158.00
35.4613 1246.00
35.7656 1260.00
36.0698 1028.00
36.3741 1418.00
36.6783 784.00
36.9826 985.00
37.2869 890.00
37.5911 1200.00
37.8954 672.00
38.1996 711.00
38.5039 841.00
38.8082 1098.00
39.1124 844.00
39.4167 873.00
39.7209 1643.00
40.0252 811.00
40.3295 1023.00
40.6337 660.00
40.938 877.00
41.2422 1147.00
41.5465 770.00
41.8508 1195.00
42.155 740.00
42.4593 898.00
42.7635 681.00
43.0678 759.00
43.3721 1447.00
43.6763 1164.00
43.9806 1452.00
44.2849 796.00
44.5891 626.00
44.8934 729.00
45.1976 681.00
45.5019 721.00
45.8062 773.00
46.1104 1094.00
46.4147 712.00
46.7189 718.00
47.0232 1137.00
47.3275 1836.00
47.6317 1890.00
47.936 1353.00
48.2402 792.00
48.5445 684.00
48.8488 1221.00
49.153 597.00
49.4573 612.00
49.7615 845.00
50.0658 642.00
50.3701 564.00
50.6743 521.00
50.9786 689.00
51.2828 591.00
51.5871 587.00
51.8914 790.00
52.1956 799.00
52.4999 813.00
52.8041 1143.00
53.1084 671.00
53.4127 916.00
53.7169 793.00
54.0212 649.00
54.3254 608.00
54.6297 830.00
54.934 775.00
55.2382 618.00
55.5425 486.00
55.8467 475.00
56.151 670.00
56.4553 658.00
56.7595 804.00
57.0638 780.00
57.368 910.00
57.6723 1129.00
57.9766 720.00
58.2808 605.00
58.5851 574.00
58.8893 745.00
59.1936 768.00
59.4979 793.00
59.8021 904.00
60.1064 730.00
60.4106 555.00
60.7149 726.00
61.0192 758.00
61.3234 606.00
61.6277 615.00
61.932 498.00
62.2362 531.00
62.5405 579.00
62.8447 567.00
63.149 722.00
63.4533 664.00
63.7575 658.00
64.0618 591.00
64.366 573.00
64.6703 564.00
64.9745 689.00
65.2788 569.00
65.5831 680.00
65.8873 762.00
66.1916 623.00
66.4959 610.00
66.8001 565.00
67.1044 463.00
67.4086 458.00
67.7129 610.00
68.0172 529.00
68.3214 416.00
68.6257 337.00
68.9299 400.00
69.2342 586.00
69.5385 624.00
69.8427 509.00
70.147 446.00
70.4512 634.00
70.7555 548.00
71.0598 451.00
71.364 410.00
71.6683 476.00
71.9725 665.00
72.2768 500.00
72.5811 444.00
72.8853 530.00
73.1896 516.00
73.4938 422.00
73.7981 400.00
74.1024 379.00
74.4066 391.00
74.7109 375.00
75.0151 408.00
75.3194 469.00
75.6237 428.00
75.9279 395.00
76.2322 469.00
76.5364 503.00
76.8407 420.00
77.145 452.00
77.4492 436.00
77.7535 412.00
78.0577 452.00
78.362 423.00
78.6663 428.00
78.9705 391.00
79.2748 457.00
79.579 462.00
79.8833 403.00
80.1876 423.00
80.4918 417.00
80.7961 446.00
81.1003 463.00
81.4046 507.00
81.7089 513.00
82.0131 411.00
82.3174 377.00
82.6217 390.00
82.9259 321.00
83.2302 413.00
83.5344 403.00
83.8387 415.00
84.143 449.00
84.4472 400.00
84.7515 434.00
85.0557 462.00
85.36 399.00
85.6643 358.00
85.9685 404.00
86.2728 366.00
86.577 385.00
86.8813 410.00
87.1856 378.00
87.4898 387.00
87.7941 381.00
88.0983 407.00
88.4026 420.00
88.7069 411.00
89.0111 361.00
89.3154 332.00
89.6196 320.00
89.9239 397.00
90.2282 365.00
90.5324 391.00
90.8367 344.00
91.1409 335.00
91.4452 353.00
91.7495 402.00
92.0537 371.00
92.358 373.00
92.6622 395.00
92.9665 354.00
93.2708 436.00
93.575 448.00
93.8793 416.00
94.1835 347.00
94.4878 341.00
94.7921 466.00
95.0963 496.00
95.4006 498.00
95.7048 395.00
96.0091 374.00
96.3134 424.00
96.6176 401.00
96.9219 352.00
97.2261 371.00
97.5304 342.00
97.8347 335.00
98.1389 358.00
98.4432 418.00
98.7474 374.00
99.0517 357.00
99.356 425.00
99.6602 367.00
99.9645 352.00
100.095 353.00