Folder: alab-pipeline/data/xrd_creation/results (part 114)

File: TRI_-2.xy
9.903433 2842.00
10.2077 2729.00
10.512 2593.00
10.8162 2538.00
11.1205 2462.00
11.4247 2369.00
11.729 2278.00
12.0333 2321.00
12.3375 2287.00
12.6418 2258.00
12.946 2192.00
13.2503 2135.00
13.5546 2230.00
13.8588 1994.00
14.1631 2061.00
14.4673 2042.00
14.7716 2107.00
15.0759 1906.00
15.3801 1954.00
15.6844 1951.00
15.9886 1845.00
16.2929 1931.00
16.5972 1834.00
16.9014 1807.00
17.2057 1877.00
17.5099 1743.00
17.8142 1767.00
18.1185 1699.00
18.4227 1733.00
18.727 1651.00
19.0312 1665.00
19.3355 1572.00
19.6398 1636.00
19.944 1642.00
20.2483 1582.00
20.5525 1504.00
20.8568 1572.00
21.1611 1649.00
21.4653 1610.00
21.7696 1578.00
22.0738 1523.00
22.3781 1525.00
22.6824 1667.00
22.9866 1810.00
23.2909 8184.00
23.5951 4234.00
23.8994 1581.00
24.2037 1572.00
24.5079 1444.00
24.8122 1461.00
25.1164 1461.00
25.4207 1476.00
25.725 1401.00
26.0292 1565.00
26.3335 1539.00
26.6378 1339.00
26.942 1339.00
27.2463 1269.00
27.5505 1246.00
27.8548 1254.00
28.1591 1364.00
28.4633 1488.00
28.7676 1363.00
29.0718 1251.00
29.3761 1263.00
29.6804 1251.00
29.9846 1308.00
30.2889 1272.00
30.5931 1187.00
30.8974 1216.00
31.2017 1150.00
31.5059 1203.00
31.8102 1239.00
32.1144 1364.00
32.4187 2057.00
32.723 7575.00
33.0272 4151.00
33.3315 22642.00
33.6357 6995.00
33.94 1653.00
34.2443 1259.00
34.5485 1222.00
34.8528 1466.00
35.157 1202.00
35.4613 1989.00
35.7656 1146.00
36.0698 1185.00
36.3741 1210.00
36.6783 1155.00
36.9826 1129.00
37.2869 1163.00
37.5911 1896.00
37.8954 1175.00
38.1996 1115.00
38.5039 1115.00
38.8082 1152.00
39.1124 1234.00
39.4167 1961.00
39.7209 1039.00
40.0252 1014.00
40.3295 1171.00
40.6337 1206.00
40.938 1059.00
41.2422 1285.00
41.5465 1061.00
41.8508 920.00
42.155 1033.00
42.4593 963.00
42.7635 1461.00
43.0678 1005.00
43.3721 898.00
43.6763 953.00
43.9806 1212.00
44.2849 961.00
44.5891 1100.00
44.8934 999.00
45.1976 1010.00
45.5019 944.00
45.8062 968.00
46.1104 1041.00
46.4147 1023.00
46.7189 991.00
47.0232 1070.00
47.3275 3021.00
47.6317 8019.00
47.936 1632.00
48.2402 1067.00
48.5445 927.00
48.8488 1258.00
49.153 1220.00
49.4573 977.00
49.7615 956.00
50.0658 896.00
50.3701 949.00
50.6743 888.00
50.9786 941.00
51.2828 941.00
51.5871 951.00
51.8914 1024.00
52.1956 992.00
52.4999 1180.00
52.8041 2314.00
53.1084 1313.00
53.4127 2630.00
53.7169 3459.00
54.0212 1749.00
54.3254 1774.00
54.6297 1551.00
54.934 947.00
55.2382 912.00
55.5425 1044.00
55.8467 902.00
56.151 896.00
56.4553 896.00
56.7595 902.00
57.0638 899.00
57.368 957.00
57.6723 973.00
57.9766 962.00
58.2808 3011.00
58.5851 3062.00
58.8893 3249.00
59.1936 1698.00
59.4979 5122.00
59.8021 4417.00
60.1064 1195.00
60.4106 989.00
60.7149 923.00
61.0192 833.00
61.3234 839.00
61.6277 867.00
61.932 942.00
62.2362 838.00
62.5405 971.00
62.8447 895.00
63.149 866.00
63.4533 912.00
63.7575 860.00
64.0618 936.00
64.366 1010.00
64.6703 866.00
64.9745 1060.00
65.2788 1022.00
65.5831 877.00
65.8873 934.00
66.1916 871.00
66.4959 850.00
66.8001 901.00
67.1044 920.00
67.4086 956.00
67.7129 971.00
68.0172 1170.00
68.3214 1036.00
68.6257 936.00
68.9299 972.00
69.2342 1921.00
69.5385 2645.00
69.8427 1151.00
70.147 1088.00
70.4512 1192.00
70.7555 978.00
71.0598 835.00
71.364 814.00
71.6683 759.00
71.9725 839.00
72.2768 870.00
72.5811 940.00
72.8853 1242.00
73.1896 1135.00
73.4938 1271.00
73.7981 1536.00
74.1024 1223.00
74.4066 1210.00
74.7109 1198.00
75.0151 1261.00
75.3194 1097.00
75.6237 919.00
75.9279 857.00
76.2322 773.00
76.5364 903.00
76.8407 839.00
77.145 867.00
77.4492 820.00
77.7535 982.00
78.0577 1133.00
78.362 1006.00
78.6663 1305.00
78.9705 2118.00
79.2748 1928.00
79.579 1403.00
79.8833 1120.00
80.1876 925.00
80.4918 910.00
80.7961 851.00
81.1003 845.00
81.4046 807.00
81.7089 802.00
82.0131 847.00
82.3174 863.00
82.6217 1187.00
82.9259 1082.00
83.2302 925.00
83.5344 978.00
83.8387 1015.00
84.143 1152.00
84.4472 1213.00
84.7515 961.00
85.0557 818.00
85.36 807.00
85.6643 819.00
85.9685 767.00
86.2728 845.00
86.577 815.00
86.8813 933.00
87.1856 1071.00
87.4898 898.00
87.7941 870.00
88.0983 1034.00
88.4026 963.00
88.7069 938.00
89.0111 1072.00
89.3154 1196.00
89.6196 985.00
89.9239 819.00
90.2282 838.00
90.5324 785.00
90.8367 980.00
91.1409 905.00
91.4452 890.00
91.7495 889.00
92.0537 910.00
92.358 864.00
92.6622 1023.00
92.9665 1223.00
93.2708 974.00
93.575 913.00
93.8793 888.00
94.1835 853.00
94.4878 857.00
94.7921 973.00
95.0963 950.00
95.4006 952.00
95.7048 1038.00
96.0091 1004.00
96.3134 1097.00
96.6176 1169.00
96.9219 1385.00
97.2261 1312.00
97.5304 1131.00
97.8347 1279.00
98.1389 1928.00
98.4432 1642.00
98.7474 1320.00
99.0517 1326.00
99.356 966.00
99.6602 893.00
99.9645 835.00
100.095 872.00