Folder: alab-pipeline/data/xrd_creation/results (part 26)

File: Na_207.xy
9.903433 2729.00
10.2077 3033.00
10.512 2674.00
10.8162 2631.00
11.1205 2610.00
11.4247 2573.00
11.729 4028.00
12.0333 2577.00
12.3375 2118.00
12.6418 2168.00
12.946 1954.00
13.2503 1926.00
13.5546 2037.00
13.8588 2044.00
14.1631 1740.00
14.4673 1696.00
14.7716 1666.00
15.0759 1624.00
15.3801 1670.00
15.6844 1545.00
15.9886 1564.00
16.2929 1561.00
16.5972 1541.00
16.9014 1448.00
17.2057 1406.00
17.5099 1686.00
17.8142 1408.00
18.1185 1336.00
18.4227 1327.00
18.727 1301.00
19.0312 1469.00
19.3355 2926.00
19.6398 2139.00
19.944 1260.00
20.2483 1241.00
20.5525 1444.00
20.8568 1243.00
21.1611 1128.00
21.4653 1120.00
21.7696 1221.00
22.0738 1163.00
22.3781 1258.00
22.6824 2593.00
22.9866 1848.00
23.2909 1148.00
23.5951 1365.00
23.8994 1859.00
24.2037 1907.00
24.5079 1612.00
24.8122 1119.00
25.1164 1088.00
25.4207 976.00
25.725 1139.00
26.0292 1203.00
26.3335 1027.00
26.6378 1030.00
26.942 1058.00
27.2463 1068.00
27.5505 1513.00
27.8548 1203.00
28.1591 2755.00
28.4633 3824.00
28.7676 1117.00
29.0718 993.00
29.3761 1048.00
29.6804 1029.00
29.9846 2077.00
30.2889 1450.00
30.5931 1113.00
30.8974 2884.00
31.2017 1974.00
31.5059 2769.00
31.8102 2648.00
32.1144 1005.00
32.4187 892.00
32.723 872.00
33.0272 882.00
33.3315 923.00
33.6357 1616.00
33.94 4031.00
34.2443 2189.00
34.5485 2035.00
34.8528 973.00
35.157 878.00
35.4613 1945.00
35.7656 961.00
36.0698 1445.00
36.3741 852.00
36.6783 706.00
36.9826 711.00
37.2869 666.00
37.5911 638.00
37.8954 662.00
38.1996 718.00
38.5039 674.00
38.8082 1034.00
39.1124 767.00
39.4167 693.00
39.7209 714.00
40.0252 721.00
40.3295 690.00
40.6337 705.00
40.938 1272.00
41.2422 1124.00
41.5465 994.00
41.8508 898.00
42.155 730.00
42.4593 601.00
42.7635 608.00
43.0678 727.00
43.3721 689.00
43.6763 590.00
43.9806 579.00
44.2849 712.00
44.5891 628.00
44.8934 647.00
45.1976 841.00
45.5019 675.00
45.8062 1060.00
46.1104 919.00
46.4147 962.00
46.7189 1209.00
47.0232 566.00
47.3275 576.00
47.6317 594.00
47.936 606.00
48.2402 540.00
48.5445 703.00
48.8488 889.00
49.153 723.00
49.4573 1179.00
49.7615 885.00
50.0658 679.00
50.3701 1727.00
50.6743 1096.00
50.9786 1143.00
51.2828 670.00
51.5871 731.00
51.8914 574.00
52.1956 567.00
52.4999 561.00
52.8041 1006.00
53.1084 713.00
53.4127 629.00
53.7169 578.00
54.0212 565.00
54.3254 926.00
54.6297 1055.00
54.934 615.00
55.2382 610.00
55.5425 759.00
55.8467 1224.00
56.151 891.00
56.4553 734.00
56.7595 552.00
57.0638 534.00
57.368 587.00
57.6723 756.00
57.9766 591.00
58.2808 827.00
58.5851 760.00
58.8893 1146.00
59.1936 657.00
59.4979 548.00
59.8021 561.00
60.1064 806.00
60.4106 991.00
60.7149 917.00
61.0192 715.00
61.3234 596.00
61.6277 657.00
61.932 773.00
62.2362 870.00
62.5405 690.00
62.8447 563.00
63.149 728.00
63.4533 732.00
63.7575 516.00
64.0618 531.00
64.366 548.00
64.6703 595.00
64.9745 542.00
65.2788 513.00
65.5831 606.00
65.8873 724.00
66.1916 930.00
66.4959 631.00
66.8001 453.00
67.1044 457.00
67.4086 471.00
67.7129 438.00
68.0172 484.00
68.3214 410.00
68.6257 453.00
68.9299 447.00
69.2342 563.00
69.5385 601.00
69.8427 420.00
70.147 439.00
70.4512 444.00
70.7555 428.00
71.0598 504.00
71.364 598.00
71.6683 689.00
71.9725 552.00
72.2768 456.00
72.5811 571.00
72.8853 543.00
73.1896 534.00
73.4938 468.00
73.7981 435.00
74.1024 436.00
74.4066 414.00
74.7109 498.00
75.0151 480.00
75.3194 476.00
75.6237 595.00
75.9279 506.00
76.2322 460.00
76.5364 504.00
76.8407 460.00
77.145 502.00
77.4492 442.00
77.7535 451.00
78.0577 455.00
78.362 424.00
78.6663 450.00
78.9705 418.00
79.2748 446.00
79.579 567.00
79.8833 537.00
80.1876 428.00
80.4918 482.00
80.7961 433.00
81.1003 499.00
81.4046 476.00
81.7089 520.00
82.0131 509.00
82.3174 462.00
82.6217 471.00
82.9259 496.00
83.2302 514.00
83.5344 487.00
83.8387 529.00
84.143 486.00
84.4472 499.00
84.7515 545.00
85.0557 490.00
85.36 462.00
85.6643 439.00
85.9685 515.00
86.2728 480.00
86.577 449.00
86.8813 503.00
87.1856 436.00
87.4898 452.00
87.7941 449.00
88.0983 495.00
88.4026 480.00
88.7069 481.00
89.0111 490.00
89.3154 531.00
89.6196 470.00
89.9239 459.00
90.2282 436.00
90.5324 474.00
90.8367 450.00
91.1409 464.00
91.4452 467.00
91.7495 447.00
92.0537 453.00
92.358 431.00
92.6622 472.00
92.9665 411.00
93.2708 395.00
93.575 387.00
93.8793 380.00
94.1835 388.00
94.4878 471.00
94.7921 460.00
95.0963 428.00
95.4006 446.00
95.7048 512.00
96.0091 413.00
96.3134 426.00
96.6176 427.00
96.9219 494.00
97.2261 533.00
97.5304 525.00
97.8347 497.00
98.1389 468.00
98.4432 415.00
98.7474 470.00
99.0517 476.00
99.356 496.00
99.6602 496.00
99.9645 487.00
100.095 482.00

File: Na_208.xy
9.903433 2779.00
10.2077 2957.00
10.512 2949.00
10.8162 2470.00
11.1205 2565.00
11.4247 2567.00
11.729 3475.00
12.0333 3566.00
12.3375 2229.00
12.6418 2098.00
12.946 2069.00
13.2503 1890.00
13.5546 1990.00
13.8588 2144.00
14.1631 1829.00
14.4673 1714.00
14.7716 1678.00
15.0759 1572.00
15.3801 1673.00
15.6844 1561.00
15.9886 1620.00
16.2929 1559.00
16.5972 1513.00
16.9014 1510.00
17.2057 1484.00
17.5099 1550.00
17.8142 1441.00
18.1185 1364.00
18.4227 1437.00
18.727 1311.00
19.0312 1472.00
19.3355 2806.00
19.6398 2878.00
19.944 1486.00
20.2483 1270.00
20.5525 1341.00
20.8568 1354.00
21.1611 1249.00
21.4653 1178.00
21.7696 1184.00
22.0738 1253.00
22.3781 1303.00
22.6824 2444.00
22.9866 3263.00
23.2909 1373.00
23.5951 1315.00
23.8994 2052.00
24.2037 1978.00
24.5079 1596.00
24.8122 1389.00
25.1164 1184.00
25.4207 1137.00
25.725 1197.00
26.0292 1248.00
26.3335 1118.00
26.6378 1138.00
26.942 1080.00
27.2463 1164.00
27.5505 1687.00
27.8548 1396.00
28.1591 2226.00
28.4633 5095.00
28.7676 1609.00
29.0718 1108.00
29.3761 1070.00
29.6804 1118.00
29.9846 2057.00
30.2889 2194.00
30.5931 1254.00
30.8974 2803.00
31.2017 3552.00
31.5059 2452.00
31.8102 4055.00
32.1144 1339.00
32.4187 1012.00
32.723 1047.00
33.0272 913.00
33.3315 1011.00
33.6357 1484.00
33.94 5247.00
34.2443 2898.00
34.5485 2397.00
34.8528 1420.00
35.157 994.00
35.4613 1807.00
35.7656 1475.00
36.0698 1595.00
36.3741 1132.00
36.6783 828.00
36.9826 842.00
37.2869 794.00
37.5911 830.00
37.8954 793.00
38.1996 800.00
38.5039 815.00
38.8082 1188.00
39.1124 960.00
39.4167 924.00
39.7209 816.00
40.0252 856.00
40.3295 857.00
40.6337 799.00
40.938 1251.00
41.2422 1620.00
41.5465 1298.00
41.8508 1168.00
42.155 980.00
42.4593 782.00
42.7635 779.00
43.0678 800.00
43.3721 828.00
43.6763 724.00
43.9806 775.00
44.2849 971.00
44.5891 790.00
44.8934 809.00
45.1976 963.00
45.5019 860.00
45.8062 1150.00
46.1104 1433.00
46.4147 1171.00
46.7189 1936.00
47.0232 937.00
47.3275 741.00
47.6317 719.00
47.936 729.00
48.2402 697.00
48.5445 808.00
48.8488 1222.00
49.153 991.00
49.4573 1206.00
49.7615 1354.00
50.0658 884.00
50.3701 1821.00
50.6743 1679.00
50.9786 1503.00
51.2828 1078.00
51.5871 993.00
51.8914 745.00
52.1956 683.00
52.4999 682.00
52.8041 1197.00
53.1084 1153.00
53.4127 764.00
53.7169 714.00
54.0212 731.00
54.3254 1065.00
54.6297 1563.00
54.934 945.00
55.2382 800.00
55.5425 884.00
55.8467 1476.00
56.151 1130.00
56.4553 1003.00
56.7595 688.00
57.0638 653.00
57.368 733.00
57.6723 977.00
57.9766 810.00
58.2808 1027.00
58.5851 1002.00
58.8893 1606.00
59.1936 1007.00
59.4979 735.00
59.8021 693.00
60.1064 931.00
60.4106 1350.00
60.7149 1344.00
61.0192 984.00
61.3234 791.00
61.6277 802.00
61.932 994.00
62.2362 1157.00
62.5405 1057.00
62.8447 724.00
63.149 883.00
63.4533 964.00
63.7575 637.00
64.0618 598.00
64.366 692.00
64.6703 807.00
64.9745 733.00
65.2788 604.00
65.5831 771.00
65.8873 1089.00
66.1916 1182.00
66.4959 914.00
66.8001 638.00
67.1044 599.00
67.4086 589.00
67.7129 571.00
68.0172 644.00
68.3214 580.00
68.6257 549.00
68.9299 544.00
69.2342 746.00
69.5385 813.00
69.8427 554.00
70.147 548.00
70.4512 560.00
70.7555 524.00
71.0598 620.00
71.364 759.00
71.6683 851.00
71.9725 773.00
72.2768 614.00
72.5811 694.00
72.8853 643.00
73.1896 712.00
73.4938 631.00
73.7981 575.00
74.1024 518.00
74.4066 537.00
74.7109 659.00
75.0151 610.00
75.3194 700.00
75.6237 754.00
75.9279 677.00
76.2322 590.00
76.5364 649.00
76.8407 612.00
77.145 620.00
77.4492 529.00
77.7535 547.00
78.0577 568.00
78.362 563.00
78.6663 576.00
78.9705 574.00
79.2748 581.00
79.579 742.00
79.8833 679.00
80.1876 576.00
80.4918 517.00
80.7961 502.00
81.1003 568.00
81.4046 590.00
81.7089 616.00
82.0131 619.00
82.3174 694.00
82.6217 587.00
82.9259 620.00
83.2302 627.00
83.5344 612.00
83.8387 585.00
84.143 582.00
84.4472 681.00
84.7515 663.00
85.0557 602.00
85.36 574.00
85.6643 565.00
85.9685 629.00
86.2728 628.00
86.577 637.00
86.8813 597.00
87.1856 563.00
87.4898 505.00
87.7941 535.00
88.0983 630.00
88.4026 587.00
88.7069 582.00
89.0111 682.00
89.3154 689.00
89.6196 699.00
89.9239 624.00
90.2282 566.00
90.5324 645.00
90.8367 632.00
91.1409 549.00
91.4452 607.00
91.7495 549.00
92.0537 537.00
92.358 523.00
92.6622 541.00
92.9665 551.00
93.2708 504.00
93.575 473.00
93.8793 472.00
94.1835 535.00
94.4878 547.00
94.7921 584.00
95.0963 471.00
95.4006 572.00
95.7048 630.00
96.0091 607.00
96.3134 571.00
96.6176 552.00
96.9219 612.00
97.2261 648.00
97.5304 679.00
97.8347 630.00
98.1389 628.00
98.4432 570.00
98.7474 605.00
99.0517 596.00
99.356 677.00
99.6602 628.00
99.9645 603.00
100.095 696.00

File: Na_271.xy
9.903433 3164.00
10.2077 2878.00
10.512 2865.00
10.8162 2652.00
11.1205 2596.00
11.4247 2535.00
11.729 2490.00
12.0333 2441.00
12.3375 2508.00
12.6418 2291.00
12.946 2227.00
13.2503 2199.00
13.5546 2114.00
13.8588 2022.00
14.1631 2065.00
14.4673 2051.00
14.7716 1908.00
15.0759 1979.00
15.3801 2028.00
15.6844 1963.00
15.9886 1924.00
16.2929 1897.00
16.5972 1815.00
16.9014 1861.00
17.2057 1780.00
17.5099 1788.00
17.8142 1802.00
18.1185 1791.00
18.4227 1652.00
18.727 1625.00
19.0312 1741.00
19.3355 1604.00
19.6398 1658.00
19.944 1670.00
20.2483 2021.00
20.5525 2330.00
20.8568 10852.00
21.1611 5745.00
21.4653 2013.00
21.7696 1598.00
22.0738 1581.00
22.3781 1493.00
22.6824 1549.00
22.9866 1498.00
23.2909 1516.00
23.5951 1406.00
23.8994 1744.00
24.2037 3264.00
24.5079 1538.00
24.8122 1484.00
25.1164 1417.00
25.4207 1350.00
25.725 1284.00
26.0292 1253.00
26.3335 1329.00
26.6378 1341.00
26.942 1321.00
27.2463 1233.00
27.5505 1266.00
27.8548 1268.00
28.1591 1249.00
28.4633 1282.00
28.7676 1247.00
29.0718 1252.00
29.3761 1275.00
29.6804 1289.00
29.9846 1326.00
30.2889 1319.00
30.5931 1265.00
30.8974 1301.00
31.2017 1294.00
31.5059 1265.00
31.8102 1311.00
32.1144 1285.00
32.4187 1306.00
32.723 1267.00
33.0272 1312.00
33.3315 1500.00
33.6357 1703.00
33.94 2525.00
34.2443 9468.00
34.5485 17706.00
34.8528 2159.00
35.157 1563.00
35.4613 1863.00
35.7656 1292.00
36.0698 1326.00
36.3741 1336.00
36.6783 1330.00
36.9826 1386.00
37.2869 1441.00
37.5911 1450.00
37.8954 1457.00
38.1996 1438.00
38.5039 1380.00
38.8082 1323.00
39.1124 1437.00
39.4167 1380.00
39.7209 1369.00
40.0252 1292.00
40.3295 1407.00
40.6337 1472.00
40.938 1328.00
41.2422 1269.00
41.5465 1307.00
41.8508 1210.00
42.155 1263.00
42.4593 1840.00
42.7635 1246.00
43.0678 1154.00
43.3721 1115.00
43.6763 1000.00
43.9806 1047.00
44.2849 1027.00
44.5891 990.00
44.8934 1012.00
45.1976 1141.00
45.5019 1070.00
45.8062 1118.00
46.1104 1187.00
46.4147 1117.00
46.7189 1038.00
47.0232 982.00
47.3275 920.00
47.6317 953.00
47.936 881.00
48.2402 944.00
48.5445 1094.00
48.8488 1118.00
49.153 2152.00
49.4573 3560.00
49.7615 1137.00
50.0658 957.00
50.3701 932.00
50.6743 965.00
50.9786 864.00
51.2828 844.00
51.5871 883.00
51.8914 833.00
52.1956 834.00
52.4999 829.00
52.8041 802.00
53.1084 807.00
53.4127 796.00
53.7169 845.00
54.0212 898.00
54.3254 876.00
54.6297 786.00
54.934 847.00
55.2382 819.00
55.5425 810.00
55.8467 766.00
56.151 745.00
56.4553 710.00
56.7595 770.00
57.0638 709.00
57.368 727.00
57.6723 682.00
57.9766 688.00
58.2808 712.00
58.5851 743.00
58.8893 680.00
59.1936 740.00
59.4979 776.00
59.8021 777.00
60.1064 776.00
60.4106 861.00
60.7149 835.00
61.0192 1139.00
61.3234 3379.00
61.6277 2769.00
61.932 939.00
62.2362 769.00
62.5405 727.00
62.8447 690.00
63.149 663.00
63.4533 646.00
63.7575 661.00
64.0618 676.00
64.366 637.00
64.6703 646.00
64.9745 732.00
65.2788 820.00
65.5831 1152.00
65.8873 710.00
66.1916 702.00
66.4959 755.00
66.8001 842.00
67.1044 881.00
67.4086 794.00
67.7129 779.00
68.0172 667.00
68.3214 643.00
68.6257 593.00
68.9299 581.00
69.2342 540.00
69.5385 561.00
69.8427 538.00
70.147 552.00
70.4512 571.00
70.7555 549.00
71.0598 552.00
71.364 544.00
71.6683 572.00
71.9725 833.00
72.2768 1256.00
72.5811 686.00
72.8853 515.00
73.1896 511.00
73.4938 517.00
73.7981 554.00
74.1024 500.00
74.4066 510.00
74.7109 527.00
75.0151 484.00
75.3194 482.00
75.6237 516.00
75.9279 692.00
76.2322 622.00
76.5364 502.00
76.8407 458.00
77.145 539.00
77.4492 486.00
77.7535 486.00
78.0577 502.00
78.362 490.00
78.6663 463.00
78.9705 466.00
79.2748 505.00
79.579 463.00
79.8833 501.00
80.1876 486.00
80.4918 465.00
80.7961 533.00
81.1003 480.00
81.4046 484.00
81.7089 481.00
82.0131 585.00
82.3174 1183.00
82.6217 903.00
82.9259 570.00
83.2302 500.00
83.5344 515.00
83.8387 507.00
84.143 447.00
84.4472 460.00
84.7515 481.00
85.0557 480.00
85.36 459.00
85.6643 467.00
85.9685 496.00
86.2728 479.00
86.577 464.00
86.8813 435.00
87.1856 450.00
87.4898 461.00
87.7941 460.00
88.0983 446.00
88.4026 457.00
88.7069 449.00
89.0111 455.00
89.3154 451.00
89.6196 434.00
89.9239 422.00
90.2282 459.00
90.5324 454.00
90.8367 430.00
91.1409 424.00
91.4452 459.00
91.7495 423.00
92.0537 513.00
92.358 531.00
92.6622 476.00
92.9665 436.00
93.2708 414.00
93.575 404.00
93.8793 425.00
94.1835 450.00
94.4878 411.00
94.7921 432.00
95.0963 444.00
95.4006 453.00
95.7048 417.00
96.0091 553.00
96.3134 508.00
96.6176 422.00
96.9219 438.00
97.2261 462.00
97.5304 474.00
97.8347 422.00
98.1389 426.00
98.4432 427.00
98.7474 432.00
99.0517 429.00
99.356 405.00
99.6602 408.00
99.9645 441.00
100.095 430.00

File: Na_272.xy
9.903433 2682.00
10.2077 2607.00
10.512 2523.00
10.8162 2282.00
11.1205 2249.00
11.4247 2311.00
11.729 2232.00
12.0333 2143.00
12.3375 1964.00
12.6418 1927.00
12.946 1892.00
13.2503 2023.00
13.5546 1976.00
13.8588 1700.00
14.1631 1684.00
14.4673 1652.00
14.7716 1719.00
15.0759 1608.00
15.3801 1605.00
15.6844 1600.00
15.9886 1555.00
16.2929 1580.00
16.5972 1602.00
16.9014 1635.00
17.2057 1447.00
17.5099 1431.00
17.8142 1601.00
18.1185 1477.00
18.4227 1472.00
18.727 1492.00
19.0312 2190.00
19.3355 1516.00
19.6398 1600.00
19.944 3974.00
20.2483 10844.00
20.5525 4163.00
20.8568 2527.00
21.1611 1421.00
21.4653 1736.00
21.7696 1453.00
22.0738 1285.00
22.3781 1203.00
22.6824 1259.00
22.9866 1275.00
23.2909 1526.00
23.5951 1130.00
23.8994 1150.00
24.2037 1095.00
24.5079 1253.00
24.8122 1158.00
25.1164 1179.00
25.4207 1328.00
25.725 2599.00
26.0292 20587.00
26.3335 5318.00
26.6378 4314.00
26.942 1437.00
27.2463 1166.00
27.5505 1354.00
27.8548 1082.00
28.1591 1045.00
28.4633 1000.00
28.7676 1142.00
29.0718 1001.00
29.3761 994.00
29.6804 1045.00
29.9846 1020.00
30.2889 937.00
30.5931 932.00
30.8974 982.00
31.2017 993.00
31.5059 958.00
31.8102 921.00
32.1144 981.00
32.4187 1246.00
32.723 5071.00
33.0272 4338.00
33.3315 9547.00
33.6357 1430.00
33.94 2227.00
34.2443 1149.00
34.5485 1252.00
34.8528 1123.00
35.157 1196.00
35.4613 1184.00
35.7656 1273.00
36.0698 2970.00
36.3741 1483.00
36.6783 1053.00
36.9826 1478.00
37.2869 1382.00
37.5911 1040.00
37.8954 1484.00
38.1996 5198.00
38.5039 3244.00
38.8082 1658.00
39.1124 1336.00
39.4167 2047.00
39.7209 2766.00
40.0252 957.00
40.3295 936.00
40.6337 799.00
40.938 817.00
41.2422 821.00
41.5465 971.00
41.8508 3422.00
42.155 2195.00
42.4593 874.00
42.7635 1124.00
43.0678 887.00
43.3721 861.00
43.6763 2000.00
43.9806 1024.00
44.2849 926.00
44.5891 944.00
44.8934 1592.00
45.1976 1161.00
45.5019 769.00
45.8062 859.00
46.1104 736.00
46.4147 717.00
46.7189 695.00
47.0232 903.00
47.3275 2727.00
47.6317 1290.00
47.936 998.00
48.2402 924.00
48.5445 1828.00
48.8488 3009.00
49.153 1323.00
49.4573 717.00
49.7615 657.00
50.0658 625.00
50.3701 675.00
50.6743 712.00
50.9786 642.00
51.2828 679.00
51.5871 741.00
51.8914 1063.00
52.1956 1041.00
52.4999 842.00
52.8041 678.00
53.1084 1119.00
53.4127 1700.00
53.7169 1568.00
54.0212 854.00
54.3254 776.00
54.6297 975.00
54.934 760.00
55.2382 718.00
55.5425 733.00
55.8467 882.00
56.151 839.00
56.4553 1147.00
56.7595 1065.00
57.0638 895.00
57.368 764.00
57.6723 665.00
57.9766 706.00
58.2808 846.00
58.5851 992.00
58.8893 3140.00
59.1936 3474.00
59.4979 1729.00
59.8021 1167.00
60.1064 799.00
60.4106 724.00
60.7149 639.00
61.0192 670.00
61.3234 638.00
61.6277 838.00
61.932 1319.00
62.2362 885.00
62.5405 866.00
62.8447 1357.00
63.149 1062.00
63.4533 730.00
63.7575 703.00
64.0618 660.00
64.366 626.00
64.6703 632.00
64.9745 823.00
65.2788 1287.00
65.5831 1497.00
65.8873 2258.00
66.1916 2856.00
66.4959 1605.00
66.8001 971.00
67.1044 1742.00
67.4086 1470.00
67.7129 853.00
68.0172 620.00
68.3214 574.00
68.6257 550.00
68.9299 572.00
69.2342 577.00
69.5385 878.00
69.8427 1111.00
70.147 1426.00
70.4512 1253.00
70.7555 697.00
71.0598 601.00
71.364 602.00
71.6683 563.00
71.9725 547.00
72.2768 615.00
72.5811 627.00
72.8853 731.00
73.1896 774.00
73.4938 675.00
73.7981 882.00
74.1024 1048.00
74.4066 745.00
74.7109 625.00
75.0151 600.00
75.3194 757.00
75.6237 600.00
75.9279 592.00
76.2322 726.00
76.5364 758.00
76.8407 644.00
77.145 623.00
77.4492 876.00
77.7535 999.00
78.0577 837.00
78.362 707.00
78.6663 774.00
78.9705 925.00
79.2748 831.00
79.579 716.00
79.8833 765.00
80.1876 1033.00
80.4918 842.00
80.7961 591.00
81.1003 562.00
81.4046 599.00
81.7089 575.00
82.0131 579.00
82.3174 810.00
82.6217 782.00
82.9259 578.00
83.2302 551.00
83.5344 522.00
83.8387 525.00
84.143 501.00
84.4472 634.00
84.7515 874.00
85.0557 803.00
85.36 624.00
85.6643 549.00
85.9685 532.00
86.2728 554.00
86.577 653.00
86.8813 603.00
87.1856 530.00
87.4898 522.00
87.7941 519.00
88.0983 542.00
88.4026 706.00
88.7069 808.00
89.0111 731.00
89.3154 602.00
89.6196 619.00
89.9239 710.00
90.2282 618.00
90.5324 574.00
90.8367 554.00
91.1409 523.00
91.4452 520.00
91.7495 618.00
92.0537 693.00
92.358 734.00
92.6622 739.00
92.9665 730.00
93.2708 707.00
93.575 593.00
93.8793 591.00
94.1835 551.00
94.4878 561.00
94.7921 484.00
95.0963 544.00
95.4006 593.00
95.7048 636.00
96.0091 660.00
96.3134 573.00
96.6176 532.00
96.9219 616.00
97.2261 669.00
97.5304 708.00
97.8347 699.00
98.1389 752.00
98.4432 785.00
98.7474 619.00
99.0517 677.00
99.356 966.00
99.6602 1003.00
99.9645 907.00
100.095 873.00

File: Na_273.xy
9.903433 4051.00
10.2077 4010.00
10.512 3913.00
10.8162 3894.00
11.1205 3759.00
11.4247 3729.00
11.729 3768.00
12.0333 3712.00
12.3375 3760.00
12.6418 3845.00
12.946 4217.00
13.2503 4026.00
13.5546 3822.00
13.8588 3643.00
14.1631 3754.00
14.4673 3746.00
14.7716 3692.00
15.0759 3784.00
15.3801 3816.00
15.6844 3724.00
15.9886 3776.00
16.2929 3694.00
16.5972 3753.00
16.9014 3839.00
17.2057 3805.00
17.5099 3822.00
17.8142 3750.00
18.1185 3859.00
18.4227 3783.00
18.727 3686.00
19.0312 3787.00
19.3355 3824.00
19.6398 3726.00
19.944 3742.00
20.2483 4052.00
20.5525 3867.00
20.8568 4806.00
21.1611 7318.00
21.4653 3907.00
21.7696 3998.00
22.0738 3846.00
22.3781 3839.00
22.6824 3843.00
22.9866 3823.00
23.2909 3829.00
23.5951 4004.00
23.8994 4598.00
24.2037 4418.00
24.5079 4549.00
24.8122 3814.00
25.1164 3735.00
25.4207 3830.00
25.725 3751.00
26.0292 3915.00
26.3335 3668.00
26.6378 3666.00
26.942 3744.00
27.2463 3753.00
27.5505 3667.00
27.8548 3774.00
28.1591 3849.00
28.4633 3862.00
28.7676 3627.00
29.0718 3684.00
29.3761 3828.00
29.6804 3861.00
29.9846 3740.00
30.2889 3728.00
30.5931 3757.00
30.8974 3722.00
31.2017 3867.00
31.5059 3672.00
31.8102 3769.00
32.1144 4146.00
32.4187 4330.00
32.723 3665.00
33.0272 4976.00
33.3315 5072.00
33.6357 4121.00
33.94 3753.00
34.2443 4288.00
34.5485 16970.00
34.8528 6101.00
35.157 3852.00
35.4613 3898.00
35.7656 4178.00
36.0698 4358.00
36.3741 3756.00
36.6783 3645.00
36.9826 3583.00
37.2869 3620.00
37.5911 3635.00
37.8954 3690.00
38.1996 3771.00
38.5039 3953.00
38.8082 3623.00
39.1124 3623.00
39.4167 3724.00
39.7209 3700.00
40.0252 3748.00
40.3295 3582.00
40.6337 3814.00
40.938 3791.00
41.2422 4051.00
41.5465 3762.00
41.8508 3747.00
42.155 3533.00
42.4593 3788.00
42.7635 3774.00
43.0678 3667.00
43.3721 3669.00
43.6763 3608.00
43.9806 3637.00
44.2849 3590.00
44.5891 3626.00
44.8934 3686.00
45.1976 3516.00
45.5019 3455.00
45.8062 3476.00
46.1104 3611.00
46.4147 3511.00
46.7189 3629.00
47.0232 3651.00
47.3275 3638.00
47.6317 3575.00
47.936 3624.00
48.2402 3951.00
48.5445 3620.00
48.8488 4135.00
49.153 3788.00
49.4573 5485.00
49.7615 4778.00
50.0658 3670.00
50.3701 3588.00
50.6743 3456.00
50.9786 3559.00
51.2828 3534.00
51.5871 3472.00
51.8914 3541.00
52.1956 3555.00
52.4999 3483.00
52.8041 3592.00
53.1084 3802.00
53.4127 3614.00
53.7169 3570.00
54.0212 3629.00
54.3254 4683.00
54.6297 3644.00
54.934 3687.00
55.2382 3417.00
55.5425 3554.00
55.8467 3511.00
56.151 3606.00
56.4553 3725.00
56.7595 3541.00
57.0638 3519.00
57.368 3542.00
57.6723 3769.00
57.9766 3620.00
58.2808 3511.00
58.5851 3517.00
58.8893 3437.00
59.1936 3545.00
59.4979 3574.00
59.8021 3512.00
60.1064 3515.00
60.4106 3612.00
60.7149 3595.00
61.0192 3820.00
61.3234 3975.00
61.6277 5485.00
61.932 3862.00
62.2362 3611.00
62.5405 3833.00
62.8447 4075.00
63.149 3475.00
63.4533 3544.00
63.7575 3618.00
64.0618 3663.00
64.366 3983.00
64.6703 3558.00
64.9745 3647.00
65.2788 3452.00
65.5831 3758.00
65.8873 3544.00
66.1916 3360.00
66.4959 3617.00
66.8001 3379.00
67.1044 3530.00
67.4086 3369.00
67.7129 3447.00
68.0172 3457.00
68.3214 3348.00
68.6257 3449.00
68.9299 3445.00
69.2342 3590.00
69.5385 3432.00
69.8427 3670.00
70.147 3515.00
70.4512 3503.00
70.7555 3379.00
71.0598 3483.00
71.364 3386.00
71.6683 3402.00
71.9725 3522.00
72.2768 3731.00
72.5811 3691.00
72.8853 3467.00
73.1896 3534.00
73.4938 3398.00
73.7981 3428.00
74.1024 3456.00
74.4066 3427.00
74.7109 3476.00
75.0151 3422.00
75.3194 3454.00
75.6237 3589.00
75.9279 3583.00
76.2322 3584.00
76.5364 3484.00
76.8407 3377.00
77.145 3364.00
77.4492 3485.00
77.7535 3367.00
78.0577 3298.00
78.362 3407.00
78.6663 3428.00
78.9705 3386.00
79.2748 3334.00
79.579 3353.00
79.8833 3412.00
80.1876 3385.00
80.4918 3420.00
80.7961 3444.00
81.1003 3504.00
81.4046 3371.00
81.7089 3391.00
82.0131 3415.00
82.3174 3343.00
82.6217 3681.00
82.9259 3686.00
83.2302 3512.00
83.5344 3355.00
83.8387 3398.00
84.143 3432.00
84.4472 3472.00
84.7515 3368.00
85.0557 3555.00
85.36 3598.00
85.6643 3480.00
85.9685 3473.00
86.2728 3404.00
86.577 3468.00
86.8813 3475.00
87.1856 3406.00
87.4898 3432.00
87.7941 3464.00
88.0983 3497.00
88.4026 3359.00
88.7069 3437.00
89.0111 3380.00
89.3154 3366.00
89.6196 3418.00
89.9239 3396.00
90.2282 3408.00
90.5324 3431.00
90.8367 3368.00
91.1409 3436.00
91.4452 3444.00
91.7495 3401.00
92.0537 3376.00
92.358 3463.00
92.6622 3475.00
92.9665 3482.00
93.2708 3301.00
93.575 3294.00
93.8793 3578.00
94.1835 3476.00
94.4878 3373.00
94.7921 3341.00
95.0963 3373.00
95.4006 3454.00
95.7048 3497.00
96.0091 3461.00
96.3134 3414.00
96.6176 3466.00
96.9219 3336.00
97.2261 3453.00
97.5304 3399.00
97.8347 3460.00
98.1389 3448.00
98.4432 3373.00
98.7474 3427.00
99.0517 3326.00
99.356 3441.00
99.6602 3315.00
99.9645 3423.00
100.095 3275.00