Folder: alab-pipeline/data/xrd_creation/results (part 68)

File: NSC_182.xy
9.903433 3173.00
10.2077 3049.00
10.512 2927.00
10.8162 2893.00
11.1205 2848.00
11.4247 2783.00
11.729 2675.00
12.0333 2608.00
12.3375 2662.00
12.6418 2460.00
12.946 2571.00
13.2503 2433.00
13.5546 2470.00
13.8588 3277.00
14.1631 7134.00
14.4673 2428.00
14.7716 2333.00
15.0759 2415.00
15.3801 2345.00
15.6844 2293.00
15.9886 2217.00
16.2929 2294.00
16.5972 2307.00
16.9014 2266.00
17.2057 2226.00
17.5099 2132.00
17.8142 2123.00
18.1185 2103.00
18.4227 2037.00
18.727 1998.00
19.0312 2034.00
19.3355 2166.00
19.6398 3428.00
19.944 12334.00
20.2483 2173.00
20.5525 1945.00
20.8568 1873.00
21.1611 1851.00
21.4653 1927.00
21.7696 1875.00
22.0738 1955.00
22.3781 1955.00
22.6824 1940.00
22.9866 2211.00
23.2909 14715.00
23.5951 2128.00
23.8994 1949.00
24.2037 2547.00
24.5079 1854.00
24.8122 1828.00
25.1164 1748.00
25.4207 1857.00
25.725 1823.00
26.0292 1754.00
26.3335 1710.00
26.6378 1724.00
26.942 1734.00
27.2463 1709.00
27.5505 1782.00
27.8548 1912.00
28.1591 7735.00
28.4633 1812.00
28.7676 1774.00
29.0718 1594.00
29.3761 1720.00
29.6804 1643.00
29.9846 1668.00
30.2889 1699.00
30.5931 2285.00
30.8974 2352.00
31.2017 2837.00
31.5059 24303.00
31.8102 2461.00
32.1144 1590.00
32.4187 1635.00
32.723 1599.00
33.0272 1497.00
33.3315 1539.00
33.6357 1532.00
33.94 1593.00
34.2443 1694.00
34.5485 10114.00
34.8528 2137.00
35.157 1423.00
35.4613 1474.00
35.7656 1498.00
36.0698 1474.00
36.3741 1466.00
36.6783 1496.00
36.9826 1415.00
37.2869 1506.00
37.5911 1454.00
37.8954 1414.00
38.1996 1410.00
38.5039 1365.00
38.8082 1460.00
39.1124 1403.00
39.4167 1478.00
39.7209 1442.00
40.0252 1633.00
40.3295 1479.00
40.6337 1425.00
40.938 1522.00
41.2422 1557.00
41.5465 1461.00
41.8508 2142.00
42.155 2469.00
42.4593 1887.00
42.7635 1806.00
43.0678 1455.00
43.3721 1474.00
43.6763 1429.00
43.9806 1356.00
44.2849 1450.00
44.5891 1415.00
44.8934 1963.00
45.1976 1851.00
45.5019 1427.00
45.8062 1416.00
46.1104 1367.00
46.4147 1448.00
46.7189 1563.00
47.0232 1950.00
47.3275 11226.00
47.6317 1680.00
47.936 1379.00
48.2402 1431.00
48.5445 1446.00
48.8488 1437.00
49.153 1593.00
49.4573 2449.00
49.7615 1518.00
50.0658 1336.00
50.3701 1357.00
50.6743 1359.00
50.9786 1415.00
51.2828 2087.00
51.5871 3880.00
51.8914 1617.00
52.1956 1347.00
52.4999 1315.00
52.8041 1466.00
53.1084 1333.00
53.4127 1389.00
53.7169 2332.00
54.0212 2563.00
54.3254 1264.00
54.6297 1308.00
54.934 1253.00
55.2382 1397.00
55.5425 1504.00
55.8467 1280.00
56.151 1216.00
56.4553 1274.00
56.7595 1219.00
57.0638 1253.00
57.368 1221.00
57.6723 1211.00
57.9766 1328.00
58.2808 1223.00
58.5851 1287.00
58.8893 1264.00
59.1936 1314.00
59.4979 1745.00
59.8021 4898.00
60.1064 1430.00
60.4106 1335.00
60.7149 1277.00
61.0192 1263.00
61.3234 1537.00
61.6277 3044.00
61.932 1765.00
62.2362 1241.00
62.5405 1262.00
62.8447 1301.00
63.149 1566.00
63.4533 1790.00
63.7575 1206.00
64.0618 1105.00
64.366 1188.00
64.6703 1205.00
64.9745 1131.00
65.2788 1255.00
65.5831 1303.00
65.8873 1173.00
66.1916 1197.00
66.4959 1376.00
66.8001 1835.00
67.1044 1804.00
67.4086 1244.00
67.7129 1142.00
68.0172 1071.00
68.3214 1084.00
68.6257 1207.00
68.9299 1567.00
69.2342 1528.00
69.5385 1139.00
69.8427 1116.00
70.147 1207.00
70.4512 1242.00
70.7555 1055.00
71.0598 1071.00
71.364 1048.00
71.6683 1113.00
71.9725 1133.00
72.2768 1302.00
72.5811 2141.00
72.8853 1260.00
73.1896 1100.00
73.4938 1076.00
73.7981 1297.00
74.1024 1297.00
74.4066 1210.00
74.7109 1085.00
75.0151 1023.00
75.3194 1114.00
75.6237 1288.00
75.9279 1312.00
76.2322 1148.00
76.5364 1057.00
76.8407 1137.00
77.145 1161.00
77.4492 1122.00
77.7535 1206.00
78.0577 1094.00
78.362 1031.00
78.6663 1127.00
78.9705 983.00
79.2748 1132.00
79.579 1098.00
79.8833 1020.00
80.1876 1111.00
80.4918 1144.00
80.7961 1342.00
81.1003 1836.00
81.4046 1275.00
81.7089 1087.00
82.0131 1071.00
82.3174 1134.00
82.6217 1477.00
82.9259 1236.00
83.2302 1092.00
83.5344 1109.00
83.8387 1253.00
84.143 1100.00
84.4472 1052.00
84.7515 1074.00
85.0557 1062.00
85.36 983.00
85.6643 1137.00
85.9685 1113.00
86.2728 1068.00
86.577 1105.00
86.8813 1038.00
87.1856 1249.00
87.4898 1348.00
87.7941 1318.00
88.0983 1201.00
88.4026 1148.00
88.7069 1103.00
89.0111 1197.00
89.3154 1223.00
89.6196 1078.00
89.9239 1067.00
90.2282 1091.00
90.5324 1162.00
90.8367 1206.00
91.1409 1323.00
91.4452 1139.00
91.7495 1105.00
92.0537 1086.00
92.358 1180.00
92.6622 1367.00
92.9665 1221.00
93.2708 1080.00
93.575 1099.00
93.8793 1130.00
94.1835 1250.00
94.4878 1105.00
94.7921 1060.00
95.0963 1099.00
95.4006 1105.00
95.7048 1123.00
96.0091 1227.00
96.3134 1058.00
96.6176 1065.00
96.9219 1053.00
97.2261 1081.00
97.5304 1036.00
97.8347 1047.00
98.1389 1051.00
98.4432 1008.00
98.7474 1033.00
99.0517 1078.00
99.356 1040.00
99.6602 1030.00
99.9645 996.00
100.095 1011.00

File: NSC_183.xy
9.903433 2432.00
10.2077 2359.00
10.512 2258.00
10.8162 2190.00
11.1205 2148.00
11.4247 1943.00
11.729 1891.00
12.0333 1799.00
12.3375 1720.00
12.6418 1675.00
12.946 1600.00
13.2503 1568.00
13.5546 1499.00
13.8588 1457.00
14.1631 1408.00
14.4673 1303.00
14.7716 1320.00
15.0759 1295.00
15.3801 1221.00
15.6844 1265.00
15.9886 1197.00
16.2929 1206.00
16.5972 1209.00
16.9014 1175.00
17.2057 1184.00
17.5099 1118.00
17.8142 1090.00
18.1185 1071.00
18.4227 1028.00
18.727 1022.00
19.0312 956.00
19.3355 997.00
19.6398 894.00
19.944 862.00
20.2483 908.00
20.5525 895.00
20.8568 830.00
21.1611 841.00
21.4653 834.00
21.7696 831.00
22.0738 785.00
22.3781 785.00
22.6824 787.00
22.9866 792.00
23.2909 722.00
23.5951 759.00
23.8994 713.00
24.2037 684.00
24.5079 706.00
24.8122 702.00
25.1164 678.00
25.4207 658.00
25.725 676.00
26.0292 655.00
26.3335 647.00
26.6378 660.00
26.942 619.00
27.2463 645.00
27.5505 631.00
27.8548 586.00
28.1591 629.00
28.4633 621.00
28.7676 547.00
29.0718 572.00
29.3761 524.00
29.6804 582.00
29.9846 537.00
30.2889 543.00
30.5931 544.00
30.8974 488.00
31.2017 526.00
31.5059 552.00
31.8102 514.00
32.1144 533.00
32.4187 468.00
32.723 501.00
33.0272 451.00
33.3315 460.00
33.6357 467.00
33.94 415.00
34.2443 396.00
34.5485 420.00
34.8528 430.00
35.157 454.00
35.4613 365.00
35.7656 421.00
36.0698 410.00
36.3741 375.00
36.6783 395.00
36.9826 348.00
37.2869 413.00
37.5911 380.00
37.8954 369.00
38.1996 366.00
38.5039 338.00
38.8082 369.00
39.1124 362.00
39.4167 344.00
39.7209 336.00
40.0252 354.00
40.3295 362.00
40.6337 328.00
40.938 322.00
41.2422 334.00
41.5465 297.00
41.8508 362.00
42.155 317.00
42.4593 310.00
42.7635 297.00
43.0678 356.00
43.3721 306.00
43.6763 294.00
43.9806 285.00
44.2849 280.00
44.5891 310.00
44.8934 278.00
45.1976 302.00
45.5019 295.00
45.8062 267.00
46.1104 288.00
46.4147 276.00
46.7189 270.00
47.0232 266.00
47.3275 242.00
47.6317 263.00
47.936 231.00
48.2402 246.00
48.5445 240.00
48.8488 275.00
49.153 282.00
49.4573 292.00
49.7615 233.00
50.0658 230.00
50.3701 235.00
50.6743 243.00
50.9786 242.00
51.2828 246.00
51.5871 259.00
51.8914 241.00
52.1956 270.00
52.4999 239.00
52.8041 224.00
53.1084 244.00
53.4127 246.00
53.7169 230.00
54.0212 227.00
54.3254 246.00
54.6297 213.00
54.934 221.00
55.2382 235.00
55.5425 260.00
55.8467 212.00
56.151 219.00
56.4553 227.00
56.7595 226.00
57.0638 224.00
57.368 222.00
57.6723 208.00
57.9766 179.00
58.2808 205.00
58.5851 227.00
58.8893 238.00
59.1936 210.00
59.4979 198.00
59.8021 178.00
60.1064 211.00
60.4106 206.00
60.7149 211.00
61.0192 191.00
61.3234 192.00
61.6277 185.00
61.932 205.00
62.2362 219.00
62.5405 182.00
62.8447 235.00
63.149 191.00
63.4533 212.00
63.7575 184.00
64.0618 179.00
64.366 182.00
64.6703 185.00
64.9745 190.00
65.2788 206.00
65.5831 188.00
65.8873 177.00
66.1916 189.00
66.4959 160.00
66.8001 186.00
67.1044 191.00
67.4086 174.00
67.7129 217.00
68.0172 182.00
68.3214 194.00
68.6257 184.00
68.9299 154.00
69.2342 211.00
69.5385 210.00
69.8427 180.00
70.147 175.00
70.4512 170.00
70.7555 201.00
71.0598 174.00
71.364 174.00
71.6683 174.00
71.9725 192.00
72.2768 190.00
72.5811 208.00
72.8853 176.00
73.1896 169.00
73.4938 198.00
73.7981 215.00
74.1024 191.00
74.4066 233.00
74.7109 191.00
75.0151 205.00
75.3194 186.00
75.6237 203.00
75.9279 182.00
76.2322 221.00
76.5364 205.00
76.8407 218.00
77.145 201.00
77.4492 194.00
77.7535 221.00
78.0577 239.00
78.362 199.00
78.6663 197.00
78.9705 193.00
79.2748 217.00
79.579 193.00
79.8833 214.00
80.1876 218.00
80.4918 234.00
80.7961 229.00
81.1003 209.00
81.4046 222.00
81.7089 213.00
82.0131 214.00
82.3174 219.00
82.6217 242.00
82.9259 230.00
83.2302 220.00
83.5344 241.00
83.8387 249.00
84.143 207.00
84.4472 222.00
84.7515 217.00
85.0557 222.00
85.36 237.00
85.6643 193.00
85.9685 221.00
86.2728 219.00
86.577 188.00
86.8813 185.00
87.1856 197.00
87.4898 189.00
87.7941 205.00
88.0983 170.00
88.4026 171.00
88.7069 193.00
89.0111 200.00
89.3154 174.00
89.6196 205.00
89.9239 189.00
90.2282 185.00
90.5324 183.00
90.8367 217.00
91.1409 191.00
91.4452 187.00
91.7495 156.00
92.0537 191.00
92.358 172.00
92.6622 165.00
92.9665 182.00
93.2708 177.00
93.575 168.00
93.8793 175.00
94.1835 191.00
94.4878 177.00
94.7921 180.00
95.0963 189.00
95.4006 183.00
95.7048 180.00
96.0091 179.00
96.3134 211.00
96.6176 185.00
96.9219 207.00
97.2261 185.00
97.5304 177.00
97.8347 159.00
98.1389 194.00
98.4432 178.00
98.7474 153.00
99.0517 167.00
99.356 178.00
99.6602 172.00
99.9645 169.00
100.095 182.00

File: NSC_184.xy
9.903433 2751.00
10.2077 2501.00
10.512 2401.00
10.8162 2316.00
11.1205 2286.00
11.4247 2244.00
11.729 2141.00
12.0333 2109.00
12.3375 1961.00
12.6418 1862.00
12.946 1862.00
13.2503 1767.00
13.5546 1729.00
13.8588 1742.00
14.1631 1782.00
14.4673 1624.00
14.7716 1565.00
15.0759 1541.00
15.3801 1575.00
15.6844 1555.00
15.9886 1530.00
16.2929 1472.00
16.5972 1555.00
16.9014 1464.00
17.2057 1425.00
17.5099 1356.00
17.8142 1420.00
18.1185 1559.00
18.4227 1459.00
18.727 1356.00
19.0312 1318.00
19.3355 1376.00
19.6398 1343.00
19.944 1258.00
20.2483 1371.00
20.5525 2308.00
20.8568 2107.00
21.1611 1522.00
21.4653 1101.00
21.7696 1165.00
22.0738 1176.00
22.3781 1191.00
22.6824 1313.00
22.9866 1310.00
23.2909 1053.00
23.5951 1013.00
23.8994 1034.00
24.2037 985.00
24.5079 1020.00
24.8122 1045.00
25.1164 901.00
25.4207 936.00
25.725 903.00
26.0292 955.00
26.3335 982.00
26.6378 1455.00
26.942 1152.00
27.2463 860.00
27.5505 874.00
27.8548 831.00
28.1591 847.00
28.4633 825.00
28.7676 815.00
29.0718 785.00
29.3761 844.00
29.6804 750.00
29.9846 809.00
30.2889 845.00
30.5931 826.00
30.8974 769.00
31.2017 768.00
31.5059 783.00
31.8102 744.00
32.1144 865.00
32.4187 2089.00
32.723 9134.00
33.0272 914.00
33.3315 744.00
33.6357 767.00
33.94 706.00
34.2443 717.00
34.5485 1166.00
34.8528 705.00
35.157 640.00
35.4613 600.00
35.7656 616.00
36.0698 1039.00
36.3741 901.00
36.6783 1281.00
36.9826 564.00
37.2869 645.00
37.5911 958.00
37.8954 483.00
38.1996 523.00
38.5039 539.00
38.8082 596.00
39.1124 538.00
39.4167 1119.00
39.7209 844.00
40.0252 1415.00
40.3295 499.00
40.6337 445.00
40.938 495.00
41.2422 501.00
41.5465 472.00
41.8508 542.00
42.155 438.00
42.4593 444.00
42.7635 429.00
43.0678 468.00
43.3721 472.00
43.6763 631.00
43.9806 510.00
44.2849 454.00
44.5891 536.00
44.8934 1040.00
45.1976 420.00
45.5019 407.00
45.8062 371.00
46.1104 368.00
46.4147 393.00
46.7189 384.00
47.0232 413.00
47.3275 459.00
47.6317 572.00
47.936 409.00
48.2402 415.00
48.5445 381.00
48.8488 399.00
49.153 409.00
49.4573 389.00
49.7615 375.00
50.0658 516.00
50.3701 416.00
50.6743 337.00
50.9786 377.00
51.2828 493.00
51.5871 452.00
51.8914 586.00
52.1956 411.00
52.4999 373.00
52.8041 365.00
53.1084 536.00
53.4127 1150.00
53.7169 478.00
54.0212 423.00
54.3254 443.00
54.6297 768.00
54.934 1511.00
55.2382 582.00
55.5425 1501.00
55.8467 539.00
56.151 571.00
56.4553 552.00
56.7595 348.00
57.0638 332.00
57.368 392.00
57.6723 326.00
57.9766 338.00
58.2808 406.00
58.5851 426.00
58.8893 470.00
59.1936 362.00
59.4979 376.00
59.8021 364.00
60.1064 380.00
60.4106 392.00
60.7149 493.00
61.0192 390.00
61.3234 376.00
61.6277 369.00
61.932 373.00
62.2362 354.00
62.5405 338.00
62.8447 408.00
63.149 845.00
63.4533 701.00
63.7575 364.00
64.0618 342.00
64.366 721.00
64.6703 1041.00
64.9745 450.00
65.2788 337.00
65.5831 457.00
65.8873 452.00
66.1916 369.00
66.4959 282.00
66.8001 424.00
67.1044 936.00
67.4086 700.00
67.7129 385.00
68.0172 392.00
68.3214 761.00
68.6257 365.00
68.9299 381.00
69.2342 274.00
69.5385 300.00
69.8427 289.00
70.147 338.00
70.4512 283.00
70.7555 343.00
71.0598 372.00
71.364 296.00
71.6683 258.00
71.9725 260.00
72.2768 227.00
72.5811 263.00
72.8853 299.00
73.1896 260.00
73.4938 288.00
73.7981 246.00
74.1024 266.00
74.4066 258.00
74.7109 200.00
75.0151 285.00
75.3194 292.00
75.6237 273.00
75.9279 272.00
76.2322 260.00
76.5364 304.00
76.8407 269.00
77.145 242.00
77.4492 277.00
77.7535 273.00
78.0577 264.00
78.362 350.00
78.6663 289.00
78.9705 244.00
79.2748 233.00
79.579 283.00
79.8833 279.00
80.1876 303.00
80.4918 273.00
80.7961 238.00
81.1003 238.00
81.4046 245.00
81.7089 239.00
82.0131 278.00
82.3174 286.00
82.6217 280.00
82.9259 236.00
83.2302 234.00
83.5344 237.00
83.8387 281.00
84.143 303.00
84.4472 294.00
84.7515 353.00
85.0557 314.00
85.36 302.00
85.6643 263.00
85.9685 250.00
86.2728 226.00
86.577 228.00
86.8813 230.00
87.1856 329.00
87.4898 319.00
87.7941 463.00
88.0983 325.00
88.4026 264.00
88.7069 224.00
89.0111 223.00
89.3154 354.00
89.6196 355.00
89.9239 329.00
90.2282 446.00
90.5324 418.00
90.8367 347.00
91.1409 496.00
91.4452 489.00
91.7495 322.00
92.0537 307.00
92.358 265.00
92.6622 250.00
92.9665 260.00
93.2708 235.00
93.575 256.00
93.8793 198.00
94.1835 235.00
94.4878 265.00
94.7921 241.00
95.0963 203.00
95.4006 258.00
95.7048 267.00
96.0091 318.00
96.3134 320.00
96.6176 293.00
96.9219 287.00
97.2261 244.00
97.5304 210.00
97.8347 227.00
98.1389 221.00
98.4432 233.00
98.7474 216.00
99.0517 234.00
99.356 209.00
99.6602 235.00
99.9645 214.00
100.095 227.00

File: NSC_185.xy
9.903433 2547.00
10.2077 2532.00
10.512 2335.00
10.8162 2348.00
11.1205 2234.00
11.4247 2147.00
11.729 2108.00
12.0333 2088.00
12.3375 2031.00
12.6418 1939.00
12.946 1864.00
13.2503 1856.00
13.5546 1787.00
13.8588 1773.00
14.1631 1721.00
14.4673 1625.00
14.7716 1746.00
15.0759 1664.00
15.3801 1597.00
15.6844 1639.00
15.9886 1749.00
16.2929 2544.00
16.5972 5406.00
16.9014 1897.00
17.2057 2311.00
17.5099 1496.00
17.8142 1445.00
18.1185 1411.00
18.4227 1352.00
18.727 1339.00
19.0312 1225.00
19.3355 1387.00
19.6398 1233.00
19.944 1249.00
20.2483 1259.00
20.5525 1107.00
20.8568 1101.00
21.1611 1163.00
21.4653 1142.00
21.7696 1416.00
22.0738 1183.00
22.3781 1040.00
22.6824 1091.00
22.9866 1007.00
23.2909 1017.00
23.5951 1024.00
23.8994 1015.00
24.2037 922.00
24.5079 954.00
24.8122 909.00
25.1164 944.00
25.4207 1684.00
25.725 925.00
26.0292 905.00
26.3335 896.00
26.6378 883.00
26.942 806.00
27.2463 790.00
27.5505 805.00
27.8548 792.00
28.1591 845.00
28.4633 752.00
28.7676 750.00
29.0718 777.00
29.3761 835.00
29.6804 3028.00
29.9846 926.00
30.2889 807.00
30.5931 1077.00
30.8974 6347.00
31.2017 1350.00
31.5059 763.00
31.8102 700.00
32.1144 748.00
32.4187 844.00
32.723 3049.00
33.0272 1778.00
33.3315 883.00
33.6357 824.00
33.94 1208.00
34.2443 2826.00
34.5485 791.00
34.8528 655.00
35.157 1694.00
35.4613 928.00
35.7656 2243.00
36.0698 849.00
36.3741 598.00
36.6783 558.00
36.9826 579.00
37.2869 650.00
37.5911 2031.00
37.8954 689.00
38.1996 824.00
38.5039 585.00
38.8082 753.00
39.1124 2468.00
39.4167 2832.00
39.7209 647.00
40.0252 599.00
40.3295 555.00
40.6337 499.00
40.938 479.00
41.2422 473.00
41.5465 521.00
41.8508 536.00
42.155 736.00
42.4593 632.00
42.7635 1284.00
43.0678 546.00
43.3721 494.00
43.6763 494.00
43.9806 445.00
44.2849 462.00
44.5891 458.00
44.8934 402.00
45.1976 414.00
45.5019 458.00
45.8062 594.00
46.1104 930.00
46.4147 466.00
46.7189 445.00
47.0232 399.00
47.3275 458.00
47.6317 377.00
47.936 378.00
48.2402 487.00
48.5445 991.00
48.8488 418.00
49.153 410.00
49.4573 437.00
49.7615 649.00
50.0658 482.00
50.3701 552.00
50.6743 498.00
50.9786 1072.00
51.2828 2282.00
51.5871 1160.00
51.8914 493.00
52.1956 512.00
52.4999 1170.00
52.8041 440.00
53.1084 479.00
53.4127 381.00
53.7169 380.00
54.0212 389.00
54.3254 359.00
54.6297 388.00
54.934 380.00
55.2382 403.00
55.5425 614.00
55.8467 1649.00
56.151 662.00
56.4553 548.00
56.7595 457.00
57.0638 931.00
57.368 1258.00
57.6723 408.00
57.9766 416.00
58.2808 352.00
58.5851 352.00
58.8893 333.00
59.1936 346.00
59.4979 680.00
59.8021 1047.00
60.1064 786.00
60.4106 463.00
60.7149 646.00
61.0192 1827.00
61.3234 622.00
61.6277 384.00
61.932 324.00
62.2362 381.00
62.5405 588.00
62.8447 336.00
63.149 345.00
63.4533 332.00
63.7575 386.00
64.0618 625.00
64.366 438.00
64.6703 497.00
64.9745 358.00
65.2788 369.00
65.5831 442.00
65.8873 824.00
66.1916 1198.00
66.4959 581.00
66.8001 390.00
67.1044 556.00
67.4086 1011.00
67.7129 727.00
68.0172 570.00
68.3214 696.00
68.6257 485.00
68.9299 490.00
69.2342 353.00
69.5385 311.00
69.8427 359.00
70.147 335.00
70.4512 327.00
70.7555 321.00
71.0598 424.00
71.364 761.00
71.6683 545.00
71.9725 555.00
72.2768 357.00
72.5811 325.00
72.8853 274.00
73.1896 281.00
73.4938 337.00
73.7981 478.00
74.1024 451.00
74.4066 327.00
74.7109 283.00
75.0151 338.00
75.3194 431.00
75.6237 388.00
75.9279 276.00
76.2322 357.00
76.5364 413.00
76.8407 432.00
77.145 269.00
77.4492 290.00
77.7535 249.00
78.0577 369.00
78.362 314.00
78.6663 265.00
78.9705 323.00
79.2748 486.00
79.579 514.00
79.8833 420.00
80.1876 380.00
80.4918 344.00
80.7961 357.00
81.1003 343.00
81.4046 328.00
81.7089 256.00
82.0131 429.00
82.3174 409.00
82.6217 310.00
82.9259 307.00
83.2302 396.00
83.5344 646.00
83.8387 610.00
84.143 434.00
84.4472 401.00
84.7515 316.00
85.0557 258.00
85.36 275.00
85.6643 283.00
85.9685 420.00
86.2728 392.00
86.577 301.00
86.8813 351.00
87.1856 411.00
87.4898 531.00
87.7941 360.00
88.0983 306.00
88.4026 301.00
88.7069 439.00
89.0111 391.00
89.3154 308.00
89.6196 328.00
89.9239 335.00
90.2282 376.00
90.5324 290.00
90.8367 303.00
91.1409 391.00
91.4452 357.00
91.7495 265.00
92.0537 263.00
92.358 287.00
92.6622 389.00
92.9665 433.00
93.2708 346.00
93.575 334.00
93.8793 447.00
94.1835 345.00
94.4878 476.00
94.7921 421.00
95.0963 428.00
95.4006 608.00
95.7048 476.00
96.0091 332.00
96.3134 342.00
96.6176 363.00
96.9219 406.00
97.2261 381.00
97.5304 514.00
97.8347 558.00
98.1389 481.00
98.4432 372.00
98.7474 300.00
99.0517 294.00
99.356 385.00
99.6602 335.00
99.9645 407.00
100.095 351.00

File: NSC_186.xy
9.903433 2719.00
10.2077 2583.00
10.512 2455.00
10.8162 2377.00
11.1205 2281.00
11.4247 2127.00
11.729 2071.00
12.0333 1976.00
12.3375 2005.00
12.6418 1937.00
12.946 1796.00
13.2503 1745.00
13.5546 1757.00
13.8588 1716.00
14.1631 1664.00
14.4673 1649.00
14.7716 1570.00
15.0759 1531.00
15.3801 1575.00
15.6844 1562.00
15.9886 1579.00
16.2929 1584.00
16.5972 1917.00
16.9014 3721.00
17.2057 2408.00
17.5099 1568.00
17.8142 1515.00
18.1185 1348.00
18.4227 1343.00
18.727 1364.00
19.0312 1309.00
19.3355 1304.00
19.6398 1300.00
19.944 1343.00
20.2483 1566.00
20.5525 4629.00
20.8568 14758.00
21.1611 3125.00
21.4653 1343.00
21.7696 1316.00
22.0738 1264.00
22.3781 1248.00
22.6824 1177.00
22.9866 1170.00
23.2909 1140.00
23.5951 1159.00
23.8994 1177.00
24.2037 1088.00
24.5079 1119.00
24.8122 1482.00
25.1164 3252.00
25.4207 1397.00
25.725 1078.00
26.0292 1201.00
26.3335 1208.00
26.6378 1280.00
26.942 1321.00
27.2463 1163.00
27.5505 977.00
27.8548 1024.00
28.1591 962.00
28.4633 994.00
28.7676 1062.00
29.0718 1331.00
29.3761 6531.00
29.6804 7307.00
29.9846 1205.00
30.2889 1025.00
30.5931 945.00
30.8974 1064.00
31.2017 934.00
31.5059 929.00
31.8102 910.00
32.1144 863.00
32.4187 889.00
32.723 876.00
33.0272 891.00
33.3315 1147.00
33.6357 1237.00
33.94 2603.00
34.2443 20144.00
34.5485 12415.00
34.8528 4269.00
35.157 4742.00
35.4613 1308.00
35.7656 2161.00
36.0698 3046.00
36.3741 1346.00
36.6783 1217.00
36.9826 1423.00
37.2869 4780.00
37.5911 2576.00
37.8954 1012.00
38.1996 878.00
38.5039 921.00
38.8082 931.00
39.1124 1257.00
39.4167 861.00
39.7209 770.00
40.0252 916.00
40.3295 2010.00
40.6337 2324.00
40.938 829.00
41.2422 778.00
41.5465 759.00
41.8508 724.00
42.155 777.00
42.4593 895.00
42.7635 719.00
43.0678 729.00
43.3721 743.00
43.6763 780.00
43.9806 773.00
44.2849 730.00
44.5891 680.00
44.8934 747.00
45.1976 723.00
45.5019 938.00
45.8062 1405.00
46.1104 855.00
46.4147 661.00
46.7189 722.00
47.0232 756.00
47.3275 762.00
47.6317 770.00
47.936 1113.00
48.2402 3221.00
48.5445 1237.00
48.8488 881.00
49.153 3221.00
49.4573 3544.00
49.7615 1784.00
50.0658 758.00
50.3701 740.00
50.6743 809.00
50.9786 757.00
51.2828 837.00
51.5871 1007.00
51.8914 1025.00
52.1956 3684.00
52.4999 2103.00
52.8041 883.00
53.1084 748.00
53.4127 732.00
53.7169 1078.00
54.0212 2486.00
54.3254 1046.00
54.6297 754.00
54.934 720.00
55.2382 666.00
55.5425 693.00
55.8467 902.00
56.151 770.00
56.4553 749.00
56.7595 801.00
57.0638 792.00
57.368 688.00
57.6723 698.00
57.9766 658.00
58.2808 701.00
58.5851 685.00
58.8893 798.00
59.1936 645.00
59.4979 714.00
59.8021 740.00
60.1064 935.00
60.4106 1222.00
60.7149 939.00
61.0192 2058.00
61.3234 8318.00
61.6277 4046.00
61.932 1021.00
62.2362 804.00
62.5405 837.00
62.8447 757.00
63.149 670.00
63.4533 726.00
63.7575 673.00
64.0618 942.00
64.366 1742.00
64.6703 1023.00
64.9745 751.00
65.2788 1347.00
65.5831 3378.00
65.8873 3952.00
66.1916 1424.00
66.4959 633.00
66.8001 602.00
67.1044 798.00
67.4086 693.00
67.7129 644.00
68.0172 675.00
68.3214 812.00
68.6257 662.00
68.9299 544.00
69.2342 553.00
69.5385 568.00
69.8427 513.00
70.147 529.00
70.4512 548.00
70.7555 518.00
71.0598 524.00
71.364 558.00
71.6683 729.00
71.9725 1435.00
72.2768 1679.00
72.5811 748.00
72.8853 628.00
73.1896 618.00
73.4938 665.00
73.7981 782.00
74.1024 591.00
74.4066 514.00
74.7109 605.00
75.0151 644.00
75.3194 530.00
75.6237 682.00
75.9279 1258.00
76.2322 1189.00
76.5364 660.00
76.8407 502.00
77.145 462.00
77.4492 512.00
77.7535 523.00
78.0577 548.00
78.362 514.00
78.6663 530.00
78.9705 500.00
79.2748 630.00
79.579 662.00
79.8833 521.00
80.1876 522.00
80.4918 500.00
80.7961 551.00
81.1003 569.00
81.4046 529.00
81.7089 623.00
82.0131 988.00
82.3174 2061.00
82.6217 1362.00
82.9259 638.00
83.2302 486.00
83.5344 524.00
83.8387 593.00
84.143 635.00
84.4472 700.00
84.7515 524.00
85.0557 507.00
85.36 473.00
85.6643 519.00
85.9685 695.00
86.2728 636.00
86.577 632.00
86.8813 733.00
87.1856 1364.00
87.4898 1252.00
87.7941 709.00
88.0983 621.00
88.4026 804.00
88.7069 740.00
89.0111 572.00
89.3154 493.00
89.6196 494.00
89.9239 427.00
90.2282 464.00
90.5324 467.00
90.8367 544.00
91.1409 585.00
91.4452 483.00
91.7495 496.00
92.0537 673.00
92.358 685.00
92.6622 593.00
92.9665 519.00
93.2708 467.00
93.575 458.00
93.8793 467.00
94.1835 435.00
94.4878 462.00
94.7921 450.00
95.0963 465.00
95.4006 486.00
95.7048 584.00
96.0091 822.00
96.3134 724.00
96.6176 596.00
96.9219 511.00
97.2261 482.00
97.5304 494.00
97.8347 476.00
98.1389 487.00
98.4432 508.00
98.7474 473.00
99.0517 533.00
99.356 558.00
99.6602 504.00
99.9645 444.00
100.095 471.00