Folder: alab-pipeline/data/xrd_creation/results (part 47)

File: NSC_66.xy
9.903433 2700.00
10.2077 2461.00
10.512 2479.00
10.8162 2222.00
11.1205 2118.00
11.4247 2079.00
11.729 2143.00
12.0333 1977.00
12.3375 1839.00
12.6418 1797.00
12.946 1774.00
13.2503 1727.00
13.5546 1672.00
13.8588 1587.00
14.1631 1442.00
14.4673 1508.00
14.7716 1426.00
15.0759 1415.00
15.3801 1415.00
15.6844 1399.00
15.9886 1358.00
16.2929 1295.00
16.5972 1300.00
16.9014 1280.00
17.2057 1309.00
17.5099 1230.00
17.8142 1179.00
18.1185 1141.00
18.4227 1086.00
18.727 1223.00
19.0312 1283.00
19.3355 1200.00
19.6398 1276.00
19.944 3289.00
20.2483 2174.00
20.5525 1267.00
20.8568 3083.00
21.1611 1394.00
21.4653 1155.00
21.7696 1026.00
22.0738 905.00
22.3781 915.00
22.6824 874.00
22.9866 937.00
23.2909 891.00
23.5951 900.00
23.8994 1314.00
24.2037 1002.00
24.5079 855.00
24.8122 748.00
25.1164 777.00
25.4207 790.00
25.725 764.00
26.0292 843.00
26.3335 1346.00
26.6378 1216.00
26.942 765.00
27.2463 797.00
27.5505 732.00
27.8548 693.00
28.1591 714.00
28.4633 654.00
28.7676 747.00
29.0718 724.00
29.3761 713.00
29.6804 800.00
29.9846 692.00
30.2889 728.00
30.5931 704.00
30.8974 649.00
31.2017 631.00
31.5059 639.00
31.8102 620.00
32.1144 739.00
32.4187 1063.00
32.723 1864.00
33.0272 3132.00
33.3315 1569.00
33.6357 839.00
33.94 1057.00
34.2443 1823.00
34.5485 2094.00
34.8528 830.00
35.157 910.00
35.4613 796.00
35.7656 693.00
36.0698 525.00
36.3741 563.00
36.6783 656.00
36.9826 761.00
37.2869 679.00
37.5911 563.00
37.8954 532.00
38.1996 619.00
38.5039 876.00
38.8082 678.00
39.1124 567.00
39.4167 532.00
39.7209 492.00
40.0252 522.00
40.3295 526.00
40.6337 524.00
40.938 523.00
41.2422 504.00
41.5465 455.00
41.8508 475.00
42.155 488.00
42.4593 651.00
42.7635 1363.00
43.0678 1145.00
43.3721 711.00
43.6763 687.00
43.9806 498.00
44.2849 447.00
44.5891 480.00
44.8934 487.00
45.1976 471.00
45.5019 457.00
45.8062 504.00
46.1104 406.00
46.4147 403.00
46.7189 368.00
47.0232 493.00
47.3275 631.00
47.6317 488.00
47.936 484.00
48.2402 423.00
48.5445 348.00
48.8488 411.00
49.153 589.00
49.4573 516.00
49.7615 453.00
50.0658 436.00
50.3701 374.00
50.6743 352.00
50.9786 362.00
51.2828 371.00
51.5871 320.00
51.8914 414.00
52.1956 400.00
52.4999 342.00
52.8041 350.00
53.1084 330.00
53.4127 358.00
53.7169 369.00
54.0212 351.00
54.3254 395.00
54.6297 375.00
54.934 400.00
55.2382 393.00
55.5425 354.00
55.8467 335.00
56.151 328.00
56.4553 339.00
56.7595 334.00
57.0638 343.00
57.368 318.00
57.6723 330.00
57.9766 334.00
58.2808 306.00
58.5851 326.00
58.8893 460.00
59.1936 516.00
59.4979 420.00
59.8021 375.00
60.1064 324.00
60.4106 327.00
60.7149 284.00
61.0192 305.00
61.3234 428.00
61.6277 458.00
61.932 448.00
62.2362 923.00
62.5405 457.00
62.8447 331.00
63.149 357.00
63.4533 295.00
63.7575 299.00
64.0618 285.00
64.366 265.00
64.6703 271.00
64.9745 262.00
65.2788 400.00
65.5831 369.00
65.8873 302.00
66.1916 275.00
66.4959 259.00
66.8001 244.00
67.1044 275.00
67.4086 236.00
67.7129 221.00
68.0172 223.00
68.3214 242.00
68.6257 261.00
68.9299 263.00
69.2342 262.00
69.5385 346.00
69.8427 302.00
70.147 329.00
70.4512 270.00
70.7555 226.00
71.0598 250.00
71.364 230.00
71.6683 264.00
71.9725 249.00
72.2768 301.00
72.5811 337.00
72.8853 302.00
73.1896 290.00
73.4938 261.00
73.7981 241.00
74.1024 283.00
74.4066 266.00
74.7109 339.00
75.0151 278.00
75.3194 279.00
75.6237 250.00
75.9279 280.00
76.2322 286.00
76.5364 272.00
76.8407 265.00
77.145 236.00
77.4492 231.00
77.7535 250.00
78.0577 277.00
78.362 291.00
78.6663 352.00
78.9705 304.00
79.2748 292.00
79.579 270.00
79.8833 245.00
80.1876 242.00
80.4918 223.00
80.7961 237.00
81.1003 238.00
81.4046 262.00
81.7089 233.00
82.0131 257.00
82.3174 276.00
82.6217 305.00
82.9259 306.00
83.2302 256.00
83.5344 281.00
83.8387 270.00
84.143 237.00
84.4472 269.00
84.7515 258.00
85.0557 309.00
85.36 246.00
85.6643 257.00
85.9685 228.00
86.2728 275.00
86.577 293.00
86.8813 247.00
87.1856 245.00
87.4898 225.00
87.7941 242.00
88.0983 246.00
88.4026 215.00
88.7069 237.00
89.0111 239.00
89.3154 256.00
89.6196 214.00
89.9239 204.00
90.2282 220.00
90.5324 217.00
90.8367 222.00
91.1409 202.00
91.4452 214.00
91.7495 196.00
92.0537 213.00
92.358 219.00
92.6622 213.00
92.9665 224.00
93.2708 220.00
93.575 216.00
93.8793 224.00
94.1835 263.00
94.4878 259.00
94.7921 219.00
95.0963 217.00
95.4006 210.00
95.7048 236.00
96.0091 199.00
96.3134 211.00
96.6176 203.00
96.9219 238.00
97.2261 214.00
97.5304 201.00
97.8347 235.00
98.1389 244.00
98.4432 216.00
98.7474 223.00
99.0517 226.00
99.356 189.00
99.6602 195.00
99.9645 219.00
100.095 233.00

File: NSC_67.xy
9.903433 2695.00
10.2077 2606.00
10.512 2490.00
10.8162 2318.00
11.1205 2347.00
11.4247 2146.00
11.729 2146.00
12.0333 1997.00
12.3375 1904.00
12.6418 1806.00
12.946 1787.00
13.2503 1798.00
13.5546 1741.00
13.8588 1562.00
14.1631 1622.00
14.4673 1546.00
14.7716 1410.00
15.0759 1381.00
15.3801 1391.00
15.6844 1322.00
15.9886 1430.00
16.2929 1312.00
16.5972 1256.00
16.9014 1260.00
17.2057 1243.00
17.5099 1180.00
17.8142 1178.00
18.1185 1092.00
18.4227 1108.00
18.727 1141.00
19.0312 1076.00
19.3355 1081.00
19.6398 1118.00
19.944 1075.00
20.2483 1082.00
20.5525 1002.00
20.8568 2314.00
21.1611 1488.00
21.4653 1063.00
21.7696 927.00
22.0738 809.00
22.3781 889.00
22.6824 846.00
22.9866 822.00
23.2909 858.00
23.5951 853.00
23.8994 920.00
24.2037 954.00
24.5079 777.00
24.8122 801.00
25.1164 816.00
25.4207 826.00
25.725 955.00
26.0292 792.00
26.3335 699.00
26.6378 741.00
26.942 726.00
27.2463 697.00
27.5505 754.00
27.8548 690.00
28.1591 772.00
28.4633 637.00
28.7676 678.00
29.0718 677.00
29.3761 643.00
29.6804 663.00
29.9846 669.00
30.2889 612.00
30.5931 652.00
30.8974 572.00
31.2017 595.00
31.5059 555.00
31.8102 533.00
32.1144 553.00
32.4187 691.00
32.723 629.00
33.0272 589.00
33.3315 596.00
33.6357 557.00
33.94 594.00
34.2443 996.00
34.5485 1428.00
34.8528 925.00
35.157 633.00
35.4613 548.00
35.7656 476.00
36.0698 442.00
36.3741 461.00
36.6783 484.00
36.9826 482.00
37.2869 431.00
37.5911 416.00
37.8954 427.00
38.1996 437.00
38.5039 462.00
38.8082 400.00
39.1124 446.00
39.4167 407.00
39.7209 400.00
40.0252 416.00
40.3295 478.00
40.6337 430.00
40.938 420.00
41.2422 399.00
41.5465 360.00
41.8508 398.00
42.155 394.00
42.4593 452.00
42.7635 477.00
43.0678 449.00
43.3721 372.00
43.6763 380.00
43.9806 323.00
44.2849 374.00
44.5891 384.00
44.8934 375.00
45.1976 358.00
45.5019 343.00
45.8062 358.00
46.1104 325.00
46.4147 336.00
46.7189 372.00
47.0232 357.00
47.3275 341.00
47.6317 331.00
47.936 328.00
48.2402 331.00
48.5445 289.00
48.8488 338.00
49.153 423.00
49.4573 417.00
49.7615 330.00
50.0658 396.00
50.3701 325.00
50.6743 303.00
50.9786 279.00
51.2828 281.00
51.5871 291.00
51.8914 293.00
52.1956 313.00
52.4999 312.00
52.8041 305.00
53.1084 306.00
53.4127 304.00
53.7169 270.00
54.0212 286.00
54.3254 289.00
54.6297 279.00
54.934 297.00
55.2382 301.00
55.5425 289.00
55.8467 278.00
56.151 280.00
56.4553 283.00
56.7595 299.00
57.0638 277.00
57.368 283.00
57.6723 246.00
57.9766 242.00
58.2808 259.00
58.5851 273.00
58.8893 260.00
59.1936 278.00
59.4979 220.00
59.8021 261.00
60.1064 249.00
60.4106 236.00
60.7149 215.00
61.0192 264.00
61.3234 289.00
61.6277 352.00
61.932 325.00
62.2362 294.00
62.5405 261.00
62.8447 240.00
63.149 233.00
63.4533 227.00
63.7575 213.00
64.0618 224.00
64.366 237.00
64.6703 217.00
64.9745 198.00
65.2788 232.00
65.5831 215.00
65.8873 195.00
66.1916 234.00
66.4959 234.00
66.8001 238.00
67.1044 220.00
67.4086 239.00
67.7129 237.00
68.0172 260.00
68.3214 200.00
68.6257 227.00
68.9299 225.00
69.2342 245.00
69.5385 211.00
69.8427 193.00
70.147 221.00
70.4512 219.00
70.7555 235.00
71.0598 222.00
71.364 203.00
71.6683 204.00
71.9725 206.00
72.2768 197.00
72.5811 265.00
72.8853 228.00
73.1896 203.00
73.4938 246.00
73.7981 256.00
74.1024 232.00
74.4066 197.00
74.7109 217.00
75.0151 246.00
75.3194 222.00
75.6237 233.00
75.9279 214.00
76.2322 236.00
76.5364 221.00
76.8407 205.00
77.145 208.00
77.4492 226.00
77.7535 261.00
78.0577 216.00
78.362 269.00
78.6663 243.00
78.9705 223.00
79.2748 216.00
79.579 219.00
79.8833 215.00
80.1876 237.00
80.4918 238.00
80.7961 213.00
81.1003 194.00
81.4046 268.00
81.7089 225.00
82.0131 248.00
82.3174 238.00
82.6217 263.00
82.9259 277.00
83.2302 216.00
83.5344 262.00
83.8387 234.00
84.143 225.00
84.4472 258.00
84.7515 267.00
85.0557 237.00
85.36 233.00
85.6643 221.00
85.9685 234.00
86.2728 209.00
86.577 201.00
86.8813 257.00
87.1856 208.00
87.4898 198.00
87.7941 218.00
88.0983 218.00
88.4026 192.00
88.7069 209.00
89.0111 222.00
89.3154 216.00
89.6196 222.00
89.9239 205.00
90.2282 174.00
90.5324 204.00
90.8367 197.00
91.1409 180.00
91.4452 175.00
91.7495 197.00
92.0537 203.00
92.358 189.00
92.6622 213.00
92.9665 198.00
93.2708 206.00
93.575 199.00
93.8793 199.00
94.1835 185.00
94.4878 194.00
94.7921 189.00
95.0963 200.00
95.4006 198.00
95.7048 210.00
96.0091 179.00
96.3134 193.00
96.6176 205.00
96.9219 217.00
97.2261 204.00
97.5304 200.00
97.8347 234.00
98.1389 171.00
98.4432 178.00
98.7474 174.00
99.0517 181.00
99.356 176.00
99.6602 209.00
99.9645 179.00
100.095 205.00

File: NSC_69.xy
9.903433 2780.00
10.2077 2747.00
10.512 2623.00
10.8162 2615.00
11.1205 2416.00
11.4247 2242.00
11.729 2223.00
12.0333 2058.00
12.3375 2077.00
12.6418 2054.00
12.946 1977.00
13.2503 2028.00
13.5546 1939.00
13.8588 1858.00
14.1631 1822.00
14.4673 1713.00
14.7716 1689.00
15.0759 1703.00
15.3801 1611.00
15.6844 1572.00
15.9886 1689.00
16.2929 2013.00
16.5972 1562.00
16.9014 1655.00
17.2057 1611.00
17.5099 1601.00
17.8142 1456.00
18.1185 1469.00
18.4227 1397.00
18.727 1489.00
19.0312 1796.00
19.3355 1743.00
19.6398 1832.00
19.944 2414.00
20.2483 7035.00
20.5525 2520.00
20.8568 2210.00
21.1611 4786.00
21.4653 1631.00
21.7696 1644.00
22.0738 1281.00
22.3781 1183.00
22.6824 1169.00
22.9866 1202.00
23.2909 1412.00
23.5951 1231.00
23.8994 1390.00
24.2037 2524.00
24.5079 1346.00
24.8122 991.00
25.1164 1011.00
25.4207 1028.00
25.725 1131.00
26.0292 1325.00
26.3335 1813.00
26.6378 4447.00
26.942 4477.00
27.2463 1206.00
27.5505 1390.00
27.8548 1128.00
28.1591 976.00
28.4633 949.00
28.7676 974.00
29.0718 1186.00
29.3761 1081.00
29.6804 1216.00
29.9846 1173.00
30.2889 1022.00
30.5931 1330.00
30.8974 1119.00
31.2017 969.00
31.5059 931.00
31.8102 919.00
32.1144 995.00
32.4187 1423.00
32.723 2607.00
33.0272 5232.00
33.3315 8485.00
33.6357 2584.00
33.94 3322.00
34.2443 4307.00
34.5485 4084.00
34.8528 3540.00
35.157 1629.00
35.4613 1853.00
35.7656 1301.00
36.0698 1272.00
36.3741 903.00
36.6783 863.00
36.9826 1459.00
37.2869 1573.00
37.5911 1251.00
37.8954 1172.00
38.1996 1683.00
38.5039 1484.00
38.8082 1974.00
39.1124 1281.00
39.4167 1035.00
39.7209 873.00
40.0252 865.00
40.3295 949.00
40.6337 848.00
40.938 899.00
41.2422 1004.00
41.5465 835.00
41.8508 788.00
42.155 721.00
42.4593 934.00
42.7635 1518.00
43.0678 3886.00
43.3721 1554.00
43.6763 1432.00
43.9806 1361.00
44.2849 821.00
44.5891 829.00
44.8934 948.00
45.1976 1004.00
45.5019 813.00
45.8062 889.00
46.1104 890.00
46.4147 726.00
46.7189 691.00
47.0232 775.00
47.3275 1249.00
47.6317 1442.00
47.936 909.00
48.2402 880.00
48.5445 714.00
48.8488 671.00
49.153 866.00
49.4573 1325.00
49.7615 935.00
50.0658 927.00
50.3701 735.00
50.6743 704.00
50.9786 567.00
51.2828 592.00
51.5871 778.00
51.8914 2247.00
52.1956 2077.00
52.4999 1031.00
52.8041 686.00
53.1084 698.00
53.4127 706.00
53.7169 769.00
54.0212 789.00
54.3254 712.00
54.6297 966.00
54.934 1338.00
55.2382 955.00
55.5425 717.00
55.8467 647.00
56.151 743.00
56.4553 679.00
56.7595 724.00
57.0638 677.00
57.368 674.00
57.6723 705.00
57.9766 796.00
58.2808 758.00
58.5851 741.00
58.8893 794.00
59.1936 1247.00
59.4979 1465.00
59.8021 1054.00
60.1064 782.00
60.4106 675.00
60.7149 609.00
61.0192 635.00
61.3234 733.00
61.6277 1038.00
61.932 1335.00
62.2362 1679.00
62.5405 2749.00
62.8447 922.00
63.149 881.00
63.4533 708.00
63.7575 659.00
64.0618 639.00
64.366 567.00
64.6703 676.00
64.9745 1041.00
65.2788 853.00
65.5831 1073.00
65.8873 973.00
66.1916 1204.00
66.4959 668.00
66.8001 502.00
67.1044 485.00
67.4086 470.00
67.7129 469.00
68.0172 471.00
68.3214 441.00
68.6257 458.00
68.9299 436.00
69.2342 482.00
69.5385 541.00
69.8427 758.00
70.147 687.00
70.4512 557.00
70.7555 461.00
71.0598 429.00
71.364 521.00
71.6683 574.00
71.9725 486.00
72.2768 517.00
72.5811 518.00
72.8853 633.00
73.1896 656.00
73.4938 507.00
73.7981 443.00
74.1024 432.00
74.4066 482.00
74.7109 605.00
75.0151 591.00
75.3194 464.00
75.6237 460.00
75.9279 459.00
76.2322 485.00
76.5364 481.00
76.8407 442.00
77.145 444.00
77.4492 415.00
77.7535 387.00
78.0577 425.00
78.362 503.00
78.6663 785.00
78.9705 945.00
79.2748 635.00
79.579 441.00
79.8833 420.00
80.1876 436.00
80.4918 435.00
80.7961 398.00
81.1003 401.00
81.4046 547.00
81.7089 483.00
82.0131 387.00
82.3174 419.00
82.6217 552.00
82.9259 525.00
83.2302 447.00
83.5344 500.00
83.8387 679.00
84.143 546.00
84.4472 404.00
84.7515 479.00
85.0557 477.00
85.36 425.00
85.6643 388.00
85.9685 374.00
86.2728 390.00
86.577 394.00
86.8813 460.00
87.1856 441.00
87.4898 520.00
87.7941 461.00
88.0983 427.00
88.4026 432.00
88.7069 395.00
89.0111 406.00
89.3154 354.00
89.6196 461.00
89.9239 599.00
90.2282 500.00
90.5324 428.00
90.8367 479.00
91.1409 645.00
91.4452 478.00
91.7495 417.00
92.0537 485.00
92.358 393.00
92.6622 390.00
92.9665 412.00
93.2708 438.00
93.575 480.00
93.8793 507.00
94.1835 580.00
94.4878 488.00
94.7921 432.00
95.0963 423.00
95.4006 408.00
95.7048 401.00
96.0091 449.00
96.3134 388.00
96.6176 414.00
96.9219 413.00
97.2261 415.00
97.5304 363.00
97.8347 468.00
98.1389 530.00
98.4432 586.00
98.7474 500.00
99.0517 439.00
99.356 427.00
99.6602 385.00
99.9645 373.00
100.095 391.00

File: NSC_70.xy
9.903433 2915.00
10.2077 2891.00
10.512 2860.00
10.8162 3075.00
11.1205 2632.00
11.4247 2359.00
11.729 2407.00
12.0333 2284.00
12.3375 2174.00
12.6418 2142.00
12.946 2212.00
13.2503 2196.00
13.5546 2530.00
13.8588 2085.00
14.1631 1868.00
14.4673 1914.00
14.7716 2006.00
15.0759 1828.00
15.3801 1885.00
15.6844 1844.00
15.9886 1801.00
16.2929 2097.00
16.5972 1715.00
16.9014 1750.00
17.2057 1829.00
17.5099 2188.00
17.8142 1675.00
18.1185 1562.00
18.4227 1611.00
18.727 1474.00
19.0312 1662.00
19.3355 1609.00
19.6398 1618.00
19.944 1706.00
20.2483 2313.00
20.5525 2444.00
20.8568 2800.00
21.1611 18328.00
21.4653 4522.00
21.7696 2227.00
22.0738 1692.00
22.3781 1347.00
22.6824 1316.00
22.9866 1391.00
23.2909 1798.00
23.5951 1610.00
23.8994 1513.00
24.2037 2496.00
24.5079 1817.00
24.8122 1255.00
25.1164 1173.00
25.4207 1318.00
25.725 1332.00
26.0292 1347.00
26.3335 1558.00
26.6378 2394.00
26.942 5223.00
27.2463 1609.00
27.5505 1357.00
27.8548 1258.00
28.1591 1045.00
28.4633 1224.00
28.7676 1025.00
29.0718 1222.00
29.3761 1111.00
29.6804 1283.00
29.9846 1453.00
30.2889 1026.00
30.5931 1250.00
30.8974 1095.00
31.2017 1062.00
31.5059 981.00
31.8102 1015.00
32.1144 1183.00
32.4187 1126.00
32.723 1281.00
33.0272 1530.00
33.3315 1782.00
33.6357 1450.00
33.94 2281.00
34.2443 4759.00
34.5485 9834.00
34.8528 11434.00
35.157 4022.00
35.4613 2318.00
35.7656 1100.00
36.0698 1184.00
36.3741 1109.00
36.6783 1045.00
36.9826 1189.00
37.2869 1311.00
37.5911 1154.00
37.8954 1154.00
38.1996 2038.00
38.5039 1120.00
38.8082 1100.00
39.1124 977.00
39.4167 1072.00
39.7209 1016.00
40.0252 1023.00
40.3295 1412.00
40.6337 1375.00
40.938 1389.00
41.2422 1579.00
41.5465 1028.00
41.8508 809.00
42.155 878.00
42.4593 980.00
42.7635 1934.00
43.0678 2197.00
43.3721 1451.00
43.6763 1201.00
43.9806 1304.00
44.2849 880.00
44.5891 948.00
44.8934 1064.00
45.1976 855.00
45.5019 818.00
45.8062 870.00
46.1104 762.00
46.4147 747.00
46.7189 820.00
47.0232 815.00
47.3275 797.00
47.6317 837.00
47.936 716.00
48.2402 791.00
48.5445 838.00
48.8488 754.00
49.153 961.00
49.4573 2691.00
49.7615 1873.00
50.0658 1560.00
50.3701 1470.00
50.6743 1130.00
50.9786 863.00
51.2828 699.00
51.5871 811.00
51.8914 1838.00
52.1956 2333.00
52.4999 952.00
52.8041 714.00
53.1084 668.00
53.4127 723.00
53.7169 830.00
54.0212 779.00
54.3254 802.00
54.6297 942.00
54.934 1283.00
55.2382 1134.00
55.5425 801.00
55.8467 760.00
56.151 735.00
56.4553 844.00
56.7595 830.00
57.0638 802.00
57.368 687.00
57.6723 674.00
57.9766 787.00
58.2808 805.00
58.5851 682.00
58.8893 641.00
59.1936 647.00
59.4979 693.00
59.8021 637.00
60.1064 687.00
60.4106 736.00
60.7149 655.00
61.0192 643.00
61.3234 770.00
61.6277 1828.00
61.932 2456.00
62.2362 2416.00
62.5405 2146.00
62.8447 961.00
63.149 777.00
63.4533 712.00
63.7575 641.00
64.0618 594.00
64.366 634.00
64.6703 674.00
64.9745 1066.00
65.2788 715.00
65.5831 770.00
65.8873 893.00
66.1916 1241.00
66.4959 800.00
66.8001 712.00
67.1044 619.00
67.4086 546.00
67.7129 543.00
68.0172 528.00
68.3214 516.00
68.6257 548.00
68.9299 529.00
69.2342 585.00
69.5385 593.00
69.8427 599.00
70.147 601.00
70.4512 553.00
70.7555 479.00
71.0598 491.00
71.364 625.00
71.6683 675.00
71.9725 555.00
72.2768 642.00
72.5811 833.00
72.8853 937.00
73.1896 862.00
73.4938 626.00
73.7981 534.00
74.1024 485.00
74.4066 534.00
74.7109 574.00
75.0151 576.00
75.3194 503.00
75.6237 503.00
75.9279 443.00
76.2322 544.00
76.5364 584.00
76.8407 555.00
77.145 550.00
77.4492 524.00
77.7535 524.00
78.0577 482.00
78.362 555.00
78.6663 581.00
78.9705 848.00
79.2748 631.00
79.579 495.00
79.8833 447.00
80.1876 428.00
80.4918 431.00
80.7961 414.00
81.1003 436.00
81.4046 569.00
81.7089 503.00
82.0131 395.00
82.3174 505.00
82.6217 773.00
82.9259 767.00
83.2302 555.00
83.5344 578.00
83.8387 759.00
84.143 757.00
84.4472 533.00
84.7515 472.00
85.0557 452.00
85.36 456.00
85.6643 464.00
85.9685 422.00
86.2728 391.00
86.577 447.00
86.8813 461.00
87.1856 451.00
87.4898 544.00
87.7941 520.00
88.0983 443.00
88.4026 452.00
88.7069 419.00
89.0111 421.00
89.3154 391.00
89.6196 466.00
89.9239 647.00
90.2282 668.00
90.5324 519.00
90.8367 505.00
91.1409 660.00
91.4452 577.00
91.7495 451.00
92.0537 429.00
92.358 455.00
92.6622 423.00
92.9665 503.00
93.2708 519.00
93.575 589.00
93.8793 543.00
94.1835 496.00
94.4878 412.00
94.7921 403.00
95.0963 410.00
95.4006 403.00
95.7048 430.00
96.0091 486.00
96.3134 547.00
96.6176 454.00
96.9219 416.00
97.2261 409.00
97.5304 387.00
97.8347 428.00
98.1389 447.00
98.4432 401.00
98.7474 439.00
99.0517 432.00
99.356 416.00
99.6602 405.00
99.9645 421.00
100.095 420.00

File: NSC_72.xy
9.903433 3112.00
10.2077 2848.00
10.512 3169.00
10.8162 2532.00
11.1205 2501.00
11.4247 2369.00
11.729 2407.00
12.0333 2197.00
12.3375 2245.00
12.6418 2238.00
12.946 2594.00
13.2503 2779.00
13.5546 1953.00
13.8588 2004.00
14.1631 1855.00
14.4673 1839.00
14.7716 1793.00
15.0759 1788.00
15.3801 1711.00
15.6844 1814.00
15.9886 1963.00
16.2929 1732.00
16.5972 1730.00
16.9014 1739.00
17.2057 1674.00
17.5099 1603.00
17.8142 1699.00
18.1185 1714.00
18.4227 1561.00
18.727 1576.00
19.0312 1662.00
19.3355 1591.00
19.6398 1707.00
19.944 3734.00
20.2483 2215.00
20.5525 1926.00
20.8568 7344.00
21.1611 9548.00
21.4653 2023.00
21.7696 1496.00
22.0738 1354.00
22.3781 1384.00
22.6824 1477.00
22.9866 1484.00
23.2909 2064.00
23.5951 1732.00
23.8994 1744.00
24.2037 1518.00
24.5079 1288.00
24.8122 1249.00
25.1164 1973.00
25.4207 1561.00
25.725 1493.00
26.0292 1596.00
26.3335 1749.00
26.6378 1708.00
26.942 1268.00
27.2463 1138.00
27.5505 1190.00
27.8548 1113.00
28.1591 1029.00
28.4633 1047.00
28.7676 1070.00
29.0718 1167.00
29.3761 1696.00
29.6804 1120.00
29.9846 1090.00
30.2889 1254.00
30.5931 1061.00
30.8974 961.00
31.2017 1023.00
31.5059 1133.00
31.8102 1388.00
32.1144 1552.00
32.4187 2319.00
32.723 2677.00
33.0272 2607.00
33.3315 1361.00
33.6357 1294.00
33.94 1462.00
34.2443 3896.00
34.5485 4910.00
34.8528 6554.00
35.157 3341.00
35.4613 1248.00
35.7656 1365.00
36.0698 1318.00
36.3741 1172.00
36.6783 1434.00
36.9826 1032.00
37.2869 912.00
37.5911 900.00
37.8954 860.00
38.1996 904.00
38.5039 1343.00
38.8082 842.00
39.1124 800.00
39.4167 793.00
39.7209 819.00
40.0252 1201.00
40.3295 1552.00
40.6337 1971.00
40.938 1855.00
41.2422 955.00
41.5465 865.00
41.8508 892.00
42.155 877.00
42.4593 1230.00
42.7635 1311.00
43.0678 1057.00
43.3721 1030.00
43.6763 1128.00
43.9806 823.00
44.2849 865.00
44.5891 1511.00
44.8934 1260.00
45.1976 877.00
45.5019 659.00
45.8062 685.00
46.1104 734.00
46.4147 908.00
46.7189 719.00
47.0232 794.00
47.3275 1065.00
47.6317 864.00
47.936 980.00
48.2402 940.00
48.5445 863.00
48.8488 927.00
49.153 1300.00
49.4573 1271.00
49.7615 1126.00
50.0658 1139.00
50.3701 1505.00
50.6743 1194.00
50.9786 760.00
51.2828 657.00
51.5871 630.00
51.8914 744.00
52.1956 888.00
52.4999 765.00
52.8041 739.00
53.1084 685.00
53.4127 955.00
53.7169 940.00
54.0212 871.00
54.3254 915.00
54.6297 975.00
54.934 1055.00
55.2382 820.00
55.5425 896.00
55.8467 830.00
56.151 843.00
56.4553 652.00
56.7595 794.00
57.0638 708.00
57.368 709.00
57.6723 717.00
57.9766 815.00
58.2808 806.00
58.5851 618.00
58.8893 747.00
59.1936 742.00
59.4979 752.00
59.8021 628.00
60.1064 875.00
60.4106 868.00
60.7149 747.00
61.0192 682.00
61.3234 763.00
61.6277 1046.00
61.932 1435.00
62.2362 1497.00
62.5405 1254.00
62.8447 1092.00
63.149 953.00
63.4533 655.00
63.7575 675.00
64.0618 697.00
64.366 651.00
64.6703 571.00
64.9745 603.00
65.2788 803.00
65.5831 742.00
65.8873 627.00
66.1916 613.00
66.4959 717.00
66.8001 667.00
67.1044 689.00
67.4086 729.00
67.7129 534.00
68.0172 515.00
68.3214 480.00
68.6257 490.00
68.9299 654.00
69.2342 711.00
69.5385 669.00
69.8427 701.00
70.147 572.00
70.4512 552.00
70.7555 467.00
71.0598 523.00
71.364 552.00
71.6683 537.00
71.9725 506.00
72.2768 649.00
72.5811 632.00
72.8853 597.00
73.1896 610.00
73.4938 621.00
73.7981 619.00
74.1024 647.00
74.4066 686.00
74.7109 636.00
75.0151 580.00
75.3194 530.00
75.6237 486.00
75.9279 498.00
76.2322 478.00
76.5364 451.00
76.8407 512.00
77.145 495.00
77.4492 567.00
77.7535 563.00
78.0577 554.00
78.362 507.00
78.6663 497.00
78.9705 535.00
79.2748 535.00
79.579 466.00
79.8833 406.00
80.1876 432.00
80.4918 444.00
80.7961 444.00
81.1003 404.00
81.4046 477.00
81.7089 463.00
82.0131 444.00
82.3174 564.00
82.6217 498.00
82.9259 457.00
83.2302 443.00
83.5344 515.00
83.8387 538.00
84.143 514.00
84.4472 560.00
84.7515 600.00
85.0557 543.00
85.36 461.00
85.6643 434.00
85.9685 401.00
86.2728 407.00
86.577 448.00
86.8813 402.00
87.1856 377.00
87.4898 444.00
87.7941 427.00
88.0983 495.00
88.4026 509.00
88.7069 493.00
89.0111 395.00
89.3154 466.00
89.6196 425.00
89.9239 467.00
90.2282 415.00
90.5324 525.00
90.8367 506.00
91.1409 422.00
91.4452 406.00
91.7495 448.00
92.0537 417.00
92.358 443.00
92.6622 426.00
92.9665 370.00
93.2708 466.00
93.575 503.00
93.8793 485.00
94.1835 454.00
94.4878 460.00
94.7921 497.00
95.0963 451.00
95.4006 441.00
95.7048 414.00
96.0091 471.00
96.3134 415.00
96.6176 391.00
96.9219 403.00
97.2261 392.00
97.5304 403.00
97.8347 413.00
98.1389 426.00
98.4432 441.00
98.7474 444.00
99.0517 486.00
99.356 495.00
99.6602 430.00
99.9645 453.00
100.095 397.00