Folder: alab-pipeline/data/xrd_creation/results (part 67)

File: NSC_177.xy
9.903433 2798.00
10.2077 2708.00
10.512 2627.00
10.8162 2505.00
11.1205 2408.00
11.4247 2402.00
11.729 2339.00
12.0333 2226.00
12.3375 2197.00
12.6418 2248.00
12.946 2353.00
13.2503 2129.00
13.5546 2120.00
13.8588 2330.00
14.1631 3581.00
14.4673 2076.00
14.7716 1960.00
15.0759 2005.00
15.3801 1959.00
15.6844 1920.00
15.9886 1927.00
16.2929 1867.00
16.5972 1825.00
16.9014 1904.00
17.2057 1922.00
17.5099 1823.00
17.8142 1966.00
18.1185 1726.00
18.4227 1800.00
18.727 1770.00
19.0312 1725.00
19.3355 1863.00
19.6398 3700.00
19.944 8193.00
20.2483 7541.00
20.5525 2123.00
20.8568 1715.00
21.1611 1776.00
21.4653 1829.00
21.7696 1690.00
22.0738 1640.00
22.3781 1602.00
22.6824 1625.00
22.9866 1740.00
23.2909 2161.00
23.5951 12321.00
23.8994 1770.00
24.2037 1542.00
24.5079 2105.00
24.8122 1744.00
25.1164 1529.00
25.4207 1456.00
25.725 1517.00
26.0292 1383.00
26.3335 1487.00
26.6378 1345.00
26.942 1300.00
27.2463 1418.00
27.5505 1371.00
27.8548 1506.00
28.1591 1790.00
28.4633 11276.00
28.7676 3159.00
29.0718 1415.00
29.3761 1527.00
29.6804 1334.00
29.9846 1276.00
30.2889 1377.00
30.5931 1404.00
30.8974 1497.00
31.2017 2814.00
31.5059 17734.00
31.8102 2582.00
32.1144 2393.00
32.4187 1302.00
32.723 1252.00
33.0272 1258.00
33.3315 1181.00
33.6357 1148.00
33.94 1236.00
34.2443 1569.00
34.5485 1967.00
34.8528 2175.00
35.157 4658.00
35.4613 5457.00
35.7656 2040.00
36.0698 1164.00
36.3741 1375.00
36.6783 1175.00
36.9826 1092.00
37.2869 1096.00
37.5911 1016.00
37.8954 1102.00
38.1996 1087.00
38.5039 1141.00
38.8082 1081.00
39.1124 1332.00
39.4167 1071.00
39.7209 1089.00
40.0252 1951.00
40.3295 1067.00
40.6337 1015.00
40.938 1358.00
41.2422 1559.00
41.5465 1223.00
41.8508 1549.00
42.155 1870.00
42.4593 1106.00
42.7635 1688.00
43.0678 2321.00
43.3721 1124.00
43.6763 1198.00
43.9806 1010.00
44.2849 984.00
44.5891 1023.00
44.8934 1133.00
45.1976 2992.00
45.5019 1234.00
45.8062 3569.00
46.1104 1381.00
46.4147 973.00
46.7189 1165.00
47.0232 2437.00
47.3275 1210.00
47.6317 1286.00
47.936 6353.00
48.2402 1543.00
48.5445 1308.00
48.8488 1452.00
49.153 1002.00
49.4573 1042.00
49.7615 1413.00
50.0658 1188.00
50.3701 1148.00
50.6743 1732.00
50.9786 1189.00
51.2828 1416.00
51.5871 3849.00
51.8914 1746.00
52.1956 961.00
52.4999 1048.00
52.8041 958.00
53.1084 998.00
53.4127 910.00
53.7169 891.00
54.0212 1046.00
54.3254 1660.00
54.6297 1478.00
54.934 3590.00
55.2382 2359.00
55.5425 1087.00
55.8467 1181.00
56.151 1308.00
56.4553 1356.00
56.7595 1156.00
57.0638 959.00
57.368 908.00
57.6723 1043.00
57.9766 1090.00
58.2808 1016.00
58.5851 1414.00
58.8893 1526.00
59.1936 1023.00
59.4979 962.00
59.8021 1217.00
60.1064 2287.00
60.4106 1279.00
60.7149 3276.00
61.0192 1598.00
61.3234 1075.00
61.6277 1127.00
61.932 1080.00
62.2362 1058.00
62.5405 1397.00
62.8447 1893.00
63.149 2223.00
63.4533 1324.00
63.7575 1134.00
64.0618 1301.00
64.366 930.00
64.6703 911.00
64.9745 967.00
65.2788 865.00
65.5831 876.00
65.8873 1052.00
66.1916 1138.00
66.4959 1244.00
66.8001 2002.00
67.1044 1038.00
67.4086 969.00
67.7129 1551.00
68.0172 1249.00
68.3214 1107.00
68.6257 976.00
68.9299 862.00
69.2342 802.00
69.5385 810.00
69.8427 900.00
70.147 874.00
70.4512 1775.00
70.7555 1246.00
71.0598 890.00
71.364 888.00
71.6683 1118.00
71.9725 1025.00
72.2768 803.00
72.5811 809.00
72.8853 836.00
73.1896 833.00
73.4938 866.00
73.7981 960.00
74.1024 1581.00
74.4066 1489.00
74.7109 936.00
75.0151 965.00
75.3194 1120.00
75.6237 889.00
75.9279 1029.00
76.2322 979.00
76.5364 859.00
76.8407 764.00
77.145 825.00
77.4492 947.00
77.7535 1198.00
78.0577 1066.00
78.362 877.00
78.6663 1141.00
78.9705 906.00
79.2748 879.00
79.579 869.00
79.8833 894.00
80.1876 794.00
80.4918 756.00
80.7961 803.00
81.1003 1158.00
81.4046 1172.00
81.7089 840.00
82.0131 832.00
82.3174 1004.00
82.6217 1149.00
82.9259 1209.00
83.2302 949.00
83.5344 939.00
83.8387 874.00
84.143 993.00
84.4472 977.00
84.7515 1083.00
85.0557 937.00
85.36 848.00
85.6643 783.00
85.9685 838.00
86.2728 772.00
86.577 867.00
86.8813 990.00
87.1856 825.00
87.4898 781.00
87.7941 995.00
88.0983 1065.00
88.4026 933.00
88.7069 887.00
89.0111 1581.00
89.3154 1402.00
89.6196 907.00
89.9239 887.00
90.2282 881.00
90.5324 831.00
90.8367 856.00
91.1409 909.00
91.4452 1053.00
91.7495 1009.00
92.0537 848.00
92.358 777.00
92.6622 805.00
92.9665 837.00
93.2708 902.00
93.575 792.00
93.8793 777.00
94.1835 755.00
94.4878 856.00
94.7921 1089.00
95.0963 1382.00
95.4006 1156.00
95.7048 903.00
96.0091 1124.00
96.3134 1004.00
96.6176 834.00
96.9219 786.00
97.2261 787.00
97.5304 824.00
97.8347 916.00
98.1389 969.00
98.4432 824.00
98.7474 919.00
99.0517 912.00
99.356 845.00
99.6602 970.00
99.9645 838.00
100.095 875.00

File: NSC_178.xy
9.903433 2676.00
10.2077 2550.00
10.512 2471.00
10.8162 2380.00
11.1205 2460.00
11.4247 2305.00
11.729 2144.00
12.0333 2021.00
12.3375 2015.00
12.6418 1892.00
12.946 1818.00
13.2503 1805.00
13.5546 1859.00
13.8588 2067.00
14.1631 1919.00
14.4673 1737.00
14.7716 1723.00
15.0759 1519.00
15.3801 1614.00
15.6844 1612.00
15.9886 1569.00
16.2929 1473.00
16.5972 1482.00
16.9014 1456.00
17.2057 1421.00
17.5099 1509.00
17.8142 1396.00
18.1185 1409.00
18.4227 1357.00
18.727 1346.00
19.0312 1295.00
19.3355 1470.00
19.6398 1676.00
19.944 1582.00
20.2483 1683.00
20.5525 2309.00
20.8568 2262.00
21.1611 1408.00
21.4653 1405.00
21.7696 2093.00
22.0738 3885.00
22.3781 2188.00
22.6824 1374.00
22.9866 1562.00
23.2909 2645.00
23.5951 1909.00
23.8994 1215.00
24.2037 1189.00
24.5079 1219.00
24.8122 1125.00
25.1164 1102.00
25.4207 1141.00
25.725 1518.00
26.0292 6222.00
26.3335 3190.00
26.6378 2957.00
26.942 1926.00
27.2463 1050.00
27.5505 1006.00
27.8548 1227.00
28.1591 1594.00
28.4633 1111.00
28.7676 997.00
29.0718 979.00
29.3761 1008.00
29.6804 1088.00
29.9846 957.00
30.2889 959.00
30.5931 1011.00
30.8974 1862.00
31.2017 2106.00
31.5059 1872.00
31.8102 2875.00
32.1144 1398.00
32.4187 957.00
32.723 906.00
33.0272 908.00
33.3315 886.00
33.6357 895.00
33.94 1450.00
34.2443 1076.00
34.5485 922.00
34.8528 1526.00
35.157 1375.00
35.4613 808.00
35.7656 1008.00
36.0698 1684.00
36.3741 1226.00
36.6783 797.00
36.9826 779.00
37.2869 722.00
37.5911 757.00
37.8954 810.00
38.1996 3602.00
38.5039 1017.00
38.8082 676.00
39.1124 808.00
39.4167 914.00
39.7209 1919.00
40.0252 738.00
40.3295 733.00
40.6337 872.00
40.938 773.00
41.2422 798.00
41.5465 764.00
41.8508 1650.00
42.155 1676.00
42.4593 1147.00
42.7635 959.00
43.0678 906.00
43.3721 660.00
43.6763 770.00
43.9806 652.00
44.2849 770.00
44.5891 695.00
44.8934 1023.00
45.1976 916.00
45.5019 832.00
45.8062 708.00
46.1104 629.00
46.4147 614.00
46.7189 696.00
47.0232 637.00
47.3275 1352.00
47.6317 884.00
47.936 891.00
48.2402 846.00
48.5445 1147.00
48.8488 1742.00
49.153 962.00
49.4573 577.00
49.7615 698.00
50.0658 608.00
50.3701 566.00
50.6743 596.00
50.9786 784.00
51.2828 662.00
51.5871 807.00
51.8914 691.00
52.1956 523.00
52.4999 581.00
52.8041 527.00
53.1084 705.00
53.4127 900.00
53.7169 920.00
54.0212 888.00
54.3254 881.00
54.6297 1103.00
54.934 673.00
55.2382 623.00
55.5425 646.00
55.8467 875.00
56.151 658.00
56.4553 760.00
56.7595 690.00
57.0638 684.00
57.368 556.00
57.6723 547.00
57.9766 606.00
58.2808 635.00
58.5851 588.00
58.8893 1215.00
59.1936 1532.00
59.4979 895.00
59.8021 715.00
60.1064 732.00
60.4106 820.00
60.7149 801.00
61.0192 757.00
61.3234 766.00
61.6277 679.00
61.932 975.00
62.2362 564.00
62.5405 753.00
62.8447 707.00
63.149 726.00
63.4533 634.00
63.7575 550.00
64.0618 579.00
64.366 568.00
64.6703 541.00
64.9745 589.00
65.2788 535.00
65.5831 648.00
65.8873 1615.00
66.1916 1722.00
66.4959 981.00
66.8001 681.00
67.1044 1200.00
67.4086 1627.00
67.7129 807.00
68.0172 818.00
68.3214 584.00
68.6257 532.00
68.9299 518.00
69.2342 498.00
69.5385 508.00
69.8427 626.00
70.147 1009.00
70.4512 888.00
70.7555 546.00
71.0598 545.00
71.364 697.00
71.6683 518.00
71.9725 486.00
72.2768 486.00
72.5811 472.00
72.8853 473.00
73.1896 461.00
73.4938 689.00
73.7981 848.00
74.1024 930.00
74.4066 625.00
74.7109 489.00
75.0151 496.00
75.3194 471.00
75.6237 480.00
75.9279 470.00
76.2322 471.00
76.5364 527.00
76.8407 534.00
77.145 516.00
77.4492 675.00
77.7535 655.00
78.0577 546.00
78.362 571.00
78.6663 585.00
78.9705 526.00
79.2748 509.00
79.579 437.00
79.8833 516.00
80.1876 973.00
80.4918 749.00
80.7961 482.00
81.1003 471.00
81.4046 522.00
81.7089 457.00
82.0131 557.00
82.3174 505.00
82.6217 419.00
82.9259 451.00
83.2302 449.00
83.5344 439.00
83.8387 391.00
84.143 430.00
84.4472 407.00
84.7515 408.00
85.0557 535.00
85.36 512.00
85.6643 435.00
85.9685 417.00
86.2728 448.00
86.577 442.00
86.8813 426.00
87.1856 428.00
87.4898 450.00
87.7941 470.00
88.0983 454.00
88.4026 460.00
88.7069 604.00
89.0111 604.00
89.3154 466.00
89.6196 458.00
89.9239 512.00
90.2282 471.00
90.5324 456.00
90.8367 480.00
91.1409 453.00
91.4452 432.00
91.7495 424.00
92.0537 451.00
92.358 550.00
92.6622 551.00
92.9665 416.00
93.2708 577.00
93.575 632.00
93.8793 474.00
94.1835 495.00
94.4878 482.00
94.7921 472.00
95.0963 444.00
95.4006 465.00
95.7048 539.00
96.0091 487.00
96.3134 392.00
96.6176 399.00
96.9219 453.00
97.2261 460.00
97.5304 486.00
97.8347 434.00
98.1389 435.00
98.4432 436.00
98.7474 415.00
99.0517 437.00
99.356 585.00
99.6602 782.00
99.9645 660.00
100.095 567.00

File: NSC_179.xy
9.903433 2759.00
10.2077 2797.00
10.512 2712.00
10.8162 2570.00
11.1205 2439.00
11.4247 2482.00
11.729 2350.00
12.0333 2221.00
12.3375 2200.00
12.6418 2193.00
12.946 2188.00
13.2503 2094.00
13.5546 2014.00
13.8588 2204.00
14.1631 3693.00
14.4673 1965.00
14.7716 1957.00
15.0759 1934.00
15.3801 1932.00
15.6844 1855.00
15.9886 1891.00
16.2929 1929.00
16.5972 1840.00
16.9014 1846.00
17.2057 1723.00
17.5099 1766.00
17.8142 1811.00
18.1185 1708.00
18.4227 1671.00
18.727 1657.00
19.0312 1719.00
19.3355 1928.00
19.6398 4068.00
19.944 3907.00
20.2483 11172.00
20.5525 1856.00
20.8568 1611.00
21.1611 1722.00
21.4653 1748.00
21.7696 1662.00
22.0738 1688.00
22.3781 1538.00
22.6824 1565.00
22.9866 1613.00
23.2909 2245.00
23.5951 8324.00
23.8994 1522.00
24.2037 1605.00
24.5079 1494.00
24.8122 1507.00
25.1164 1445.00
25.4207 1424.00
25.725 1493.00
26.0292 1390.00
26.3335 1442.00
26.6378 1345.00
26.942 1371.00
27.2463 1347.00
27.5505 1340.00
27.8548 1411.00
28.1591 2056.00
28.4633 5053.00
28.7676 1429.00
29.0718 1276.00
29.3761 1444.00
29.6804 1315.00
29.9846 1338.00
30.2889 1277.00
30.5931 1377.00
30.8974 1487.00
31.2017 3452.00
31.5059 14613.00
31.8102 1950.00
32.1144 1425.00
32.4187 1241.00
32.723 1250.00
33.0272 1185.00
33.3315 1291.00
33.6357 1224.00
33.94 1174.00
34.2443 1359.00
34.5485 1440.00
34.8528 2457.00
35.157 6168.00
35.4613 1482.00
35.7656 1171.00
36.0698 1093.00
36.3741 1153.00
36.6783 1112.00
36.9826 1148.00
37.2869 1090.00
37.5911 1070.00
37.8954 1032.00
38.1996 1103.00
38.5039 1047.00
38.8082 1089.00
39.1124 1046.00
39.4167 1144.00
39.7209 1121.00
40.0252 1408.00
40.3295 1039.00
40.6337 1121.00
40.938 1414.00
41.2422 1055.00
41.5465 1235.00
41.8508 1293.00
42.155 1702.00
42.4593 1092.00
42.7635 1650.00
43.0678 1669.00
43.3721 1534.00
43.6763 1043.00
43.9806 1006.00
44.2849 1042.00
44.5891 1067.00
44.8934 1424.00
45.1976 1610.00
45.5019 1232.00
45.8062 2280.00
46.1104 1082.00
46.4147 1019.00
46.7189 1164.00
47.0232 2277.00
47.3275 1380.00
47.6317 1685.00
47.936 3075.00
48.2402 1609.00
48.5445 1198.00
48.8488 1261.00
49.153 998.00
49.4573 1069.00
49.7615 1117.00
50.0658 1037.00
50.3701 1305.00
50.6743 1090.00
50.9786 1030.00
51.2828 1234.00
51.5871 3934.00
51.8914 1047.00
52.1956 1041.00
52.4999 1072.00
52.8041 965.00
53.1084 942.00
53.4127 990.00
53.7169 1016.00
54.0212 1360.00
54.3254 1224.00
54.6297 2995.00
54.934 3170.00
55.2382 1062.00
55.5425 1055.00
55.8467 1031.00
56.151 1166.00
56.4553 1118.00
56.7595 965.00
57.0638 942.00
57.368 976.00
57.6723 892.00
57.9766 1027.00
58.2808 1219.00
58.5851 1052.00
58.8893 1465.00
59.1936 967.00
59.4979 1010.00
59.8021 2614.00
60.1064 1428.00
60.4106 1457.00
60.7149 2616.00
61.0192 1018.00
61.3234 1460.00
61.6277 982.00
61.932 937.00
62.2362 1224.00
62.5405 1168.00
62.8447 2562.00
63.149 1265.00
63.4533 1012.00
63.7575 1808.00
64.0618 961.00
64.366 957.00
64.6703 990.00
64.9745 923.00
65.2788 918.00
65.5831 942.00
65.8873 1072.00
66.1916 953.00
66.4959 2307.00
66.8001 1377.00
67.1044 1013.00
67.4086 1174.00
67.7129 1523.00
68.0172 1184.00
68.3214 1126.00
68.6257 896.00
68.9299 900.00
69.2342 979.00
69.5385 835.00
69.8427 929.00
70.147 1574.00
70.4512 1388.00
70.7555 968.00
71.0598 835.00
71.364 1107.00
71.6683 1015.00
71.9725 916.00
72.2768 878.00
72.5811 796.00
72.8853 901.00
73.1896 872.00
73.4938 974.00
73.7981 1315.00
74.1024 1651.00
74.4066 947.00
74.7109 910.00
75.0151 1212.00
75.3194 1054.00
75.6237 973.00
75.9279 948.00
76.2322 1038.00
76.5364 916.00
76.8407 833.00
77.145 906.00
77.4492 1307.00
77.7535 1093.00
78.0577 906.00
78.362 1359.00
78.6663 978.00
78.9705 989.00
79.2748 946.00
79.579 892.00
79.8833 867.00
80.1876 861.00
80.4918 882.00
80.7961 1114.00
81.1003 1185.00
81.4046 923.00
81.7089 918.00
82.0131 1053.00
82.3174 1308.00
82.6217 1294.00
82.9259 948.00
83.2302 958.00
83.5344 897.00
83.8387 1103.00
84.143 1067.00
84.4472 1065.00
84.7515 923.00
85.0557 877.00
85.36 793.00
85.6643 892.00
85.9685 850.00
86.2728 867.00
86.577 1017.00
86.8813 890.00
87.1856 873.00
87.4898 991.00
87.7941 1359.00
88.0983 1073.00
88.4026 908.00
88.7069 1697.00
89.0111 1412.00
89.3154 946.00
89.6196 944.00
89.9239 927.00
90.2282 883.00
90.5324 934.00
90.8367 1000.00
91.1409 1232.00
91.4452 1101.00
91.7495 812.00
92.0537 854.00
92.358 837.00
92.6622 996.00
92.9665 916.00
93.2708 918.00
93.575 904.00
93.8793 920.00
94.1835 935.00
94.4878 1223.00
94.7921 1259.00
95.0963 1161.00
95.4006 960.00
95.7048 1055.00
96.0091 1001.00
96.3134 832.00
96.6176 796.00
96.9219 900.00
97.2261 850.00
97.5304 914.00
97.8347 945.00
98.1389 976.00
98.4432 966.00
98.7474 868.00
99.0517 989.00
99.356 1064.00
99.6602 959.00
99.9645 885.00
100.095 856.00

File: NSC_180.xy
9.903433 2989.00
10.2077 2981.00
10.512 2941.00
10.8162 2840.00
11.1205 2710.00
11.4247 2635.00
11.729 2720.00
12.0333 2625.00
12.3375 2560.00
12.6418 2400.00
12.946 2473.00
13.2503 2409.00
13.5546 2461.00
13.8588 3680.00
14.1631 3190.00
14.4673 2327.00
14.7716 2360.00
15.0759 2306.00
15.3801 2356.00
15.6844 2378.00
15.9886 2348.00
16.2929 2230.00
16.5972 2284.00
16.9014 2372.00
17.2057 2263.00
17.5099 2292.00
17.8142 2372.00
18.1185 2298.00
18.4227 2121.00
18.727 2245.00
19.0312 2302.00
19.3355 4319.00
19.6398 7479.00
19.944 10590.00
20.2483 2677.00
20.5525 2167.00
20.8568 2208.00
21.1611 2169.00
21.4653 2204.00
21.7696 2155.00
22.0738 2066.00
22.3781 2044.00
22.6824 2133.00
22.9866 3356.00
23.2909 12350.00
23.5951 2290.00
23.8994 2037.00
24.2037 2117.00
24.5079 2133.00
24.8122 2331.00
25.1164 1998.00
25.4207 2011.00
25.725 1934.00
26.0292 2291.00
26.3335 2034.00
26.6378 2022.00
26.942 1958.00
27.2463 1932.00
27.5505 2128.00
27.8548 5261.00
28.1591 2874.00
28.4633 3964.00
28.7676 2090.00
29.0718 1934.00
29.3761 1827.00
29.6804 1952.00
29.9846 2016.00
30.2889 2044.00
30.5931 2433.00
30.8974 12456.00
31.2017 3972.00
31.5059 2251.00
31.8102 3511.00
32.1144 1831.00
32.4187 1780.00
32.723 1833.00
33.0272 1837.00
33.3315 1795.00
33.6357 2005.00
33.94 1717.00
34.2443 2186.00
34.5485 6397.00
34.8528 8019.00
35.157 2118.00
35.4613 2115.00
35.7656 1759.00
36.0698 1714.00
36.3741 1617.00
36.6783 1603.00
36.9826 1652.00
37.2869 1684.00
37.5911 1641.00
37.8954 1708.00
38.1996 1713.00
38.5039 1623.00
38.8082 1684.00
39.1124 1631.00
39.4167 1982.00
39.7209 1682.00
40.0252 1717.00
40.3295 1897.00
40.6337 1689.00
40.938 2114.00
41.2422 2113.00
41.5465 2419.00
41.8508 1812.00
42.155 2435.00
42.4593 2643.00
42.7635 2154.00
43.0678 1701.00
43.3721 1641.00
43.6763 1597.00
43.9806 1651.00
44.2849 2104.00
44.5891 1815.00
44.8934 2369.00
45.1976 2765.00
45.5019 1708.00
45.8062 1763.00
46.1104 2285.00
46.4147 2351.00
46.7189 1869.00
47.0232 5490.00
47.3275 3300.00
47.6317 2246.00
47.936 2323.00
48.2402 1841.00
48.5445 1629.00
48.8488 1563.00
49.153 1626.00
49.4573 1925.00
49.7615 1940.00
50.0658 1628.00
50.3701 2280.00
50.6743 4442.00
50.9786 2917.00
51.2828 1726.00
51.5871 1708.00
51.8914 1685.00
52.1956 1879.00
52.4999 1609.00
52.8041 1577.00
53.1084 1583.00
53.4127 2128.00
53.7169 2180.00
54.0212 4195.00
54.3254 2924.00
54.6297 1838.00
54.934 1530.00
55.2382 1628.00
55.5425 2041.00
55.8467 1802.00
56.151 1638.00
56.4553 1638.00
56.7595 1590.00
57.0638 1586.00
57.368 1854.00
57.6723 1820.00
57.9766 1818.00
58.2808 1628.00
58.5851 1693.00
58.8893 2755.00
59.1936 2346.00
59.4979 2334.00
59.8021 3172.00
60.1064 2115.00
60.4106 2620.00
60.7149 1738.00
61.0192 1566.00
61.3234 1660.00
61.6277 2239.00
61.932 2680.00
62.2362 2162.00
62.5405 1670.00
62.8447 2028.00
63.149 1732.00
63.4533 1600.00
63.7575 1439.00
64.0618 1446.00
64.366 1480.00
64.6703 1705.00
64.9745 1719.00
65.2788 1720.00
65.5831 2429.00
65.8873 1820.00
66.1916 1697.00
66.4959 2342.00
66.8001 1932.00
67.1044 1797.00
67.4086 1588.00
67.7129 1493.00
68.0172 1483.00
68.3214 1459.00
68.6257 1405.00
68.9299 1595.00
69.2342 2108.00
69.5385 1659.00
69.8427 1526.00
70.147 1572.00
70.4512 1727.00
70.7555 1530.00
71.0598 1375.00
71.364 1517.00
71.6683 1426.00
71.9725 1472.00
72.2768 1454.00
72.5811 1693.00
72.8853 2093.00
73.1896 1860.00
73.4938 1496.00
73.7981 1767.00
74.1024 1572.00
74.4066 1602.00
74.7109 1538.00
75.0151 1641.00
75.3194 1438.00
75.6237 1381.00
75.9279 1528.00
76.2322 1729.00
76.5364 1639.00
76.8407 1569.00
77.145 1706.00
77.4492 1525.00
77.7535 1538.00
78.0577 1426.00
78.362 1337.00
78.6663 1384.00
78.9705 1443.00
79.2748 1442.00
79.579 1701.00
79.8833 1509.00
80.1876 1492.00
80.4918 1542.00
80.7961 1684.00
81.1003 1854.00
81.4046 1767.00
81.7089 1603.00
82.0131 1502.00
82.3174 1438.00
82.6217 1545.00
82.9259 1582.00
83.2302 1566.00
83.5344 1533.00
83.8387 1370.00
84.143 1418.00
84.4472 1427.00
84.7515 1495.00
85.0557 1534.00
85.36 1493.00
85.6643 1463.00
85.9685 1559.00
86.2728 1675.00
86.577 1559.00
86.8813 1467.00
87.1856 1825.00
87.4898 2057.00
87.7941 1667.00
88.0983 1477.00
88.4026 1432.00
88.7069 1487.00
89.0111 1497.00
89.3154 1589.00
89.6196 1599.00
89.9239 1615.00
90.2282 1463.00
90.5324 1466.00
90.8367 1423.00
91.1409 1651.00
91.4452 1534.00
91.7495 1577.00
92.0537 1560.00
92.358 1485.00
92.6622 1552.00
92.9665 1932.00
93.2708 1696.00
93.575 1512.00
93.8793 1604.00
94.1835 1796.00
94.4878 1471.00
94.7921 1423.00
95.0963 1387.00
95.4006 1385.00
95.7048 1424.00
96.0091 1366.00
96.3134 1526.00
96.6176 1524.00
96.9219 1545.00
97.2261 1522.00
97.5304 1514.00
97.8347 1480.00
98.1389 1409.00
98.4432 1381.00
98.7474 1371.00
99.0517 1402.00
99.356 1531.00
99.6602 1555.00
99.9645 1546.00
100.095 1565.00

File: NSC_181.xy
9.903433 2826.00
10.2077 2800.00
10.512 2682.00
10.8162 2719.00
11.1205 2545.00
11.4247 2499.00
11.729 2383.00
12.0333 2283.00
12.3375 2266.00
12.6418 2243.00
12.946 2165.00
13.2503 2120.00
13.5546 2265.00
13.8588 2291.00
14.1631 2854.00
14.4673 1955.00
14.7716 1843.00
15.0759 1840.00
15.3801 1870.00
15.6844 1858.00
15.9886 1777.00
16.2929 1793.00
16.5972 1664.00
16.9014 1569.00
17.2057 1699.00
17.5099 1826.00
17.8142 1611.00
18.1185 1587.00
18.4227 1540.00
18.727 1497.00
19.0312 1481.00
19.3355 1575.00
19.6398 1500.00
19.944 3596.00
20.2483 1837.00
20.5525 1842.00
20.8568 1795.00
21.1611 9617.00
21.4653 2410.00
21.7696 1435.00
22.0738 1401.00
22.3781 1386.00
22.6824 1268.00
22.9866 1336.00
23.2909 2117.00
23.5951 11419.00
23.8994 1407.00
24.2037 1444.00
24.5079 4504.00
24.8122 1301.00
25.1164 1146.00
25.4207 1115.00
25.725 1163.00
26.0292 1029.00
26.3335 1121.00
26.6378 1094.00
26.942 1151.00
27.2463 1017.00
27.5505 917.00
27.8548 1052.00
28.1591 1024.00
28.4633 3738.00
28.7676 962.00
29.0718 910.00
29.3761 918.00
29.6804 896.00
29.9846 1008.00
30.2889 882.00
30.5931 907.00
30.8974 1671.00
31.2017 1552.00
31.5059 1412.00
31.8102 13460.00
32.1144 1190.00
32.4187 900.00
32.723 811.00
33.0272 880.00
33.3315 810.00
33.6357 847.00
33.94 887.00
34.2443 1021.00
34.5485 4695.00
34.8528 7424.00
35.157 2456.00
35.4613 1072.00
35.7656 784.00
36.0698 885.00
36.3741 792.00
36.6783 814.00
36.9826 787.00
37.2869 851.00
37.5911 704.00
37.8954 688.00
38.1996 747.00
38.5039 618.00
38.8082 684.00
39.1124 740.00
39.4167 686.00
39.7209 715.00
40.0252 637.00
40.3295 1123.00
40.6337 1269.00
40.938 840.00
41.2422 882.00
41.5465 646.00
41.8508 673.00
42.155 766.00
42.4593 4249.00
42.7635 1169.00
43.0678 1124.00
43.3721 774.00
43.6763 682.00
43.9806 908.00
44.2849 626.00
44.5891 577.00
44.8934 725.00
45.1976 663.00
45.5019 2227.00
45.8062 649.00
46.1104 534.00
46.4147 551.00
46.7189 571.00
47.0232 585.00
47.3275 1031.00
47.6317 1372.00
47.936 3588.00
48.2402 568.00
48.5445 601.00
48.8488 542.00
49.153 573.00
49.4573 1328.00
49.7615 1368.00
50.0658 1010.00
50.3701 757.00
50.6743 664.00
50.9786 651.00
51.2828 545.00
51.5871 994.00
51.8914 1057.00
52.1956 1551.00
52.4999 593.00
52.8041 735.00
53.1084 540.00
53.4127 480.00
53.7169 547.00
54.0212 502.00
54.3254 1543.00
54.6297 1116.00
54.934 565.00
55.2382 556.00
55.5425 484.00
55.8467 689.00
56.151 694.00
56.4553 553.00
56.7595 434.00
57.0638 490.00
57.368 498.00
57.6723 418.00
57.9766 493.00
58.2808 511.00
58.5851 496.00
58.8893 445.00
59.1936 419.00
59.4979 446.00
59.8021 456.00
60.1064 744.00
60.4106 2883.00
60.7149 737.00
61.0192 453.00
61.3234 472.00
61.6277 857.00
61.932 1248.00
62.2362 1822.00
62.5405 1289.00
62.8447 602.00
63.149 451.00
63.4533 495.00
63.7575 745.00
64.0618 898.00
64.366 604.00
64.6703 402.00
64.9745 394.00
65.2788 394.00
65.5831 403.00
65.8873 519.00
66.1916 577.00
66.4959 435.00
66.8001 427.00
67.1044 564.00
67.4086 862.00
67.7129 1150.00
68.0172 570.00
68.3214 360.00
68.6257 388.00
68.9299 340.00
69.2342 404.00
69.5385 430.00
69.8427 1019.00
70.147 417.00
70.4512 383.00
70.7555 427.00
71.0598 683.00
71.364 632.00
71.6683 382.00
71.9725 347.00
72.2768 382.00
72.5811 466.00
72.8853 555.00
73.1896 545.00
73.4938 936.00
73.7981 441.00
74.1024 366.00
74.4066 386.00
74.7109 690.00
75.0151 516.00
75.3194 379.00
75.6237 345.00
75.9279 307.00
76.2322 306.00
76.5364 461.00
76.8407 439.00
77.145 397.00
77.4492 347.00
77.7535 432.00
78.0577 490.00
78.362 436.00
78.6663 407.00
78.9705 305.00
79.2748 341.00
79.579 353.00
79.8833 326.00
80.1876 304.00
80.4918 314.00
80.7961 334.00
81.1003 336.00
81.4046 363.00
81.7089 511.00
82.0131 898.00
82.3174 638.00
82.6217 522.00
82.9259 483.00
83.2302 380.00
83.5344 473.00
83.8387 586.00
84.143 371.00
84.4472 283.00
84.7515 358.00
85.0557 430.00
85.36 364.00
85.6643 311.00
85.9685 294.00
86.2728 319.00
86.577 330.00
86.8813 309.00
87.1856 355.00
87.4898 337.00
87.7941 341.00
88.0983 394.00
88.4026 542.00
88.7069 745.00
89.0111 606.00
89.3154 335.00
89.6196 311.00
89.9239 339.00
90.2282 418.00
90.5324 429.00
90.8367 331.00
91.1409 325.00
91.4452 323.00
91.7495 495.00
92.0537 407.00
92.358 405.00
92.6622 314.00
92.9665 354.00
93.2708 350.00
93.575 356.00
93.8793 528.00
94.1835 413.00
94.4878 294.00
94.7921 305.00
95.0963 366.00
95.4006 595.00
95.7048 457.00
96.0091 324.00
96.3134 346.00
96.6176 321.00
96.9219 362.00
97.2261 483.00
97.5304 321.00
97.8347 349.00
98.1389 393.00
98.4432 356.00
98.7474 410.00
99.0517 328.00
99.356 325.00
99.6602 331.00
99.9645 297.00
100.095 337.00