Folder: alab-pipeline/data/xrd_creation/results (part 109)

File: PG_2643-1.xy
9.903433 4260.00
10.2077 4169.00
10.512 4194.00
10.8162 4110.00
11.1205 4068.00
11.4247 3928.00
11.729 4023.00
12.0333 3938.00
12.3375 3865.00
12.6418 3885.00
12.946 3895.00
13.2503 3836.00
13.5546 3912.00
13.8588 3799.00
14.1631 3798.00
14.4673 3824.00
14.7716 3757.00
15.0759 3816.00
15.3801 3843.00
15.6844 3697.00
15.9886 3901.00
16.2929 3803.00
16.5972 3921.00
16.9014 3891.00
17.2057 3810.00
17.5099 3645.00
17.8142 3824.00
18.1185 3657.00
18.4227 3877.00
18.727 3771.00
19.0312 3938.00
19.3355 3812.00
19.6398 3694.00
19.944 3747.00
20.2483 3671.00
20.5525 3797.00
20.8568 3672.00
21.1611 3770.00
21.4653 3699.00
21.7696 3687.00
22.0738 3631.00
22.3781 3769.00
22.6824 3655.00
22.9866 3649.00
23.2909 4249.00
23.5951 3734.00
23.8994 3577.00
24.2037 3681.00
24.5079 3423.00
24.8122 3479.00
25.1164 3443.00
25.4207 3420.00
25.725 3515.00
26.0292 3398.00
26.3335 3301.00
26.6378 3380.00
26.942 3298.00
27.2463 3303.00
27.5505 3301.00
27.8548 3253.00
28.1591 3135.00
28.4633 3144.00
28.7676 3246.00
29.0718 3128.00
29.3761 3185.00
29.6804 3142.00
29.9846 3276.00
30.2889 3115.00
30.5931 3055.00
30.8974 3031.00
31.2017 3078.00
31.5059 3133.00
31.8102 3046.00
32.1144 3133.00
32.4187 3216.00
32.723 3307.00
33.0272 4196.00
33.3315 15010.00
33.6357 3282.00
33.94 3060.00
34.2443 3025.00
34.5485 2975.00
34.8528 2968.00
35.157 3051.00
35.4613 2993.00
35.7656 3165.00
36.0698 3104.00
36.3741 3066.00
36.6783 3000.00
36.9826 3037.00
37.2869 2900.00
37.5911 2944.00
37.8954 2981.00
38.1996 2978.00
38.5039 5816.00
38.8082 3291.00
39.1124 2892.00
39.4167 2928.00
39.7209 2950.00
40.0252 2960.00
40.3295 2981.00
40.6337 2813.00
40.938 3005.00
41.2422 2845.00
41.5465 2921.00
41.8508 2770.00
42.155 3152.00
42.4593 3242.00
42.7635 2780.00
43.0678 2890.00
43.3721 2835.00
43.6763 2808.00
43.9806 2877.00
44.2849 2960.00
44.5891 2879.00
44.8934 2778.00
45.1976 2851.00
45.5019 3578.00
45.8062 2893.00
46.1104 2777.00
46.4147 2744.00
46.7189 2880.00
47.0232 2785.00
47.3275 2801.00
47.6317 2932.00
47.936 2826.00
48.2402 2855.00
48.5445 2829.00
48.8488 2946.00
49.153 2864.00
49.4573 3043.00
49.7615 3349.00
50.0658 2771.00
50.3701 2743.00
50.6743 2866.00
50.9786 2752.00
51.2828 2818.00
51.5871 2719.00
51.8914 2773.00
52.1956 2845.00
52.4999 2757.00
52.8041 2841.00
53.1084 2891.00
53.4127 2864.00
53.7169 2965.00
54.0212 2900.00
54.3254 2938.00
54.6297 2854.00
54.934 2915.00
55.2382 3298.00
55.5425 6922.00
55.8467 3034.00
56.151 2784.00
56.4553 2884.00
56.7595 2725.00
57.0638 2819.00
57.368 2921.00
57.6723 2809.00
57.9766 2811.00
58.2808 2799.00
58.5851 2789.00
58.8893 2665.00
59.1936 2861.00
59.4979 2759.00
59.8021 2777.00
60.1064 2847.00
60.4106 2957.00
60.7149 2781.00
61.0192 2950.00
61.3234 2665.00
61.6277 2826.00
61.932 2887.00
62.2362 2753.00
62.5405 2798.00
62.8447 2810.00
63.149 2800.00
63.4533 2767.00
63.7575 2826.00
64.0618 2867.00
64.366 3245.00
64.6703 2754.00
64.9745 2747.00
65.2788 2874.00
65.5831 2819.00
65.8873 3900.00
66.1916 4169.00
66.4959 3089.00
66.8001 2791.00
67.1044 2830.00
67.4086 2796.00
67.7129 3006.00
68.0172 2756.00
68.3214 2769.00
68.6257 2895.00
68.9299 2728.00
69.2342 2864.00
69.5385 3036.00
69.8427 2810.00
70.147 2822.00
70.4512 2741.00
70.7555 2697.00
71.0598 2715.00
71.364 2660.00
71.6683 2772.00
71.9725 2676.00
72.2768 2685.00
72.5811 2878.00
72.8853 2812.00
73.1896 2645.00
73.4938 2767.00
73.7981 2785.00
74.1024 3014.00
74.4066 2775.00
74.7109 2749.00
75.0151 2717.00
75.3194 2662.00
75.6237 2767.00
75.9279 2764.00
76.2322 2721.00
76.5364 2763.00
76.8407 2685.00
77.145 2696.00
77.4492 2631.00
77.7535 2692.00
78.0577 2679.00
78.362 2630.00
78.6663 2802.00
78.9705 2722.00
79.2748 2712.00
79.579 2731.00
79.8833 2770.00
80.1876 2866.00
80.4918 2866.00
80.7961 2748.00
81.1003 2688.00
81.4046 2665.00
81.7089 2768.00
82.0131 2952.00
82.3174 2719.00
82.6217 2798.00
82.9259 2840.00
83.2302 2736.00
83.5344 2934.00
83.8387 2760.00
84.143 2747.00
84.4472 2765.00
84.7515 2666.00
85.0557 2884.00
85.36 2813.00
85.6643 2629.00
85.9685 2686.00
86.2728 2681.00
86.577 2852.00
86.8813 2859.00
87.1856 2695.00
87.4898 2590.00
87.7941 2805.00
88.0983 2701.00
88.4026 2731.00
88.7069 2633.00
89.0111 2740.00
89.3154 2816.00
89.6196 2839.00
89.9239 2755.00
90.2282 2657.00
90.5324 2721.00
90.8367 2729.00
91.1409 3227.00
91.4452 3072.00
91.7495 2800.00
92.0537 2693.00
92.358 2633.00
92.6622 2699.00
92.9665 2667.00
93.2708 2702.00
93.575 2745.00
93.8793 2736.00
94.1835 2971.00
94.4878 2791.00
94.7921 2690.00
95.0963 2751.00
95.4006 2679.00
95.7048 2670.00
96.0091 2637.00
96.3134 2731.00
96.6176 2649.00
96.9219 2732.00
97.2261 2761.00
97.5304 2598.00
97.8347 2696.00
98.1389 2750.00
98.4432 2740.00
98.7474 2754.00
99.0517 2698.00
99.356 2682.00
99.6602 2693.00
99.9645 2725.00
100.095 2888.00

File: PG_2644-1.xy
9.903433 2529.00
10.2077 2448.00
10.512 2392.00
10.8162 2376.00
11.1205 2298.00
11.4247 2112.00
11.729 2101.00
12.0333 2032.00
12.3375 1972.00
12.6418 1797.00
12.946 1841.00
13.2503 1712.00
13.5546 1654.00
13.8588 1670.00
14.1631 1625.00
14.4673 1651.00
14.7716 1606.00
15.0759 1495.00
15.3801 1591.00
15.6844 1558.00
15.9886 1477.00
16.2929 1494.00
16.5972 1427.00
16.9014 1505.00
17.2057 1445.00
17.5099 1367.00
17.8142 1428.00
18.1185 1323.00
18.4227 1302.00
18.727 1298.00
19.0312 1301.00
19.3355 1263.00
19.6398 1277.00
19.944 1213.00
20.2483 1199.00
20.5525 1146.00
20.8568 1197.00
21.1611 1133.00
21.4653 1156.00
21.7696 1102.00
22.0738 1064.00
22.3781 1116.00
22.6824 1094.00
22.9866 1081.00
23.2909 1043.00
23.5951 1038.00
23.8994 1009.00
24.2037 1003.00
24.5079 988.00
24.8122 934.00
25.1164 947.00
25.4207 890.00
25.725 922.00
26.0292 987.00
26.3335 1058.00
26.6378 2288.00
26.942 4307.00
27.2463 1024.00
27.5505 912.00
27.8548 927.00
28.1591 909.00
28.4633 836.00
28.7676 855.00
29.0718 1015.00
29.3761 876.00
29.6804 801.00
29.9846 784.00
30.2889 757.00
30.5931 807.00
30.8974 791.00
31.2017 839.00
31.5059 731.00
31.8102 775.00
32.1144 762.00
32.4187 929.00
32.723 849.00
33.0272 788.00
33.3315 879.00
33.6357 820.00
33.94 1908.00
34.2443 3576.00
34.5485 890.00
34.8528 705.00
35.157 724.00
35.4613 709.00
35.7656 710.00
36.0698 718.00
36.3741 1644.00
36.6783 805.00
36.9826 647.00
37.2869 665.00
37.5911 652.00
37.8954 767.00
38.1996 2378.00
38.5039 804.00
38.8082 643.00
39.1124 765.00
39.4167 667.00
39.7209 622.00
40.0252 594.00
40.3295 609.00
40.6337 625.00
40.938 629.00
41.2422 583.00
41.5465 627.00
41.8508 595.00
42.155 591.00
42.4593 568.00
42.7635 640.00
43.0678 615.00
43.3721 614.00
43.6763 575.00
43.9806 562.00
44.2849 598.00
44.5891 716.00
44.8934 548.00
45.1976 546.00
45.5019 610.00
45.8062 584.00
46.1104 549.00
46.4147 601.00
46.7189 609.00
47.0232 552.00
47.3275 558.00
47.6317 571.00
47.936 565.00
48.2402 571.00
48.5445 575.00
48.8488 583.00
49.153 531.00
49.4573 579.00
49.7615 544.00
50.0658 638.00
50.3701 583.00
50.6743 596.00
50.9786 779.00
51.2828 610.00
51.5871 734.00
51.8914 2521.00
52.1956 2896.00
52.4999 748.00
52.8041 558.00
53.1084 553.00
53.4127 564.00
53.7169 539.00
54.0212 656.00
54.3254 639.00
54.6297 631.00
54.934 1521.00
55.2382 850.00
55.5425 601.00
55.8467 612.00
56.151 616.00
56.4553 589.00
56.7595 566.00
57.0638 532.00
57.368 578.00
57.6723 606.00
57.9766 956.00
58.2808 744.00
58.5851 637.00
58.8893 729.00
59.1936 556.00
59.4979 467.00
59.8021 539.00
60.1064 1026.00
60.4106 534.00
60.7149 553.00
61.0192 524.00
61.3234 566.00
61.6277 567.00
61.932 770.00
62.2362 1275.00
62.5405 637.00
62.8447 563.00
63.149 585.00
63.4533 601.00
63.7575 554.00
64.0618 575.00
64.366 576.00
64.6703 677.00
64.9745 1920.00
65.2788 732.00
65.5831 582.00
65.8873 718.00
66.1916 2074.00
66.4959 835.00
66.8001 645.00
67.1044 543.00
67.4086 544.00
67.7129 574.00
68.0172 569.00
68.3214 526.00
68.6257 510.00
68.9299 498.00
69.2342 544.00
69.5385 512.00
69.8427 580.00
70.147 571.00
70.4512 569.00
70.7555 552.00
71.0598 596.00
71.364 792.00
71.6683 924.00
71.9725 583.00
72.2768 541.00
72.5811 562.00
72.8853 524.00
73.1896 542.00
73.4938 543.00
73.7981 584.00
74.1024 552.00
74.4066 597.00
74.7109 551.00
75.0151 547.00
75.3194 585.00
75.6237 567.00
75.9279 523.00
76.2322 536.00
76.5364 517.00
76.8407 598.00
77.145 559.00
77.4492 554.00
77.7535 570.00
78.0577 591.00
78.362 593.00
78.6663 647.00
78.9705 1334.00
79.2748 763.00
79.579 554.00
79.8833 533.00
80.1876 624.00
80.4918 590.00
80.7961 579.00
81.1003 638.00
81.4046 847.00
81.7089 645.00
82.0131 531.00
82.3174 549.00
82.6217 554.00
82.9259 566.00
83.2302 649.00
83.5344 612.00
83.8387 1042.00
84.143 1003.00
84.4472 608.00
84.7515 592.00
85.0557 559.00
85.36 538.00
85.6643 560.00
85.9685 624.00
86.2728 555.00
86.577 622.00
86.8813 618.00
87.1856 603.00
87.4898 830.00
87.7941 640.00
88.0983 626.00
88.4026 527.00
88.7069 548.00
89.0111 523.00
89.3154 615.00
89.6196 610.00
89.9239 1328.00
90.2282 1052.00
90.5324 660.00
90.8367 824.00
91.1409 1410.00
91.4452 979.00
91.7495 613.00
92.0537 645.00
92.358 571.00
92.6622 617.00
92.9665 595.00
93.2708 710.00
93.575 819.00
93.8793 696.00
94.1835 576.00
94.4878 575.00
94.7921 571.00
95.0963 592.00
95.4006 586.00
95.7048 626.00
96.0091 681.00
96.3134 754.00
96.6176 749.00
96.9219 584.00
97.2261 597.00
97.5304 590.00
97.8347 617.00
98.1389 626.00
98.4432 633.00
98.7474 639.00
99.0517 608.00
99.356 609.00
99.6602 569.00
99.9645 549.00
100.095 575.00

File: PG_2645-1.xy
9.903433 3387.00
10.2077 3311.00
10.512 3190.00
10.8162 3124.00
11.1205 3076.00
11.4247 3018.00
11.729 2941.00
12.0333 3026.00
12.3375 2952.00
12.6418 2910.00
12.946 2861.00
13.2503 2924.00
13.5546 2845.00
13.8588 2815.00
14.1631 2798.00
14.4673 2679.00
14.7716 2771.00
15.0759 2794.00
15.3801 2829.00
15.6844 2715.00
15.9886 2684.00
16.2929 2761.00
16.5972 2741.00
16.9014 2791.00
17.2057 2700.00
17.5099 2720.00
17.8142 2840.00
18.1185 2649.00
18.4227 2709.00
18.727 2653.00
19.0312 2929.00
19.3355 2745.00
19.6398 2586.00
19.944 2707.00
20.2483 2598.00
20.5525 2889.00
20.8568 2603.00
21.1611 2563.00
21.4653 2725.00
21.7696 2695.00
22.0738 2621.00
22.3781 2572.00
22.6824 2620.00
22.9866 2665.00
23.2909 2675.00
23.5951 2600.00
23.8994 2489.00
24.2037 2571.00
24.5079 2641.00
24.8122 2668.00
25.1164 2729.00
25.4207 8181.00
25.725 3066.00
26.0292 4946.00
26.3335 2896.00
26.6378 2653.00
26.942 2625.00
27.2463 2751.00
27.5505 5637.00
27.8548 2947.00
28.1591 2692.00
28.4633 2605.00
28.7676 2771.00
29.0718 2616.00
29.3761 2533.00
29.6804 2636.00
29.9846 3778.00
30.2889 2663.00
30.5931 3018.00
30.8974 2612.00
31.2017 2549.00
31.5059 2894.00
31.8102 3494.00
32.1144 2743.00
32.4187 3186.00
32.723 2955.00
33.0272 5187.00
33.3315 6543.00
33.6357 2545.00
33.94 2488.00
34.2443 2574.00
34.5485 2633.00
34.8528 3258.00
35.157 2826.00
35.4613 6070.00
35.7656 2939.00
36.0698 2696.00
36.3741 3153.00
36.6783 3357.00
36.9826 4289.00
37.2869 2780.00
37.5911 2376.00
37.8954 2390.00
38.1996 2363.00
38.5039 3256.00
38.8082 2389.00
39.1124 2348.00
39.4167 2391.00
39.7209 2796.00
40.0252 3191.00
40.3295 2401.00
40.6337 2551.00
40.938 2463.00
41.2422 2292.00
41.5465 2637.00
41.8508 2465.00
42.155 2265.00
42.4593 2583.00
42.7635 2453.00
43.0678 2614.00
43.3721 3911.00
43.6763 3426.00
43.9806 2651.00
44.2849 3962.00
44.5891 3607.00
44.8934 2569.00
45.1976 2406.00
45.5019 2665.00
45.8062 2713.00
46.1104 3050.00
46.4147 2314.00
46.7189 2683.00
47.0232 2993.00
47.3275 2347.00
47.6317 2468.00
47.936 3645.00
48.2402 2731.00
48.5445 2415.00
48.8488 2506.00
49.153 3927.00
49.4573 2799.00
49.7615 2848.00
50.0658 2869.00
50.3701 3259.00
50.6743 2815.00
50.9786 2491.00
51.2828 2252.00
51.5871 2278.00
51.8914 2501.00
52.1956 2320.00
52.4999 2239.00
52.8041 2297.00
53.1084 2329.00
53.4127 2311.00
53.7169 2260.00
54.0212 2488.00
54.3254 2399.00
54.6297 2358.00
54.934 2326.00
55.2382 2537.00
55.5425 3786.00
55.8467 2553.00
56.151 2332.00
56.4553 2455.00
56.7595 2352.00
57.0638 2400.00
57.368 2506.00
57.6723 2682.00
57.9766 2387.00
58.2808 2348.00
58.5851 2320.00
58.8893 3416.00
59.1936 3030.00
59.4979 2359.00
59.8021 2379.00
60.1064 2899.00
60.4106 3341.00
60.7149 2623.00
61.0192 2416.00
61.3234 2310.00
61.6277 2245.00
61.932 2311.00
62.2362 2301.00
62.5405 2350.00
62.8447 2452.00
63.149 2391.00
63.4533 2355.00
63.7575 2250.00
64.0618 2444.00
64.366 2699.00
64.6703 2394.00
64.9745 2764.00
65.2788 2555.00
65.5831 2560.00
65.8873 2584.00
66.1916 2755.00
66.4959 2423.00
66.8001 2536.00
67.1044 2430.00
67.4086 2262.00
67.7129 2456.00
68.0172 2191.00
68.3214 2232.00
68.6257 2201.00
68.9299 2411.00
69.2342 3044.00
69.5385 2359.00
69.8427 2132.00
70.147 2253.00
70.4512 2199.00
70.7555 2219.00
71.0598 2229.00
71.364 2258.00
71.6683 2186.00
71.9725 2191.00
72.2768 2740.00
72.5811 2329.00
72.8853 2237.00
73.1896 2286.00
73.4938 2266.00
73.7981 2511.00
74.1024 2878.00
74.4066 2596.00
74.7109 2964.00
75.0151 2693.00
75.3194 2410.00
75.6237 2542.00
75.9279 2422.00
76.2322 2516.00
76.5364 2380.00
76.8407 2349.00
77.145 2204.00
77.4492 2294.00
77.7535 2255.00
78.0577 2400.00
78.362 2234.00
78.6663 2389.00
78.9705 2134.00
79.2748 2203.00
79.579 2146.00
79.8833 2371.00
80.1876 2438.00
80.4918 2423.00
80.7961 2247.00
81.1003 2305.00
81.4046 2255.00
81.7089 2178.00
82.0131 2311.00
82.3174 2426.00
82.6217 2395.00
82.9259 2304.00
83.2302 2373.00
83.5344 2496.00
83.8387 2391.00
84.143 2307.00
84.4472 2422.00
84.7515 2378.00
85.0557 2464.00
85.36 2413.00
85.6643 2405.00
85.9685 2281.00
86.2728 2292.00
86.577 2277.00
86.8813 2232.00
87.1856 2236.00
87.4898 2220.00
87.7941 2265.00
88.0983 2218.00
88.4026 2265.00
88.7069 2325.00
89.0111 2272.00
89.3154 2352.00
89.6196 2291.00
89.9239 2303.00
90.2282 2251.00
90.5324 2222.00
90.8367 2209.00
91.1409 2359.00
91.4452 2282.00
91.7495 2192.00
92.0537 2285.00
92.358 2126.00
92.6622 2228.00
92.9665 2204.00
93.2708 2306.00
93.575 2340.00
93.8793 2227.00
94.1835 2430.00
94.4878 2386.00
94.7921 2441.00
95.0963 2613.00
95.4006 2490.00
95.7048 2280.00
96.0091 2280.00
96.3134 2241.00
96.6176 2184.00
96.9219 2363.00
97.2261 2416.00
97.5304 2314.00
97.8347 2251.00
98.1389 2236.00
98.4432 2402.00
98.7474 2214.00
99.0517 2299.00
99.356 2264.00
99.6602 2255.00
99.9645 2222.00
100.095 2130.00

File: PG_2646-1.xy
9.903433 2669.00
10.2077 2464.00
10.512 2378.00
10.8162 2313.00
11.1205 2177.00
11.4247 2126.00
11.729 2116.00
12.0333 1936.00
12.3375 1970.00
12.6418 1883.00
12.946 1772.00
13.2503 1786.00
13.5546 1734.00
13.8588 1684.00
14.1631 1663.00
14.4673 1713.00
14.7716 1612.00
15.0759 1627.00
15.3801 1550.00
15.6844 1535.00
15.9886 1593.00
16.2929 1529.00
16.5972 1523.00
16.9014 1401.00
17.2057 1469.00
17.5099 1387.00
17.8142 1403.00
18.1185 1384.00
18.4227 1338.00
18.727 1373.00
19.0312 1286.00
19.3355 1236.00
19.6398 1298.00
19.944 1171.00
20.2483 1212.00
20.5525 1166.00
20.8568 1114.00
21.1611 1156.00
21.4653 1083.00
21.7696 1092.00
22.0738 1086.00
22.3781 1180.00
22.6824 1011.00
22.9866 1069.00
23.2909 1074.00
23.5951 1351.00
23.8994 1290.00
24.2037 1052.00
24.5079 1016.00
24.8122 942.00
25.1164 992.00
25.4207 899.00
25.725 994.00
26.0292 917.00
26.3335 902.00
26.6378 897.00
26.942 907.00
27.2463 903.00
27.5505 1296.00
27.8548 1046.00
28.1591 881.00
28.4633 888.00
28.7676 828.00
29.0718 847.00
29.3761 848.00
29.6804 905.00
29.9846 814.00
30.2889 747.00
30.5931 869.00
30.8974 832.00
31.2017 796.00
31.5059 734.00
31.8102 783.00
32.1144 1481.00
32.4187 3257.00
32.723 832.00
33.0272 700.00
33.3315 783.00
33.6357 788.00
33.94 753.00
34.2443 740.00
34.5485 789.00
34.8528 955.00
35.157 2940.00
35.4613 804.00
35.7656 742.00
36.0698 799.00
36.3741 1165.00
36.6783 736.00
36.9826 703.00
37.2869 719.00
37.5911 739.00
37.8954 731.00
38.1996 661.00
38.5039 704.00
38.8082 753.00
39.1124 693.00
39.4167 725.00
39.7209 726.00
40.0252 1366.00
40.3295 763.00
40.6337 693.00
40.938 695.00
41.2422 813.00
41.5465 836.00
41.8508 652.00
42.155 649.00
42.4593 660.00
42.7635 719.00
43.0678 638.00
43.3721 683.00
43.6763 693.00
43.9806 689.00
44.2849 762.00
44.5891 655.00
44.8934 688.00
45.1976 644.00
45.5019 688.00
45.8062 631.00
46.1104 661.00
46.4147 673.00
46.7189 628.00
47.0232 679.00
47.3275 607.00
47.6317 683.00
47.936 700.00
48.2402 1287.00
48.5445 1284.00
48.8488 676.00
49.153 686.00
49.4573 699.00
49.7615 653.00
50.0658 666.00
50.3701 684.00
50.6743 667.00
50.9786 669.00
51.2828 680.00
51.5871 708.00
51.8914 667.00
52.1956 742.00
52.4999 1813.00
52.8041 1173.00
53.1084 686.00
53.4127 654.00
53.7169 690.00
54.0212 636.00
54.3254 749.00
54.6297 1391.00
54.934 697.00
55.2382 740.00
55.5425 943.00
55.8467 798.00
56.151 701.00
56.4553 743.00
56.7595 812.00
57.0638 826.00
57.368 761.00
57.6723 685.00
57.9766 675.00
58.2808 664.00
58.5851 685.00
58.8893 692.00
59.1936 723.00
59.4979 735.00
59.8021 656.00
60.1064 701.00
60.4106 690.00
60.7149 765.00
61.0192 1743.00
61.3234 1017.00
61.6277 740.00
61.932 738.00
62.2362 678.00
62.5405 820.00
62.8447 1952.00
63.149 872.00
63.4533 699.00
63.7575 706.00
64.0618 675.00
64.366 787.00
64.6703 718.00
64.9745 723.00
65.2788 725.00
65.5831 715.00
65.8873 686.00
66.1916 670.00
66.4959 672.00
66.8001 706.00
67.1044 724.00
67.4086 860.00
67.7129 745.00
68.0172 740.00
68.3214 749.00
68.6257 739.00
68.9299 738.00
69.2342 1357.00
69.5385 887.00
69.8427 908.00
70.147 827.00
70.4512 702.00
70.7555 746.00
71.0598 702.00
71.364 730.00
71.6683 762.00
71.9725 747.00
72.2768 738.00
72.5811 676.00
72.8853 747.00
73.1896 711.00
73.4938 735.00
73.7981 820.00
74.1024 890.00
74.4066 736.00
74.7109 736.00
75.0151 753.00
75.3194 732.00
75.6237 813.00
75.9279 811.00
76.2322 704.00
76.5364 788.00
76.8407 831.00
77.145 776.00
77.4492 698.00
77.7535 752.00
78.0577 795.00
78.362 853.00
78.6663 856.00
78.9705 708.00
79.2748 700.00
79.579 739.00
79.8833 945.00
80.1876 855.00
80.4918 754.00
80.7961 763.00
81.1003 723.00
81.4046 775.00
81.7089 730.00
82.0131 743.00
82.3174 768.00
82.6217 864.00
82.9259 1132.00
83.2302 828.00
83.5344 746.00
83.8387 771.00
84.143 751.00
84.4472 839.00
84.7515 832.00
85.0557 800.00
85.36 778.00
85.6643 827.00
85.9685 892.00
86.2728 931.00
86.577 847.00
86.8813 752.00
87.1856 771.00
87.4898 797.00
87.7941 752.00
88.0983 777.00
88.4026 840.00
88.7069 779.00
89.0111 804.00
89.3154 809.00
89.6196 826.00
89.9239 854.00
90.2282 1084.00
90.5324 983.00
90.8367 856.00
91.1409 849.00
91.4452 780.00
91.7495 783.00
92.0537 813.00
92.358 794.00
92.6622 855.00
92.9665 817.00
93.2708 850.00
93.575 861.00
93.8793 876.00
94.1835 793.00
94.4878 806.00
94.7921 831.00
95.0963 856.00
95.4006 887.00
95.7048 870.00
96.0091 811.00
96.3134 904.00
96.6176 871.00
96.9219 835.00
97.2261 800.00
97.5304 887.00
97.8347 833.00
98.1389 815.00
98.4432 850.00
98.7474 889.00
99.0517 963.00
99.356 861.00
99.6602 867.00
99.9645 866.00
100.095 894.00

File: PG_2647-1.xy
9.903433 2730.00
10.2077 2711.00
10.512 2597.00
10.8162 2543.00
11.1205 2391.00
11.4247 2248.00
11.729 2246.00
12.0333 2117.00
12.3375 2087.00
12.6418 2051.00
12.946 2106.00
13.2503 1962.00
13.5546 1958.00
13.8588 1896.00
14.1631 1902.00
14.4673 1924.00
14.7716 1850.00
15.0759 1814.00
15.3801 1801.00
15.6844 2095.00
15.9886 1787.00
16.2929 1752.00
16.5972 1754.00
16.9014 1772.00
17.2057 2007.00
17.5099 1650.00
17.8142 1591.00
18.1185 1662.00
18.4227 1618.00
18.727 1585.00
19.0312 1594.00
19.3355 1531.00
19.6398 1572.00
19.944 1565.00
20.2483 1773.00
20.5525 2300.00
20.8568 2217.00
21.1611 1458.00
21.4653 1452.00
21.7696 1482.00
22.0738 1823.00
22.3781 1396.00
22.6824 1434.00
22.9866 1452.00
23.2909 1415.00
23.5951 1398.00
23.8994 1405.00
24.2037 1360.00
24.5079 1406.00
24.8122 1372.00
25.1164 1333.00
25.4207 1307.00
25.725 1370.00
26.0292 1355.00
26.3335 1376.00
26.6378 1330.00
26.942 1344.00
27.2463 1389.00
27.5505 2994.00
27.8548 5932.00
28.1591 1421.00
28.4633 2879.00
28.7676 1386.00
29.0718 1444.00
29.3761 1745.00
29.6804 3538.00
29.9846 1340.00
30.2889 1249.00
30.5931 1229.00
30.8974 1269.00
31.2017 1423.00
31.5059 1216.00
31.8102 1229.00
32.1144 1135.00
32.4187 1147.00
32.723 1296.00
33.0272 2004.00
33.3315 1120.00
33.6357 1209.00
33.94 1420.00
34.2443 1204.00
34.5485 2095.00
34.8528 1178.00
35.157 1056.00
35.4613 1179.00
35.7656 1116.00
36.0698 1214.00
36.3741 1126.00
36.6783 1108.00
36.9826 1538.00
37.2869 1305.00
37.5911 1201.00
37.8954 1122.00
38.1996 1269.00
38.5039 1137.00
38.8082 1225.00
39.1124 1307.00
39.4167 1069.00
39.7209 1078.00
40.0252 1120.00
40.3295 1138.00
40.6337 1490.00
40.938 1239.00
41.2422 1398.00
41.5465 1188.00
41.8508 1387.00
42.155 1279.00
42.4593 1347.00
42.7635 1138.00
43.0678 1697.00
43.3721 1019.00
43.6763 1179.00
43.9806 1143.00
44.2849 1040.00
44.5891 1153.00
44.8934 1002.00
45.1976 1066.00
45.5019 1065.00
45.8062 1200.00
46.1104 1096.00
46.4147 1538.00
46.7189 1054.00
47.0232 999.00
47.3275 1092.00
47.6317 1318.00
47.936 1174.00
48.2402 1185.00
48.5445 1247.00
48.8488 1024.00
49.153 1050.00
49.4573 1015.00
49.7615 1064.00
50.0658 1081.00
50.3701 1066.00
50.6743 1053.00
50.9786 1055.00
51.2828 1203.00
51.5871 1164.00
51.8914 1403.00
52.1956 1199.00
52.4999 1164.00
52.8041 1316.00
53.1084 1051.00
53.4127 1038.00
53.7169 1056.00
54.0212 1467.00
54.3254 1058.00
54.6297 1295.00
54.934 1013.00
55.2382 998.00
55.5425 1059.00
55.8467 1129.00
56.151 1198.00
56.4553 1104.00
56.7595 1520.00
57.0638 1102.00
57.368 1087.00
57.6723 1141.00
57.9766 1095.00
58.2808 1012.00
58.5851 1100.00
58.8893 1004.00
59.1936 1065.00
59.4979 1930.00
59.8021 1237.00
60.1064 1532.00
60.4106 1120.00
60.7149 1161.00
61.0192 1243.00
61.3234 1522.00
61.6277 1165.00
61.932 1329.00
62.2362 1077.00
62.5405 978.00
62.8447 1024.00
63.149 1036.00
63.4533 1011.00
63.7575 1211.00
64.0618 1077.00
64.366 1147.00
64.6703 1194.00
64.9745 1617.00
65.2788 1261.00
65.5831 1123.00
65.8873 1109.00
66.1916 970.00
66.4959 1062.00
66.8001 1016.00
67.1044 1021.00
67.4086 1022.00
67.7129 964.00
68.0172 1102.00
68.3214 1005.00
68.6257 1058.00
68.9299 1159.00
69.2342 1433.00
69.5385 1075.00
69.8427 1070.00
70.147 1082.00
70.4512 1048.00
70.7555 1126.00
71.0598 1023.00
71.364 1115.00
71.6683 1019.00
71.9725 1074.00
72.2768 1159.00
72.5811 1053.00
72.8853 1104.00
73.1896 1124.00
73.4938 1198.00
73.7981 1068.00
74.1024 967.00
74.4066 1043.00
74.7109 1001.00
75.0151 1161.00
75.3194 1120.00
75.6237 1064.00
75.9279 1062.00
76.2322 1255.00
76.5364 1114.00
76.8407 1054.00
77.145 1069.00
77.4492 985.00
77.7535 1079.00
78.0577 1101.00
78.362 1103.00
78.6663 1075.00
78.9705 1075.00
79.2748 1078.00
79.579 1079.00
79.8833 1013.00
80.1876 1082.00
80.4918 1047.00
80.7961 1046.00
81.1003 1166.00
81.4046 1028.00
81.7089 1139.00
82.0131 1090.00
82.3174 1037.00
82.6217 1013.00
82.9259 1047.00
83.2302 1123.00
83.5344 1043.00
83.8387 1078.00
84.143 1090.00
84.4472 1053.00
84.7515 1059.00
85.0557 1065.00
85.36 1021.00
85.6643 1078.00
85.9685 1110.00
86.2728 1119.00
86.577 1051.00
86.8813 1034.00
87.1856 1174.00
87.4898 1190.00
87.7941 1120.00
88.0983 1053.00
88.4026 1049.00
88.7069 1044.00
89.0111 1065.00
89.3154 1029.00
89.6196 1111.00
89.9239 1102.00
90.2282 1005.00
90.5324 1054.00
90.8367 1111.00
91.1409 1097.00
91.4452 1053.00
91.7495 1120.00
92.0537 1274.00
92.358 1148.00
92.6622 1064.00
92.9665 1093.00
93.2708 1151.00
93.575 1162.00
93.8793 1145.00
94.1835 1143.00
94.4878 1111.00
94.7921 1156.00
95.0963 1107.00
95.4006 1095.00
95.7048 1064.00
96.0091 1090.00
96.3134 1087.00
96.6176 1094.00
96.9219 1161.00
97.2261 1063.00
97.5304 1057.00
97.8347 1032.00
98.1389 1078.00
98.4432 1061.00
98.7474 1019.00
99.0517 1072.00
99.356 1072.00
99.6602 1033.00
99.9645 1112.00
100.095 1089.00