Folder: alab-pipeline/data/xrd_creation/results (part 58)

File: NSC_129.xy
9.903433 2782.00
10.2077 2786.00
10.512 2579.00
10.8162 2532.00
11.1205 2452.00
11.4247 2431.00
11.729 2369.00
12.0333 2221.00
12.3375 2251.00
12.6418 2103.00
12.946 2208.00
13.2503 2019.00
13.5546 2020.00
13.8588 2016.00
14.1631 2121.00
14.4673 2913.00
14.7716 2504.00
15.0759 3469.00
15.3801 1927.00
15.6844 1894.00
15.9886 1860.00
16.2929 1813.00
16.5972 1783.00
16.9014 1805.00
17.2057 1822.00
17.5099 1754.00
17.8142 1725.00
18.1185 1795.00
18.4227 1774.00
18.727 2239.00
19.0312 2743.00
19.3355 1677.00
19.6398 1816.00
19.944 2965.00
20.2483 2716.00
20.5525 3842.00
20.8568 6568.00
21.1611 2253.00
21.4653 4172.00
21.7696 7991.00
22.0738 2744.00
22.3781 1792.00
22.6824 1650.00
22.9866 1653.00
23.2909 1694.00
23.5951 1652.00
23.8994 3080.00
24.2037 2563.00
24.5079 4089.00
24.8122 4664.00
25.1164 4114.00
25.4207 1956.00
25.725 1598.00
26.0292 1565.00
26.3335 1666.00
26.6378 2331.00
26.942 2153.00
27.2463 1443.00
27.5505 1625.00
27.8548 1550.00
28.1591 1485.00
28.4633 1466.00
28.7676 2349.00
29.0718 2349.00
29.3761 1620.00
29.6804 2246.00
29.9846 3923.00
30.2889 2866.00
30.5931 1903.00
30.8974 2915.00
31.2017 1762.00
31.5059 1589.00
31.8102 2292.00
32.1144 2497.00
32.4187 1562.00
32.723 2010.00
33.0272 4187.00
33.3315 3278.00
33.6357 1830.00
33.94 1826.00
34.2443 1478.00
34.5485 1457.00
34.8528 1341.00
35.157 1364.00
35.4613 1544.00
35.7656 2298.00
36.0698 2615.00
36.3741 4008.00
36.6783 2027.00
36.9826 1844.00
37.2869 2264.00
37.5911 2613.00
37.8954 1909.00
38.1996 2047.00
38.5039 1378.00
38.8082 1284.00
39.1124 1262.00
39.4167 1305.00
39.7209 1607.00
40.0252 1369.00
40.3295 1312.00
40.6337 1382.00
40.938 1287.00
41.2422 1272.00
41.5465 1224.00
41.8508 1578.00
42.155 1445.00
42.4593 1298.00
42.7635 1221.00
43.0678 1227.00
43.3721 1377.00
43.6763 2296.00
43.9806 1541.00
44.2849 1578.00
44.5891 1402.00
44.8934 1253.00
45.1976 1360.00
45.5019 1627.00
45.8062 1950.00
46.1104 1533.00
46.4147 1373.00
46.7189 1588.00
47.0232 1786.00
47.3275 1683.00
47.6317 1887.00
47.936 1705.00
48.2402 1759.00
48.5445 2078.00
48.8488 2011.00
49.153 1841.00
49.4573 1791.00
49.7615 2797.00
50.0658 1506.00
50.3701 1540.00
50.6743 1775.00
50.9786 1876.00
51.2828 1580.00
51.5871 1459.00
51.8914 1411.00
52.1956 1643.00
52.4999 1552.00
52.8041 1410.00
53.1084 1316.00
53.4127 1301.00
53.7169 1340.00
54.0212 1532.00
54.3254 1985.00
54.6297 1937.00
54.934 2363.00
55.2382 1731.00
55.5425 1457.00
55.8467 1457.00
56.151 1738.00
56.4553 1682.00
56.7595 1352.00
57.0638 1340.00
57.368 1458.00
57.6723 1559.00
57.9766 1631.00
58.2808 2221.00
58.5851 2714.00
58.8893 1890.00
59.1936 1648.00
59.4979 1689.00
59.8021 1490.00
60.1064 1274.00
60.4106 1279.00
60.7149 1438.00
61.0192 1435.00
61.3234 1461.00
61.6277 1501.00
61.932 1497.00
62.2362 1428.00
62.5405 1361.00
62.8447 1374.00
63.149 1805.00
63.4533 1932.00
63.7575 1721.00
64.0618 1728.00
64.366 1772.00
64.6703 1501.00
64.9745 1456.00
65.2788 1597.00
65.5831 1584.00
65.8873 1536.00
66.1916 1418.00
66.4959 1232.00
66.8001 1417.00
67.1044 1456.00
67.4086 1788.00
67.7129 1718.00
68.0172 1481.00
68.3214 1486.00
68.6257 1740.00
68.9299 1480.00
69.2342 1430.00
69.5385 1280.00
69.8427 1277.00
70.147 1416.00
70.4512 1306.00
70.7555 1357.00
71.0598 1235.00
71.364 1247.00
71.6683 1248.00
71.9725 1260.00
72.2768 1409.00
72.5811 1291.00
72.8853 1444.00
73.1896 1245.00
73.4938 1172.00
73.7981 1285.00
74.1024 1110.00
74.4066 1184.00
74.7109 1199.00
75.0151 1356.00
75.3194 1347.00
75.6237 1451.00
75.9279 1541.00
76.2322 1417.00
76.5364 1311.00
76.8407 1349.00
77.145 1407.00
77.4492 1207.00
77.7535 1157.00
78.0577 1232.00
78.362 1305.00
78.6663 1244.00
78.9705 1266.00
79.2748 1237.00
79.579 1346.00
79.8833 1388.00
80.1876 1219.00
80.4918 1279.00
80.7961 1247.00
81.1003 1263.00
81.4046 1148.00
81.7089 1138.00
82.0131 1213.00
82.3174 1173.00
82.6217 1267.00
82.9259 1165.00
83.2302 1205.00
83.5344 1205.00
83.8387 1275.00
84.143 1376.00
84.4472 1299.00
84.7515 1372.00
85.0557 1360.00
85.36 1310.00
85.6643 1205.00
85.9685 1269.00
86.2728 1302.00
86.577 1236.00
86.8813 1253.00
87.1856 1199.00
87.4898 1178.00
87.7941 1200.00
88.0983 1183.00
88.4026 1176.00
88.7069 1194.00
89.0111 1287.00
89.3154 1341.00
89.6196 1263.00
89.9239 1164.00
90.2282 1223.00
90.5324 1270.00
90.8367 1272.00
91.1409 1399.00
91.4452 1376.00
91.7495 1353.00
92.0537 1453.00
92.358 1355.00
92.6622 1220.00
92.9665 1222.00
93.2708 1230.00
93.575 1227.00
93.8793 1180.00
94.1835 1190.00
94.4878 1170.00
94.7921 1159.00
95.0963 1249.00
95.4006 1238.00
95.7048 1245.00
96.0091 1248.00
96.3134 1196.00
96.6176 1219.00
96.9219 1280.00
97.2261 1217.00
97.5304 1208.00
97.8347 1258.00
98.1389 1201.00
98.4432 1170.00
98.7474 1193.00
99.0517 1149.00
99.356 1197.00
99.6602 1192.00
99.9645 1189.00
100.095 1175.00

File: NSC_130.xy
9.903433 2913.00
10.2077 2785.00
10.512 2724.00
10.8162 2576.00
11.1205 2537.00
11.4247 2496.00
11.729 2392.00
12.0333 2278.00
12.3375 2262.00
12.6418 2295.00
12.946 2227.00
13.2503 2188.00
13.5546 2126.00
13.8588 2169.00
14.1631 2325.00
14.4673 3696.00
14.7716 3167.00
15.0759 3616.00
15.3801 2421.00
15.6844 2010.00
15.9886 1962.00
16.2929 2002.00
16.5972 1920.00
16.9014 1973.00
17.2057 1939.00
17.5099 1987.00
17.8142 1933.00
18.1185 1899.00
18.4227 1873.00
18.727 2308.00
19.0312 2806.00
19.3355 1912.00
19.6398 2168.00
19.944 4737.00
20.2483 3388.00
20.5525 6757.00
20.8568 8857.00
21.1611 3884.00
21.4653 6145.00
21.7696 7959.00
22.0738 3077.00
22.3781 1934.00
22.6824 1804.00
22.9866 1800.00
23.2909 1725.00
23.5951 1879.00
23.8994 3659.00
24.2037 2715.00
24.5079 4346.00
24.8122 5088.00
25.1164 3576.00
25.4207 2613.00
25.725 1656.00
26.0292 1729.00
26.3335 1661.00
26.6378 2183.00
26.942 1919.00
27.2463 1622.00
27.5505 1610.00
27.8548 1584.00
28.1591 1595.00
28.4633 1732.00
28.7676 3434.00
29.0718 2661.00
29.3761 2182.00
29.6804 3257.00
29.9846 4351.00
30.2889 2681.00
30.5931 2254.00
30.8974 2839.00
31.2017 1640.00
31.5059 1829.00
31.8102 3468.00
32.1144 2568.00
32.4187 1921.00
32.723 2883.00
33.0272 4899.00
33.3315 3225.00
33.6357 2336.00
33.94 1868.00
34.2443 1578.00
34.5485 1682.00
34.8528 1468.00
35.157 1532.00
35.4613 2019.00
35.7656 2758.00
36.0698 3131.00
36.3741 4257.00
36.6783 2299.00
36.9826 2741.00
37.2869 2749.00
37.5911 2954.00
37.8954 2054.00
38.1996 1916.00
38.5039 1563.00
38.8082 1482.00
39.1124 1314.00
39.4167 1368.00
39.7209 1591.00
40.0252 1391.00
40.3295 1469.00
40.6337 1435.00
40.938 1316.00
41.2422 1370.00
41.5465 1469.00
41.8508 1935.00
42.155 1731.00
42.4593 1434.00
42.7635 1395.00
43.0678 1405.00
43.3721 1693.00
43.6763 2727.00
43.9806 1703.00
44.2849 1705.00
44.5891 1535.00
44.8934 1470.00
45.1976 1536.00
45.5019 1885.00
45.8062 1997.00
46.1104 1523.00
46.4147 1561.00
46.7189 2042.00
47.0232 2024.00
47.3275 2222.00
47.6317 2068.00
47.936 1755.00
48.2402 1981.00
48.5445 2611.00
48.8488 2203.00
49.153 2071.00
49.4573 1894.00
49.7615 2766.00
50.0658 1533.00
50.3701 1645.00
50.6743 1829.00
50.9786 1796.00
51.2828 1645.00
51.5871 1553.00
51.8914 1709.00
52.1956 1925.00
52.4999 1569.00
52.8041 1476.00
53.1084 1443.00
53.4127 1408.00
53.7169 1626.00
54.0212 1904.00
54.3254 1962.00
54.6297 1770.00
54.934 2193.00
55.2382 1823.00
55.5425 1513.00
55.8467 1653.00
56.151 2028.00
56.4553 1831.00
56.7595 1592.00
57.0638 1544.00
57.368 1790.00
57.6723 1804.00
57.9766 2008.00
58.2808 2449.00
58.5851 2565.00
58.8893 1826.00
59.1936 1680.00
59.4979 1670.00
59.8021 1522.00
60.1064 1392.00
60.4106 1446.00
60.7149 1761.00
61.0192 1618.00
61.3234 1516.00
61.6277 1632.00
61.932 1679.00
62.2362 1465.00
62.5405 1445.00
62.8447 1531.00
63.149 1917.00
63.4533 2008.00
63.7575 1787.00
64.0618 1895.00
64.366 1875.00
64.6703 1794.00
64.9745 1633.00
65.2788 1677.00
65.5831 1674.00
65.8873 1603.00
66.1916 1540.00
66.4959 1513.00
66.8001 1508.00
67.1044 1546.00
67.4086 1833.00
67.7129 1639.00
68.0172 1483.00
68.3214 1567.00
68.6257 1736.00
68.9299 1490.00
69.2342 1466.00
69.5385 1411.00
69.8427 1493.00
70.147 1506.00
70.4512 1392.00
70.7555 1376.00
71.0598 1315.00
71.364 1424.00
71.6683 1382.00
71.9725 1438.00
72.2768 1358.00
72.5811 1406.00
72.8853 1326.00
73.1896 1284.00
73.4938 1260.00
73.7981 1287.00
74.1024 1194.00
74.4066 1237.00
74.7109 1301.00
75.0151 1380.00
75.3194 1382.00
75.6237 1412.00
75.9279 1508.00
76.2322 1454.00
76.5364 1349.00
76.8407 1389.00
77.145 1312.00
77.4492 1251.00
77.7535 1298.00
78.0577 1351.00
78.362 1284.00
78.6663 1326.00
78.9705 1402.00
79.2748 1357.00
79.579 1430.00
79.8833 1498.00
80.1876 1404.00
80.4918 1305.00
80.7961 1292.00
81.1003 1284.00
81.4046 1190.00
81.7089 1272.00
82.0131 1281.00
82.3174 1331.00
82.6217 1316.00
82.9259 1293.00
83.2302 1368.00
83.5344 1323.00
83.8387 1337.00
84.143 1349.00
84.4472 1313.00
84.7515 1356.00
85.0557 1467.00
85.36 1353.00
85.6643 1289.00
85.9685 1335.00
86.2728 1261.00
86.577 1313.00
86.8813 1321.00
87.1856 1283.00
87.4898 1192.00
87.7941 1254.00
88.0983 1211.00
88.4026 1185.00
88.7069 1282.00
89.0111 1311.00
89.3154 1271.00
89.6196 1288.00
89.9239 1314.00
90.2282 1224.00
90.5324 1368.00
90.8367 1318.00
91.1409 1331.00
91.4452 1454.00
91.7495 1403.00
92.0537 1471.00
92.358 1392.00
92.6622 1319.00
92.9665 1239.00
93.2708 1263.00
93.575 1252.00
93.8793 1231.00
94.1835 1239.00
94.4878 1267.00
94.7921 1223.00
95.0963 1291.00
95.4006 1336.00
95.7048 1326.00
96.0091 1254.00
96.3134 1250.00
96.6176 1224.00
96.9219 1334.00
97.2261 1278.00
97.5304 1323.00
97.8347 1356.00
98.1389 1278.00
98.4432 1235.00
98.7474 1234.00
99.0517 1237.00
99.356 1180.00
99.6602 1200.00
99.9645 1241.00
100.095 1234.00

File: NSC_131.xy
9.903433 2806.00
10.2077 2683.00
10.512 2504.00
10.8162 2402.00
11.1205 2548.00
11.4247 2175.00
11.729 2315.00
12.0333 2170.00
12.3375 2050.00
12.6418 2034.00
12.946 1969.00
13.2503 1976.00
13.5546 1931.00
13.8588 1910.00
14.1631 2012.00
14.4673 2406.00
14.7716 2265.00
15.0759 2210.00
15.3801 1854.00
15.6844 1816.00
15.9886 1757.00
16.2929 1723.00
16.5972 1676.00
16.9014 1694.00
17.2057 1684.00
17.5099 1597.00
17.8142 1646.00
18.1185 1632.00
18.4227 1632.00
18.727 1709.00
19.0312 2888.00
19.3355 1622.00
19.6398 1671.00
19.944 2827.00
20.2483 4394.00
20.5525 2556.00
20.8568 5926.00
21.1611 4167.00
21.4653 2217.00
21.7696 3406.00
22.0738 4994.00
22.3781 1634.00
22.6824 1561.00
22.9866 1534.00
23.2909 1495.00
23.5951 1451.00
23.8994 2073.00
24.2037 4178.00
24.5079 3651.00
24.8122 2105.00
25.1164 2812.00
25.4207 2108.00
25.725 1458.00
26.0292 1444.00
26.3335 1339.00
26.6378 1415.00
26.942 2724.00
27.2463 1398.00
27.5505 1330.00
27.8548 1289.00
28.1591 1282.00
28.4633 1321.00
28.7676 1614.00
29.0718 3070.00
29.3761 2514.00
29.6804 1600.00
29.9846 1575.00
30.2889 2553.00
30.5931 1847.00
30.8974 1392.00
31.2017 2404.00
31.5059 1377.00
31.8102 2394.00
32.1144 4294.00
32.4187 2576.00
32.723 1751.00
33.0272 2070.00
33.3315 3010.00
33.6357 1508.00
33.94 1702.00
34.2443 1247.00
34.5485 1333.00
34.8528 1160.00
35.157 1154.00
35.4613 1228.00
35.7656 1613.00
36.0698 2854.00
36.3741 2658.00
36.6783 3897.00
36.9826 1770.00
37.2869 1405.00
37.5911 2047.00
37.8954 1353.00
38.1996 1802.00
38.5039 1474.00
38.8082 1114.00
39.1124 1092.00
39.4167 1060.00
39.7209 1116.00
40.0252 1366.00
40.3295 1237.00
40.6337 1286.00
40.938 1137.00
41.2422 1000.00
41.5465 1135.00
41.8508 1210.00
42.155 1466.00
42.4593 1462.00
42.7635 1327.00
43.0678 1220.00
43.3721 1249.00
43.6763 1964.00
43.9806 1492.00
44.2849 1399.00
44.5891 1411.00
44.8934 1200.00
45.1976 1128.00
45.5019 1239.00
45.8062 1670.00
46.1104 1730.00
46.4147 1399.00
46.7189 1192.00
47.0232 1328.00
47.3275 1553.00
47.6317 1660.00
47.936 1730.00
48.2402 1261.00
48.5445 1408.00
48.8488 1685.00
49.153 1819.00
49.4573 1937.00
49.7615 1678.00
50.0658 2041.00
50.3701 1289.00
50.6743 1180.00
50.9786 1123.00
51.2828 1325.00
51.5871 1419.00
51.8914 1140.00
52.1956 1352.00
52.4999 1749.00
52.8041 1541.00
53.1084 1321.00
53.4127 1164.00
53.7169 1124.00
54.0212 1128.00
54.3254 1222.00
54.6297 1315.00
54.934 1254.00
55.2382 1681.00
55.5425 1300.00
55.8467 1197.00
56.151 1214.00
56.4553 1410.00
56.7595 1566.00
57.0638 1539.00
57.368 1494.00
57.6723 1536.00
57.9766 1406.00
58.2808 1293.00
58.5851 1442.00
58.8893 1711.00
59.1936 1422.00
59.4979 1461.00
59.8021 1429.00
60.1064 1324.00
60.4106 1178.00
60.7149 1094.00
61.0192 1282.00
61.3234 1315.00
61.6277 1329.00
61.932 1168.00
62.2362 1295.00
62.5405 1307.00
62.8447 1397.00
63.149 1524.00
63.4533 1656.00
63.7575 1594.00
64.0618 1358.00
64.366 1247.00
64.6703 1348.00
64.9745 1322.00
65.2788 1437.00
65.5831 1509.00
65.8873 1511.00
66.1916 1287.00
66.4959 1171.00
66.8001 1061.00
67.1044 1113.00
67.4086 1167.00
67.7129 1307.00
68.0172 1325.00
68.3214 1140.00
68.6257 1268.00
68.9299 1383.00
69.2342 1303.00
69.5385 1149.00
69.8427 1150.00
70.147 1125.00
70.4512 1113.00
70.7555 1044.00
71.0598 1004.00
71.364 1002.00
71.6683 960.00
71.9725 982.00
72.2768 985.00
72.5811 1052.00
72.8853 1145.00
73.1896 1173.00
73.4938 1050.00
73.7981 1029.00
74.1024 969.00
74.4066 1066.00
74.7109 1041.00
75.0151 1014.00
75.3194 1070.00
75.6237 1066.00
75.9279 1097.00
76.2322 1090.00
76.5364 1146.00
76.8407 1072.00
77.145 1140.00
77.4492 1163.00
77.7535 1072.00
78.0577 1014.00
78.362 997.00
78.6663 1036.00
78.9705 1072.00
79.2748 1035.00
79.579 1020.00
79.8833 1031.00
80.1876 1025.00
80.4918 1025.00
80.7961 1024.00
81.1003 1002.00
81.4046 1119.00
81.7089 984.00
82.0131 1025.00
82.3174 1109.00
82.6217 1004.00
82.9259 1005.00
83.2302 1068.00
83.5344 1007.00
83.8387 974.00
84.143 954.00
84.4472 999.00
84.7515 994.00
85.0557 991.00
85.36 988.00
85.6643 1121.00
85.9685 1042.00
86.2728 962.00
86.577 1040.00
86.8813 1028.00
87.1856 1076.00
87.4898 1089.00
87.7941 1064.00
88.0983 1051.00
88.4026 1024.00
88.7069 1020.00
89.0111 958.00
89.3154 995.00
89.6196 1006.00
89.9239 1087.00
90.2282 1006.00
90.5324 1016.00
90.8367 1041.00
91.1409 1082.00
91.4452 1069.00
91.7495 1036.00
92.0537 1082.00
92.358 1043.00
92.6622 1160.00
92.9665 1133.00
93.2708 1016.00
93.575 1041.00
93.8793 1014.00
94.1835 1014.00
94.4878 979.00
94.7921 979.00
95.0963 1024.00
95.4006 1052.00
95.7048 974.00
96.0091 1037.00
96.3134 956.00
96.6176 1005.00
96.9219 1014.00
97.2261 1007.00
97.5304 1010.00
97.8347 995.00
98.1389 985.00
98.4432 1019.00
98.7474 1048.00
99.0517 985.00
99.356 973.00
99.6602 929.00
99.9645 994.00
100.095 1014.00

File: NSC_132.xy
9.903433 2924.00
10.2077 2787.00
10.512 2678.00
10.8162 2577.00
11.1205 2627.00
11.4247 2453.00
11.729 2501.00
12.0333 2427.00
12.3375 2361.00
12.6418 2236.00
12.946 2201.00
13.2503 2188.00
13.5546 2264.00
13.8588 2288.00
14.1631 2623.00
14.4673 2405.00
14.7716 2102.00
15.0759 2297.00
15.3801 2574.00
15.6844 2059.00
15.9886 2038.00
16.2929 1963.00
16.5972 1990.00
16.9014 1978.00
17.2057 1938.00
17.5099 1922.00
17.8142 1974.00
18.1185 1902.00
18.4227 2065.00
18.727 2660.00
19.0312 5891.00
19.3355 2108.00
19.6398 3578.00
19.944 5238.00
20.2483 2592.00
20.5525 13510.00
20.8568 3370.00
21.1611 2137.00
21.4653 2165.00
21.7696 6744.00
22.0738 4948.00
22.3781 1998.00
22.6824 1762.00
22.9866 1727.00
23.2909 1856.00
23.5951 3007.00
23.8994 3280.00
24.2037 1940.00
24.5079 4386.00
24.8122 2071.00
25.1164 2150.00
25.4207 5164.00
25.725 1665.00
26.0292 1686.00
26.3335 1717.00
26.6378 1857.00
26.942 2256.00
27.2463 1584.00
27.5505 1521.00
27.8548 1590.00
28.1591 1676.00
28.4633 3462.00
28.7676 2528.00
29.0718 1575.00
29.3761 1531.00
29.6804 1564.00
29.9846 1526.00
30.2889 2044.00
30.5931 3855.00
30.8974 2919.00
31.2017 1936.00
31.5059 9644.00
31.8102 2619.00
32.1144 1589.00
32.4187 1479.00
32.723 1651.00
33.0272 1643.00
33.3315 2604.00
33.6357 2683.00
33.94 2250.00
34.2443 1906.00
34.5485 1412.00
34.8528 1476.00
35.157 1873.00
35.4613 3086.00
35.7656 5689.00
36.0698 3108.00
36.3741 3725.00
36.6783 1812.00
36.9826 1403.00
37.2869 1408.00
37.5911 2142.00
37.8954 1840.00
38.1996 2609.00
38.5039 1767.00
38.8082 1459.00
39.1124 1393.00
39.4167 1308.00
39.7209 1625.00
40.0252 1953.00
40.3295 1272.00
40.6337 1493.00
40.938 1260.00
41.2422 1400.00
41.5465 2032.00
41.8508 2088.00
42.155 1481.00
42.4593 1489.00
42.7635 1334.00
43.0678 1335.00
43.3721 2386.00
43.6763 2316.00
43.9806 1655.00
44.2849 1995.00
44.5891 1401.00
44.8934 1367.00
45.1976 3131.00
45.5019 1547.00
45.8062 1508.00
46.1104 1670.00
46.4147 2269.00
46.7189 1465.00
47.0232 2227.00
47.3275 1352.00
47.6317 1341.00
47.936 1534.00
48.2402 4378.00
48.5445 3085.00
48.8488 1574.00
49.153 1345.00
49.4573 1459.00
49.7615 4395.00
50.0658 1593.00
50.3701 1274.00
50.6743 1345.00
50.9786 1538.00
51.2828 1486.00
51.5871 3338.00
51.8914 2402.00
52.1956 1470.00
52.4999 1334.00
52.8041 1379.00
53.1084 1459.00
53.4127 1296.00
53.7169 1247.00
54.0212 1311.00
54.3254 1433.00
54.6297 2042.00
54.934 3452.00
55.2382 1779.00
55.5425 2427.00
55.8467 2920.00
56.151 1520.00
56.4553 1258.00
56.7595 1242.00
57.0638 1311.00
57.368 1331.00
57.6723 1415.00
57.9766 1331.00
58.2808 1578.00
58.5851 3578.00
58.8893 1651.00
59.1936 1389.00
59.4979 1425.00
59.8021 1409.00
60.1064 2137.00
60.4106 2165.00
60.7149 1416.00
61.0192 1301.00
61.3234 2372.00
61.6277 1758.00
61.932 1508.00
62.2362 1350.00
62.5405 1773.00
62.8447 1673.00
63.149 1737.00
63.4533 1840.00
63.7575 1781.00
64.0618 1833.00
64.366 2028.00
64.6703 1517.00
64.9745 1222.00
65.2788 1496.00
65.5831 1628.00
65.8873 1297.00
66.1916 1477.00
66.4959 2298.00
66.8001 1405.00
67.1044 1170.00
67.4086 1688.00
67.7129 2050.00
68.0172 1648.00
68.3214 1486.00
68.6257 2072.00
68.9299 1479.00
69.2342 1531.00
69.5385 1399.00
69.8427 1240.00
70.147 1147.00
70.4512 1176.00
70.7555 1488.00
71.0598 1287.00
71.364 1696.00
71.6683 1379.00
71.9725 1185.00
72.2768 1160.00
72.5811 1181.00
72.8853 1475.00
73.1896 1281.00
73.4938 1300.00
73.7981 1184.00
74.1024 1501.00
74.4066 1294.00
74.7109 1280.00
75.0151 1384.00
75.3194 1568.00
75.6237 1489.00
75.9279 1633.00
76.2322 1381.00
76.5364 1208.00
76.8407 1167.00
77.145 1438.00
77.4492 1214.00
77.7535 1288.00
78.0577 1321.00
78.362 1075.00
78.6663 1248.00
78.9705 1482.00
79.2748 1664.00
79.579 1446.00
79.8833 1297.00
80.1876 1291.00
80.4918 1189.00
80.7961 1139.00
81.1003 1315.00
81.4046 1410.00
81.7089 1322.00
82.0131 1234.00
82.3174 1275.00
82.6217 1237.00
82.9259 1173.00
83.2302 1159.00
83.5344 1233.00
83.8387 1434.00
84.143 1558.00
84.4472 1392.00
84.7515 1204.00
85.0557 1507.00
85.36 1424.00
85.6643 1259.00
85.9685 1229.00
86.2728 1326.00
86.577 1313.00
86.8813 1302.00
87.1856 1317.00
87.4898 1336.00
87.7941 1300.00
88.0983 1162.00
88.4026 1298.00
88.7069 1240.00
89.0111 1251.00
89.3154 1418.00
89.6196 1371.00
89.9239 1514.00
90.2282 1392.00
90.5324 1338.00
90.8367 1270.00
91.1409 1219.00
91.4452 1297.00
91.7495 1355.00
92.0537 1608.00
92.358 1552.00
92.6622 1341.00
92.9665 1415.00
93.2708 1265.00
93.575 1145.00
93.8793 1211.00
94.1835 1287.00
94.4878 1295.00
94.7921 1206.00
95.0963 1238.00
95.4006 1435.00
95.7048 1375.00
96.0091 1251.00
96.3134 1280.00
96.6176 1312.00
96.9219 1386.00
97.2261 1312.00
97.5304 1153.00
97.8347 1219.00
98.1389 1199.00
98.4432 1182.00
98.7474 1190.00
99.0517 1222.00
99.356 1221.00
99.6602 1347.00
99.9645 1286.00
100.095 1305.00

File: NSC_133.xy
9.903433 2786.00
10.2077 2699.00
10.512 2633.00
10.8162 2544.00
11.1205 2358.00
11.4247 2426.00
11.729 2339.00
12.0333 2390.00
12.3375 2195.00
12.6418 2173.00
12.946 2186.00
13.2503 2067.00
13.5546 1990.00
13.8588 1988.00
14.1631 2030.00
14.4673 2254.00
14.7716 2340.00
15.0759 3483.00
15.3801 1906.00
15.6844 1800.00
15.9886 1829.00
16.2929 1779.00
16.5972 1833.00
16.9014 1804.00
17.2057 1823.00
17.5099 1762.00
17.8142 1814.00
18.1185 1706.00
18.4227 1890.00
18.727 2073.00
19.0312 4223.00
19.3355 1741.00
19.6398 1762.00
19.944 2189.00
20.2483 1933.00
20.5525 3405.00
20.8568 4822.00
21.1611 2172.00
21.4653 4736.00
21.7696 7428.00
22.0738 3318.00
22.3781 1738.00
22.6824 1665.00
22.9866 1628.00
23.2909 1623.00
23.5951 1612.00
23.8994 2330.00
24.2037 2192.00
24.5079 6137.00
24.8122 7983.00
25.1164 4704.00
25.4207 1739.00
25.725 1592.00
26.0292 1511.00
26.3335 1681.00
26.6378 1895.00
26.942 3284.00
27.2463 1520.00
27.5505 1411.00
27.8548 1401.00
28.1591 1467.00
28.4633 1349.00
28.7676 1751.00
29.0718 1586.00
29.3761 1533.00
29.6804 2094.00
29.9846 4451.00
30.2889 1937.00
30.5931 1569.00
30.8974 2138.00
31.2017 1963.00
31.5059 1376.00
31.8102 1983.00
32.1144 1720.00
32.4187 1580.00
32.723 2453.00
33.0272 6868.00
33.3315 2676.00
33.6357 1769.00
33.94 1690.00
34.2443 1280.00
34.5485 1301.00
34.8528 1220.00
35.157 1229.00
35.4613 1308.00
35.7656 1496.00
36.0698 2391.00
36.3741 2687.00
36.6783 2492.00
36.9826 1541.00
37.2869 1862.00
37.5911 2646.00
37.8954 2029.00
38.1996 1835.00
38.5039 1207.00
38.8082 1274.00
39.1124 1092.00
39.4167 1149.00
39.7209 1471.00
40.0252 1197.00
40.3295 1201.00
40.6337 1166.00
40.938 1115.00
41.2422 1168.00
41.5465 1194.00
41.8508 1455.00
42.155 1273.00
42.4593 1077.00
42.7635 1160.00
43.0678 1056.00
43.3721 1424.00
43.6763 2155.00
43.9806 1286.00
44.2849 1488.00
44.5891 1262.00
44.8934 1130.00
45.1976 1284.00
45.5019 1651.00
45.8062 1842.00
46.1104 1211.00
46.4147 1180.00
46.7189 1217.00
47.0232 1479.00
47.3275 1806.00
47.6317 1752.00
47.936 1220.00
48.2402 1251.00
48.5445 2417.00
48.8488 1716.00
49.153 1549.00
49.4573 1318.00
49.7615 2543.00
50.0658 1666.00
50.3701 1609.00
50.6743 2276.00
50.9786 2029.00
51.2828 1470.00
51.5871 1236.00
51.8914 1213.00
52.1956 1185.00
52.4999 1252.00
52.8041 1171.00
53.1084 1220.00
53.4127 1122.00
53.7169 1251.00
54.0212 1694.00
54.3254 1782.00
54.6297 1395.00
54.934 2519.00
55.2382 1516.00
55.5425 1183.00
55.8467 1104.00
56.151 1219.00
56.4553 1140.00
56.7595 1191.00
57.0638 1224.00
57.368 1392.00
57.6723 1508.00
57.9766 1415.00
58.2808 1598.00
58.5851 3216.00
58.8893 2072.00
59.1936 1504.00
59.4979 1293.00
59.8021 1204.00
60.1064 1163.00
60.4106 1173.00
60.7149 1239.00
61.0192 1244.00
61.3234 1192.00
61.6277 1209.00
61.932 1320.00
62.2362 1217.00
62.5405 1091.00
62.8447 1245.00
63.149 1625.00
63.4533 1745.00
63.7575 1444.00
64.0618 1366.00
64.366 1760.00
64.6703 1514.00
64.9745 1428.00
65.2788 1461.00
65.5831 1478.00
65.8873 1240.00
66.1916 1131.00
66.4959 1143.00
66.8001 1177.00
67.1044 1275.00
67.4086 1530.00
67.7129 1666.00
68.0172 1292.00
68.3214 1219.00
68.6257 1678.00
68.9299 1351.00
69.2342 1151.00
69.5385 1162.00
69.8427 1252.00
70.147 1182.00
70.4512 1015.00
70.7555 1140.00
71.0598 1103.00
71.364 1098.00
71.6683 1130.00
71.9725 1207.00
72.2768 1046.00
72.5811 1023.00
72.8853 1124.00
73.1896 1202.00
73.4938 1145.00
73.7981 1020.00
74.1024 1078.00
74.4066 1000.00
74.7109 1077.00
75.0151 1169.00
75.3194 1152.00
75.6237 1152.00
75.9279 1333.00
76.2322 1270.00
76.5364 1084.00
76.8407 1085.00
77.145 1246.00
77.4492 1111.00
77.7535 1120.00
78.0577 1138.00
78.362 1108.00
78.6663 1032.00
78.9705 1051.00
79.2748 1134.00
79.579 1133.00
79.8833 1181.00
80.1876 1093.00
80.4918 1150.00
80.7961 982.00
81.1003 1027.00
81.4046 1024.00
81.7089 1042.00
82.0131 1081.00
82.3174 1088.00
82.6217 1052.00
82.9259 979.00
83.2302 1088.00
83.5344 1063.00
83.8387 1044.00
84.143 1077.00
84.4472 1123.00
84.7515 1001.00
85.0557 1130.00
85.36 1154.00
85.6643 1156.00
85.9685 1114.00
86.2728 1101.00
86.577 1042.00
86.8813 996.00
87.1856 1029.00
87.4898 1022.00
87.7941 1000.00
88.0983 1033.00
88.4026 990.00
88.7069 931.00
89.0111 1147.00
89.3154 1225.00
89.6196 1198.00
89.9239 1032.00
90.2282 1054.00
90.5324 1053.00
90.8367 1145.00
91.1409 1170.00
91.4452 1107.00
91.7495 1086.00
92.0537 1182.00
92.358 1225.00
92.6622 1146.00
92.9665 1012.00
93.2708 970.00
93.575 997.00
93.8793 1094.00
94.1835 1022.00
94.4878 1057.00
94.7921 1035.00
95.0963 1044.00
95.4006 1108.00
95.7048 1096.00
96.0091 1066.00
96.3134 1003.00
96.6176 1023.00
96.9219 1025.00
97.2261 1083.00
97.5304 1007.00
97.8347 978.00
98.1389 1036.00
98.4432 985.00
98.7474 1010.00
99.0517 973.00
99.356 981.00
99.6602 1005.00
99.9645 999.00
100.095 1050.00