Folder: alab-pipeline/data/xrd_creation/results (part 40)

File: NSC_28.xy
9.903433 3001.00
10.2077 2838.00
10.512 2828.00
10.8162 2833.00
11.1205 2576.00
11.4247 2532.00
11.729 2511.00
12.0333 2493.00
12.3375 2349.00
12.6418 2381.00
12.946 2330.00
13.2503 2242.00
13.5546 2217.00
13.8588 2367.00
14.1631 3428.00
14.4673 2564.00
14.7716 2128.00
15.0759 2192.00
15.3801 2148.00
15.6844 2126.00
15.9886 2068.00
16.2929 2030.00
16.5972 2096.00
16.9014 1996.00
17.2057 1986.00
17.5099 1916.00
17.8142 2031.00
18.1185 1929.00
18.4227 1916.00
18.727 1856.00
19.0312 1911.00
19.3355 2189.00
19.6398 5678.00
19.944 3761.00
20.2483 3296.00
20.5525 12907.00
20.8568 2361.00
21.1611 1934.00
21.4653 1875.00
21.7696 1896.00
22.0738 2123.00
22.3781 1786.00
22.6824 1686.00
22.9866 1813.00
23.2909 2082.00
23.5951 8896.00
23.8994 3370.00
24.2037 1790.00
24.5079 1775.00
24.8122 1791.00
25.1164 1794.00
25.4207 2128.00
25.725 1745.00
26.0292 1658.00
26.3335 1815.00
26.6378 1607.00
26.942 1569.00
27.2463 1604.00
27.5505 1620.00
27.8548 1558.00
28.1591 1848.00
28.4633 8073.00
28.7676 2203.00
29.0718 1592.00
29.3761 1493.00
29.6804 1547.00
29.9846 1554.00
30.2889 1679.00
30.5931 1780.00
30.8974 1602.00
31.2017 2595.00
31.5059 12596.00
31.8102 2583.00
32.1144 1596.00
32.4187 1436.00
32.723 1441.00
33.0272 1510.00
33.3315 1660.00
33.6357 1533.00
33.94 1927.00
34.2443 1508.00
34.5485 1493.00
34.8528 1486.00
35.157 3174.00
35.4613 2936.00
35.7656 5259.00
36.0698 1569.00
36.3741 1436.00
36.6783 1315.00
36.9826 1283.00
37.2869 1342.00
37.5911 1343.00
37.8954 1346.00
38.1996 1323.00
38.5039 1385.00
38.8082 1326.00
39.1124 1286.00
39.4167 1239.00
39.7209 1649.00
40.0252 1519.00
40.3295 1309.00
40.6337 1322.00
40.938 1282.00
41.2422 1546.00
41.5465 2181.00
41.8508 1574.00
42.155 1464.00
42.4593 1372.00
42.7635 1333.00
43.0678 2130.00
43.3721 1821.00
43.6763 1283.00
43.9806 1528.00
44.2849 1229.00
44.5891 1386.00
44.8934 1748.00
45.1976 3333.00
45.5019 1402.00
45.8062 1301.00
46.1104 2691.00
46.4147 1695.00
46.7189 1964.00
47.0232 1518.00
47.3275 1249.00
47.6317 1349.00
47.936 2113.00
48.2402 4303.00
48.5445 1699.00
48.8488 1813.00
49.153 1272.00
49.4573 1330.00
49.7615 1304.00
50.0658 1182.00
50.3701 1251.00
50.6743 1325.00
50.9786 1392.00
51.2828 2095.00
51.5871 3474.00
51.8914 2019.00
52.1956 1288.00
52.4999 1283.00
52.8041 1334.00
53.1084 1200.00
53.4127 1176.00
53.7169 1192.00
54.0212 1284.00
54.3254 2147.00
54.6297 1700.00
54.934 1475.00
55.2382 2634.00
55.5425 4197.00
55.8467 2455.00
56.151 1334.00
56.4553 1267.00
56.7595 1381.00
57.0638 1517.00
57.368 1327.00
57.6723 1266.00
57.9766 1224.00
58.2808 1823.00
58.5851 1792.00
58.8893 1350.00
59.1936 1240.00
59.4979 1241.00
59.8021 1588.00
60.1064 2482.00
60.4106 1515.00
60.7149 1312.00
61.0192 2029.00
61.3234 2415.00
61.6277 1479.00
61.932 1322.00
62.2362 1640.00
62.5405 1948.00
62.8447 1429.00
63.149 1360.00
63.4533 1671.00
63.7575 1955.00
64.0618 1878.00
64.366 1416.00
64.6703 1219.00
64.9745 1286.00
65.2788 1453.00
65.5831 1336.00
65.8873 1306.00
66.1916 1872.00
66.4959 1782.00
66.8001 1215.00
67.1044 1206.00
67.4086 1582.00
67.7129 1522.00
68.0172 1570.00
68.3214 1241.00
68.6257 1263.00
68.9299 1460.00
69.2342 1397.00
69.5385 1172.00
69.8427 1104.00
70.147 1090.00
70.4512 1103.00
70.7555 1234.00
71.0598 1771.00
71.364 1705.00
71.6683 1209.00
71.9725 1183.00
72.2768 1202.00
72.5811 1197.00
72.8853 1111.00
73.1896 1131.00
73.4938 1263.00
73.7981 1509.00
74.1024 1379.00
74.4066 1242.00
74.7109 1258.00
75.0151 1710.00
75.3194 1654.00
75.6237 1534.00
75.9279 1321.00
76.2322 1207.00
76.5364 1102.00
76.8407 1187.00
77.145 1155.00
77.4492 1204.00
77.7535 1137.00
78.0577 1109.00
78.362 1167.00
78.6663 1442.00
78.9705 1567.00
79.2748 1378.00
79.579 1242.00
79.8833 1148.00
80.1876 1138.00
80.4918 1153.00
80.7961 1242.00
81.1003 1491.00
81.4046 1292.00
81.7089 1201.00
82.0131 1134.00
82.3174 1115.00
82.6217 1091.00
82.9259 1098.00
83.2302 1205.00
83.5344 1501.00
83.8387 1432.00
84.143 1169.00
84.4472 1154.00
84.7515 1409.00
85.0557 1365.00
85.36 1308.00
85.6643 1269.00
85.9685 1235.00
86.2728 1245.00
86.577 1254.00
86.8813 1255.00
87.1856 1211.00
87.4898 1165.00
87.7941 1151.00
88.0983 1246.00
88.4026 1301.00
88.7069 1167.00
89.0111 1258.00
89.3154 1376.00
89.6196 1637.00
89.9239 1384.00
90.2282 1227.00
90.5324 1178.00
90.8367 1135.00
91.1409 1085.00
91.4452 1287.00
91.7495 1406.00
92.0537 1272.00
92.358 1230.00
92.6622 1269.00
92.9665 1149.00
93.2708 1131.00
93.575 1183.00
93.8793 1353.00
94.1835 1324.00
94.4878 1299.00
94.7921 1211.00
95.0963 1414.00
95.4006 1326.00
95.7048 1235.00
96.0091 1331.00
96.3134 1348.00
96.6176 1405.00
96.9219 1221.00
97.2261 1116.00
97.5304 1126.00
97.8347 1134.00
98.1389 1139.00
98.4432 1042.00
98.7474 1173.00
99.0517 1211.00
99.356 1185.00
99.6602 1310.00
99.9645 1306.00
100.095 1428.00

File: NSC_29.xy
9.903433 3123.00
10.2077 3001.00
10.512 2907.00
10.8162 2786.00
11.1205 2709.00
11.4247 2733.00
11.729 2536.00
12.0333 2616.00
12.3375 2516.00
12.6418 2496.00
12.946 2384.00
13.2503 2307.00
13.5546 2443.00
13.8588 2491.00
14.1631 4674.00
14.4673 2409.00
14.7716 2344.00
15.0759 2253.00
15.3801 2209.00
15.6844 2225.00
15.9886 2215.00
16.2929 2197.00
16.5972 2166.00
16.9014 2189.00
17.2057 2089.00
17.5099 2119.00
17.8142 2133.00
18.1185 2085.00
18.4227 2085.00
18.727 2053.00
19.0312 2077.00
19.3355 2549.00
19.6398 9996.00
19.944 2735.00
20.2483 6970.00
20.5525 4465.00
20.8568 2222.00
21.1611 2035.00
21.4653 1994.00
21.7696 2059.00
22.0738 2196.00
22.3781 2158.00
22.6824 1951.00
22.9866 2130.00
23.2909 2927.00
23.5951 16981.00
23.8994 2289.00
24.2037 2075.00
24.5079 2000.00
24.8122 2020.00
25.1164 1845.00
25.4207 1756.00
25.725 1849.00
26.0292 1783.00
26.3335 1774.00
26.6378 1769.00
26.942 1750.00
27.2463 1738.00
27.5505 1698.00
27.8548 1928.00
28.1591 2692.00
28.4633 10534.00
28.7676 1956.00
29.0718 1727.00
29.3761 1645.00
29.6804 1715.00
29.9846 1741.00
30.2889 1713.00
30.5931 1805.00
30.8974 2017.00
31.2017 7206.00
31.5059 7132.00
31.8102 2600.00
32.1144 1734.00
32.4187 1641.00
32.723 1652.00
33.0272 1629.00
33.3315 1652.00
33.6357 1671.00
33.94 1946.00
34.2443 2030.00
34.5485 1864.00
34.8528 2179.00
35.157 5356.00
35.4613 6162.00
35.7656 2052.00
36.0698 1602.00
36.3741 1598.00
36.6783 1551.00
36.9826 1412.00
37.2869 1451.00
37.5911 1450.00
37.8954 1479.00
38.1996 1445.00
38.5039 1456.00
38.8082 1490.00
39.1124 1385.00
39.4167 1435.00
39.7209 2346.00
40.0252 1418.00
40.3295 1472.00
40.6337 1393.00
40.938 1681.00
41.2422 2345.00
41.5465 2108.00
41.8508 1641.00
42.155 1689.00
42.4593 1453.00
42.7635 1683.00
43.0678 3137.00
43.3721 1473.00
43.6763 1710.00
43.9806 1412.00
44.2849 1403.00
44.5891 1491.00
44.8934 3743.00
45.1976 1777.00
45.5019 1491.00
45.8062 2156.00
46.1104 2316.00
46.4147 1502.00
46.7189 2569.00
47.0232 1609.00
47.3275 1440.00
47.6317 2007.00
47.936 5371.00
48.2402 2023.00
48.5445 1795.00
48.8488 1442.00
49.153 1431.00
49.4573 1544.00
49.7615 1378.00
50.0658 1336.00
50.3701 1725.00
50.6743 1619.00
50.9786 1756.00
51.2828 4484.00
51.5871 2147.00
51.8914 1662.00
52.1956 1377.00
52.4999 1399.00
52.8041 1433.00
53.1084 1218.00
53.4127 1296.00
53.7169 1390.00
54.0212 1865.00
54.3254 2258.00
54.6297 1581.00
54.934 2458.00
55.2382 3776.00
55.5425 3335.00
55.8467 1472.00
56.151 1509.00
56.4553 1525.00
56.7595 1689.00
57.0638 1329.00
57.368 1370.00
57.6723 1324.00
57.9766 1640.00
58.2808 2187.00
58.5851 1722.00
58.8893 1344.00
59.1936 1389.00
59.4979 1571.00
59.8021 2903.00
60.1064 1913.00
60.4106 1525.00
60.7149 1927.00
61.0192 2944.00
61.3234 1532.00
61.6277 1453.00
61.932 1567.00
62.2362 2513.00
62.5405 1714.00
62.8447 1638.00
63.149 1875.00
63.4533 2123.00
63.7575 1937.00
64.0618 1466.00
64.366 1289.00
64.6703 1357.00
64.9745 1469.00
65.2788 1601.00
65.5831 1284.00
65.8873 1690.00
66.1916 2191.00
66.4959 1446.00
66.8001 1337.00
67.1044 1766.00
67.4086 1667.00
67.7129 1863.00
68.0172 1301.00
68.3214 1284.00
68.6257 1558.00
68.9299 1474.00
69.2342 1284.00
69.5385 1236.00
69.8427 1278.00
70.147 1277.00
70.4512 1391.00
70.7555 1835.00
71.0598 1790.00
71.364 1393.00
71.6683 1266.00
71.9725 1327.00
72.2768 1257.00
72.5811 1188.00
72.8853 1203.00
73.1896 1269.00
73.4938 1665.00
73.7981 1760.00
74.1024 1339.00
74.4066 1421.00
74.7109 1810.00
75.0151 1722.00
75.3194 1733.00
75.6237 1338.00
75.9279 1255.00
76.2322 1274.00
76.5364 1251.00
76.8407 1264.00
77.145 1290.00
77.4492 1188.00
77.7535 1235.00
78.0577 1414.00
78.362 1634.00
78.6663 1690.00
78.9705 1461.00
79.2748 1301.00
79.579 1360.00
79.8833 1239.00
80.1876 1252.00
80.4918 1343.00
80.7961 1735.00
81.1003 1330.00
81.4046 1189.00
81.7089 1275.00
82.0131 1291.00
82.3174 1255.00
82.6217 1338.00
82.9259 1434.00
83.2302 1720.00
83.5344 1370.00
83.8387 1277.00
84.143 1337.00
84.4472 1576.00
84.7515 1424.00
85.0557 1414.00
85.36 1387.00
85.6643 1333.00
85.9685 1434.00
86.2728 1338.00
86.577 1479.00
86.8813 1281.00
87.1856 1156.00
87.4898 1219.00
87.7941 1489.00
88.0983 1339.00
88.4026 1288.00
88.7069 1428.00
89.0111 1620.00
89.3154 1842.00
89.6196 1388.00
89.9239 1250.00
90.2282 1339.00
90.5324 1280.00
90.8367 1265.00
91.1409 1404.00
91.4452 1493.00
91.7495 1336.00
92.0537 1264.00
92.358 1245.00
92.6622 1222.00
92.9665 1160.00
93.2708 1286.00
93.575 1514.00
93.8793 1395.00
94.1835 1312.00
94.4878 1323.00
94.7921 1700.00
95.0963 1434.00
95.4006 1295.00
95.7048 1522.00
96.0091 1470.00
96.3134 1356.00
96.6176 1333.00
96.9219 1240.00
97.2261 1188.00
97.5304 1141.00
97.8347 1199.00
98.1389 1197.00
98.4432 1296.00
98.7474 1381.00
99.0517 1351.00
99.356 1322.00
99.6602 1390.00
99.9645 1582.00
100.095 1411.00

File: NSC_30.xy
9.903433 2972.00
10.2077 2958.00
10.512 2790.00
10.8162 2858.00
11.1205 2793.00
11.4247 2703.00
11.729 2573.00
12.0333 2608.00
12.3375 2740.00
12.6418 2465.00
12.946 2269.00
13.2503 2388.00
13.5546 2477.00
13.8588 2593.00
14.1631 4646.00
14.4673 2313.00
14.7716 2310.00
15.0759 2341.00
15.3801 2262.00
15.6844 2259.00
15.9886 2288.00
16.2929 2262.00
16.5972 2207.00
16.9014 2122.00
17.2057 2139.00
17.5099 2179.00
17.8142 2200.00
18.1185 2064.00
18.4227 2157.00
18.727 1994.00
19.0312 2134.00
19.3355 2659.00
19.6398 10172.00
19.944 2705.00
20.2483 7934.00
20.5525 3471.00
20.8568 2165.00
21.1611 2107.00
21.4653 2088.00
21.7696 2136.00
22.0738 2480.00
22.3781 2408.00
22.6824 2064.00
22.9866 2485.00
23.2909 3667.00
23.5951 11247.00
23.8994 2155.00
24.2037 2180.00
24.5079 2014.00
24.8122 2097.00
25.1164 1844.00
25.4207 1814.00
25.725 1687.00
26.0292 1739.00
26.3335 1742.00
26.6378 1733.00
26.942 1752.00
27.2463 1719.00
27.5505 1880.00
27.8548 1843.00
28.1591 3970.00
28.4633 8400.00
28.7676 1918.00
29.0718 1699.00
29.3761 1709.00
29.6804 1769.00
29.9846 1865.00
30.2889 1860.00
30.5931 1882.00
30.8974 2296.00
31.2017 9846.00
31.5059 4628.00
31.8102 3360.00
32.1144 1756.00
32.4187 1655.00
32.723 1599.00
33.0272 1616.00
33.3315 1606.00
33.6357 1751.00
33.94 1832.00
34.2443 2667.00
34.5485 2138.00
34.8528 2702.00
35.157 4136.00
35.4613 5138.00
35.7656 1927.00
36.0698 1671.00
36.3741 1579.00
36.6783 1484.00
36.9826 1560.00
37.2869 1458.00
37.5911 1430.00
37.8954 1430.00
38.1996 1485.00
38.5039 1360.00
38.8082 1575.00
39.1124 1375.00
39.4167 1513.00
39.7209 2132.00
40.0252 1413.00
40.3295 1451.00
40.6337 1499.00
40.938 1882.00
41.2422 2100.00
41.5465 2084.00
41.8508 1567.00
42.155 1631.00
42.4593 1476.00
42.7635 1977.00
43.0678 2248.00
43.3721 1513.00
43.6763 1527.00
43.9806 1467.00
44.2849 1429.00
44.5891 1796.00
44.8934 3342.00
45.1976 1825.00
45.5019 1719.00
45.8062 2414.00
46.1104 1953.00
46.4147 1794.00
46.7189 2099.00
47.0232 1749.00
47.3275 1528.00
47.6317 2643.00
47.936 4053.00
48.2402 1916.00
48.5445 1684.00
48.8488 1473.00
49.153 1454.00
49.4573 1853.00
49.7615 1504.00
50.0658 1426.00
50.3701 2193.00
50.6743 1752.00
50.9786 2226.00
51.2828 3561.00
51.5871 1918.00
51.8914 1509.00
52.1956 1400.00
52.4999 1321.00
52.8041 1409.00
53.1084 1356.00
53.4127 1472.00
53.7169 1475.00
54.0212 1969.00
54.3254 2153.00
54.6297 1846.00
54.934 2724.00
55.2382 3086.00
55.5425 2507.00
55.8467 1761.00
56.151 1594.00
56.4553 1550.00
56.7595 1516.00
57.0638 1372.00
57.368 1526.00
57.6723 1479.00
57.9766 1726.00
58.2808 2004.00
58.5851 1497.00
58.8893 1341.00
59.1936 1496.00
59.4979 1940.00
59.8021 2576.00
60.1064 1806.00
60.4106 1805.00
60.7149 2111.00
61.0192 2229.00
61.3234 1547.00
61.6277 1602.00
61.932 1707.00
62.2362 2199.00
62.5405 1715.00
62.8447 1705.00
63.149 2104.00
63.4533 1986.00
63.7575 1800.00
64.0618 1411.00
64.366 1337.00
64.6703 1413.00
64.9745 1584.00
65.2788 1428.00
65.5831 1527.00
65.8873 1815.00
66.1916 1892.00
66.4959 1402.00
66.8001 1459.00
67.1044 1703.00
67.4086 1600.00
67.7129 1593.00
68.0172 1363.00
68.3214 1363.00
68.6257 1472.00
68.9299 1413.00
69.2342 1312.00
69.5385 1274.00
69.8427 1297.00
70.147 1450.00
70.4512 1564.00
70.7555 1640.00
71.0598 1629.00
71.364 1343.00
71.6683 1252.00
71.9725 1342.00
72.2768 1353.00
72.5811 1206.00
72.8853 1376.00
73.1896 1378.00
73.4938 1540.00
73.7981 1551.00
74.1024 1489.00
74.4066 1459.00
74.7109 1686.00
75.0151 1654.00
75.3194 1673.00
75.6237 1364.00
75.9279 1246.00
76.2322 1258.00
76.5364 1322.00
76.8407 1313.00
77.145 1349.00
77.4492 1332.00
77.7535 1384.00
78.0577 1490.00
78.362 1612.00
78.6663 1503.00
78.9705 1444.00
79.2748 1262.00
79.579 1312.00
79.8833 1271.00
80.1876 1314.00
80.4918 1432.00
80.7961 1523.00
81.1003 1251.00
81.4046 1231.00
81.7089 1250.00
82.0131 1370.00
82.3174 1310.00
82.6217 1367.00
82.9259 1379.00
83.2302 1540.00
83.5344 1408.00
83.8387 1273.00
84.143 1376.00
84.4472 1531.00
84.7515 1393.00
85.0557 1436.00
85.36 1317.00
85.6643 1388.00
85.9685 1382.00
86.2728 1345.00
86.577 1375.00
86.8813 1295.00
87.1856 1245.00
87.4898 1329.00
87.7941 1360.00
88.0983 1346.00
88.4026 1377.00
88.7069 1580.00
89.0111 1547.00
89.3154 1524.00
89.6196 1443.00
89.9239 1386.00
90.2282 1328.00
90.5324 1307.00
90.8367 1264.00
91.1409 1346.00
91.4452 1409.00
91.7495 1283.00
92.0537 1232.00
92.358 1251.00
92.6622 1271.00
92.9665 1313.00
93.2708 1325.00
93.575 1424.00
93.8793 1364.00
94.1835 1382.00
94.4878 1283.00
94.7921 1525.00
95.0963 1375.00
95.4006 1433.00
95.7048 1415.00
96.0091 1353.00
96.3134 1298.00
96.6176 1347.00
96.9219 1254.00
97.2261 1238.00
97.5304 1221.00
97.8347 1234.00
98.1389 1254.00
98.4432 1326.00
98.7474 1350.00
99.0517 1361.00
99.356 1408.00
99.6602 1452.00
99.9645 1480.00
100.095 1472.00

File: NSC_31.xy
9.903433 3028.00
10.2077 2934.00
10.512 2937.00
10.8162 2705.00
11.1205 2637.00
11.4247 2542.00
11.729 2600.00
12.0333 2418.00
12.3375 2398.00
12.6418 2405.00
12.946 2323.00
13.2503 2374.00
13.5546 2346.00
13.8588 2237.00
14.1631 2251.00
14.4673 2453.00
14.7716 3045.00
15.0759 2325.00
15.3801 2165.00
15.6844 2162.00
15.9886 2096.00
16.2929 2109.00
16.5972 2125.00
16.9014 2000.00
17.2057 2113.00
17.5099 2151.00
17.8142 1941.00
18.1185 1997.00
18.4227 1843.00
18.727 1875.00
19.0312 1921.00
19.3355 2576.00
19.6398 2029.00
19.944 2031.00
20.2483 2131.00
20.5525 2097.00
20.8568 3173.00
21.1611 4274.00
21.4653 3170.00
21.7696 1915.00
22.0738 2469.00
22.3781 4979.00
22.6824 1982.00
22.9866 1654.00
23.2909 1752.00
23.5951 1731.00
23.8994 2029.00
24.2037 2101.00
24.5079 2025.00
24.8122 1657.00
25.1164 1622.00
25.4207 1697.00
25.725 2183.00
26.0292 1665.00
26.3335 1574.00
26.6378 1582.00
26.942 1608.00
27.2463 1703.00
27.5505 1688.00
27.8548 2089.00
28.1591 5110.00
28.4633 2561.00
28.7676 1635.00
29.0718 1723.00
29.3761 1582.00
29.6804 1522.00
29.9846 1494.00
30.2889 1776.00
30.5931 4347.00
30.8974 3073.00
31.2017 2110.00
31.5059 3742.00
31.8102 1887.00
32.1144 2422.00
32.4187 1623.00
32.723 2138.00
33.0272 3666.00
33.3315 2739.00
33.6357 2623.00
33.94 3006.00
34.2443 2885.00
34.5485 1962.00
34.8528 1511.00
35.157 1855.00
35.4613 1724.00
35.7656 1607.00
36.0698 1506.00
36.3741 1416.00
36.6783 1546.00
36.9826 1428.00
37.2869 1310.00
37.5911 1264.00
37.8954 1249.00
38.1996 1229.00
38.5039 1450.00
38.8082 1377.00
39.1124 1278.00
39.4167 1389.00
39.7209 1667.00
40.0252 1299.00
40.3295 1388.00
40.6337 1650.00
40.938 2325.00
41.2422 1837.00
41.5465 1707.00
41.8508 1287.00
42.155 1231.00
42.4593 1208.00
42.7635 1389.00
43.0678 1437.00
43.3721 1781.00
43.6763 1278.00
43.9806 1219.00
44.2849 1309.00
44.5891 1387.00
44.8934 1593.00
45.1976 1585.00
45.5019 1923.00
45.8062 1769.00
46.1104 1448.00
46.4147 1506.00
46.7189 1474.00
47.0232 1848.00
47.3275 1568.00
47.6317 1301.00
47.936 1360.00
48.2402 1474.00
48.5445 1191.00
48.8488 1176.00
49.153 1691.00
49.4573 1574.00
49.7615 1175.00
50.0658 1581.00
50.3701 1730.00
50.6743 1572.00
50.9786 1315.00
51.2828 1490.00
51.5871 1294.00
51.8914 1436.00
52.1956 1583.00
52.4999 1369.00
52.8041 1353.00
53.1084 1389.00
53.4127 1501.00
53.7169 1748.00
54.0212 1773.00
54.3254 1398.00
54.6297 1343.00
54.934 1326.00
55.2382 1623.00
55.5425 1530.00
55.8467 1447.00
56.151 1398.00
56.4553 1280.00
56.7595 1145.00
57.0638 1519.00
57.368 1895.00
57.6723 1612.00
57.9766 1495.00
58.2808 1580.00
58.5851 1222.00
58.8893 1251.00
59.1936 1332.00
59.4979 1342.00
59.8021 1800.00
60.1064 1984.00
60.4106 1739.00
60.7149 1402.00
61.0192 1314.00
61.3234 1490.00
61.6277 1226.00
61.932 1296.00
62.2362 1306.00
62.5405 1232.00
62.8447 1472.00
63.149 1180.00
63.4533 1042.00
63.7575 1061.00
64.0618 1163.00
64.366 1246.00
64.6703 1230.00
64.9745 1171.00
65.2788 1206.00
65.5831 1417.00
65.8873 1316.00
66.1916 1183.00
66.4959 1086.00
66.8001 1067.00
67.1044 1078.00
67.4086 974.00
67.7129 1113.00
68.0172 1016.00
68.3214 949.00
68.6257 976.00
68.9299 1051.00
69.2342 1048.00
69.5385 995.00
69.8427 993.00
70.147 1112.00
70.4512 1096.00
70.7555 1141.00
71.0598 1156.00
71.364 1205.00
71.6683 1174.00
71.9725 1170.00
72.2768 1189.00
72.5811 1092.00
72.8853 919.00
73.1896 943.00
73.4938 1024.00
73.7981 1073.00
74.1024 1042.00
74.4066 1122.00
74.7109 1106.00
75.0151 1048.00
75.3194 1061.00
75.6237 1019.00
75.9279 1079.00
76.2322 1088.00
76.5364 1041.00
76.8407 1015.00
77.145 925.00
77.4492 948.00
77.7535 1059.00
78.0577 992.00
78.362 938.00
78.6663 985.00
78.9705 938.00
79.2748 980.00
79.579 991.00
79.8833 1032.00
80.1876 976.00
80.4918 948.00
80.7961 878.00
81.1003 883.00
81.4046 903.00
81.7089 1006.00
82.0131 1028.00
82.3174 1026.00
82.6217 1069.00
82.9259 1069.00
83.2302 1128.00
83.5344 1030.00
83.8387 1075.00
84.143 1053.00
84.4472 969.00
84.7515 975.00
85.0557 947.00
85.36 851.00
85.6643 896.00
85.9685 925.00
86.2728 935.00
86.577 949.00
86.8813 891.00
87.1856 899.00
87.4898 1005.00
87.7941 1005.00
88.0983 1051.00
88.4026 1036.00
88.7069 1030.00
89.0111 1006.00
89.3154 1093.00
89.6196 1094.00
89.9239 1074.00
90.2282 988.00
90.5324 971.00
90.8367 983.00
91.1409 1065.00
91.4452 1024.00
91.7495 1013.00
92.0537 874.00
92.358 865.00
92.6622 889.00
92.9665 924.00
93.2708 888.00
93.575 883.00
93.8793 966.00
94.1835 969.00
94.4878 883.00
94.7921 953.00
95.0963 1060.00
95.4006 940.00
95.7048 976.00
96.0091 974.00
96.3134 972.00
96.6176 1083.00
96.9219 1036.00
97.2261 951.00
97.5304 996.00
97.8347 980.00
98.1389 948.00
98.4432 888.00
98.7474 949.00
99.0517 1060.00
99.356 961.00
99.6602 994.00
99.9645 915.00
100.095 922.00

File: NSC_32.xy
9.903433 2998.00
10.2077 2900.00
10.512 2691.00
10.8162 2711.00
11.1205 2698.00
11.4247 2558.00
11.729 2601.00
12.0333 2683.00
12.3375 2443.00
12.6418 2371.00
12.946 2352.00
13.2503 2261.00
13.5546 2558.00
13.8588 2587.00
14.1631 2295.00
14.4673 2371.00
14.7716 2404.00
15.0759 2185.00
15.3801 2214.00
15.6844 2176.00
15.9886 2095.00
16.2929 2091.00
16.5972 2202.00
16.9014 2254.00
17.2057 2110.00
17.5099 2192.00
17.8142 2080.00
18.1185 1974.00
18.4227 2095.00
18.727 2039.00
19.0312 2498.00
19.3355 7549.00
19.6398 4650.00
19.944 1969.00
20.2483 1814.00
20.5525 1931.00
20.8568 1935.00
21.1611 1878.00
21.4653 1946.00
21.7696 1918.00
22.0738 1853.00
22.3781 2184.00
22.6824 3141.00
22.9866 2276.00
23.2909 1843.00
23.5951 1852.00
23.8994 2015.00
24.2037 2279.00
24.5079 2018.00
24.8122 1782.00
25.1164 1738.00
25.4207 1674.00
25.725 1654.00
26.0292 1621.00
26.3335 1686.00
26.6378 2025.00
26.942 2065.00
27.2463 1973.00
27.5505 4007.00
27.8548 2148.00
28.1591 4300.00
28.4633 2407.00
28.7676 1711.00
29.0718 1614.00
29.3761 1651.00
29.6804 1776.00
29.9846 2866.00
30.2889 1788.00
30.5931 1947.00
30.8974 5318.00
31.2017 4850.00
31.5059 3677.00
31.8102 1806.00
32.1144 1489.00
32.4187 1651.00
32.723 1544.00
33.0272 1755.00
33.3315 1738.00
33.6357 3013.00
33.94 7476.00
34.2443 3855.00
34.5485 1983.00
34.8528 2069.00
35.157 1765.00
35.4613 1684.00
35.7656 1518.00
36.0698 1352.00
36.3741 1309.00
36.6783 1311.00
36.9826 1394.00
37.2869 1291.00
37.5911 1316.00
37.8954 1465.00
38.1996 1329.00
38.5039 1317.00
38.8082 1415.00
39.1124 1294.00
39.4167 1525.00
39.7209 1623.00
40.0252 1320.00
40.3295 1279.00
40.6337 1559.00
40.938 1780.00
41.2422 2288.00
41.5465 1609.00
41.8508 1537.00
42.155 1480.00
42.4593 1364.00
42.7635 1396.00
43.0678 1283.00
43.3721 1330.00
43.6763 1317.00
43.9806 1573.00
44.2849 2861.00
44.5891 2013.00
44.8934 1478.00
45.1976 1375.00
45.5019 1461.00
45.8062 1320.00
46.1104 1511.00
46.4147 2996.00
46.7189 2946.00
47.0232 1414.00
47.3275 1225.00
47.6317 1149.00
47.936 1210.00
48.2402 1252.00
48.5445 1304.00
48.8488 1586.00
49.153 1879.00
49.4573 2429.00
49.7615 1375.00
50.0658 1771.00
50.3701 2353.00
50.6743 1789.00
50.9786 1936.00
51.2828 2154.00
51.5871 1367.00
51.8914 1312.00
52.1956 1229.00
52.4999 1432.00
52.8041 3196.00
53.1084 1693.00
53.4127 1247.00
53.7169 1240.00
54.0212 1445.00
54.3254 1392.00
54.6297 1190.00
54.934 1116.00
55.2382 1501.00
55.5425 1551.00
55.8467 1349.00
56.151 1309.00
56.4553 1204.00
56.7595 1268.00
57.0638 1547.00
57.368 1427.00
57.6723 1220.00
57.9766 1291.00
58.2808 1383.00
58.5851 2033.00
58.8893 2924.00
59.1936 1670.00
59.4979 1372.00
59.8021 1416.00
60.1064 1505.00
60.4106 1913.00
60.7149 2088.00
61.0192 1774.00
61.3234 1465.00
61.6277 1212.00
61.932 1421.00
62.2362 1363.00
62.5405 1458.00
62.8447 1645.00
63.149 1499.00
63.4533 1003.00
63.7575 1125.00
64.0618 1332.00
64.366 1269.00
64.6703 1167.00
64.9745 1040.00
65.2788 1102.00
65.5831 1582.00
65.8873 1465.00
66.1916 1540.00
66.4959 1484.00
66.8001 1327.00
67.1044 1067.00
67.4086 1005.00
67.7129 1571.00
68.0172 1182.00
68.3214 1113.00
68.6257 1089.00
68.9299 1166.00
69.2342 1202.00
69.5385 1116.00
69.8427 966.00
70.147 949.00
70.4512 1027.00
70.7555 1081.00
71.0598 1921.00
71.364 1635.00
71.6683 1101.00
71.9725 1159.00
72.2768 1110.00
72.5811 1157.00
72.8853 1136.00
73.1896 1138.00
73.4938 1272.00
73.7981 1142.00
74.1024 961.00
74.4066 1235.00
74.7109 1281.00
75.0151 1062.00
75.3194 1134.00
75.6237 1051.00
75.9279 953.00
76.2322 1046.00
76.5364 1196.00
76.8407 1142.00
77.145 1087.00
77.4492 1041.00
77.7535 1021.00
78.0577 940.00
78.362 902.00
78.6663 902.00
78.9705 1036.00
79.2748 1082.00
79.579 1491.00
79.8833 1268.00
80.1876 1248.00
80.4918 975.00
80.7961 984.00
81.1003 1133.00
81.4046 1221.00
81.7089 1083.00
82.0131 1077.00
82.3174 1008.00
82.6217 1027.00
82.9259 1133.00
83.2302 1018.00
83.5344 1059.00
83.8387 1002.00
84.143 1088.00
84.4472 1018.00
84.7515 926.00
85.0557 955.00
85.36 923.00
85.6643 951.00
85.9685 1044.00
86.2728 1288.00
86.577 1176.00
86.8813 1063.00
87.1856 1072.00
87.4898 1120.00
87.7941 1108.00
88.0983 1093.00
88.4026 1050.00
88.7069 1056.00
89.0111 1069.00
89.3154 1203.00
89.6196 1198.00
89.9239 1088.00
90.2282 1040.00
90.5324 1014.00
90.8367 1115.00
91.1409 1075.00
91.4452 963.00
91.7495 987.00
92.0537 942.00
92.358 951.00
92.6622 1103.00
92.9665 1199.00
93.2708 1118.00
93.575 992.00
93.8793 1030.00
94.1835 1117.00
94.4878 1046.00
94.7921 984.00
95.0963 1061.00
95.4006 1003.00
95.7048 1058.00
96.0091 956.00
96.3134 984.00
96.6176 1065.00
96.9219 1016.00
97.2261 895.00
97.5304 944.00
97.8347 958.00
98.1389 1003.00
98.4432 1061.00
98.7474 1072.00
99.0517 1317.00
99.356 1271.00
99.6602 1121.00
99.9645 1002.00
100.095 1045.00