Folder: alab-pipeline/data/xrd_creation/results (part 55)

File: NSC_111.xy
9.903433 2812.00
10.2077 2625.00
10.512 2612.00
10.8162 2479.00
11.1205 2363.00
11.4247 2207.00
11.729 2096.00
12.0333 2071.00
12.3375 1976.00
12.6418 1867.00
12.946 1871.00
13.2503 1789.00
13.5546 1742.00
13.8588 1746.00
14.1631 2077.00
14.4673 2415.00
14.7716 1619.00
15.0759 1596.00
15.3801 1592.00
15.6844 1550.00
15.9886 1551.00
16.2929 1487.00
16.5972 1420.00
16.9014 1450.00
17.2057 1427.00
17.5099 1443.00
17.8142 1286.00
18.1185 1358.00
18.4227 1324.00
18.727 1363.00
19.0312 1276.00
19.3355 1382.00
19.6398 2365.00
19.944 4601.00
20.2483 1520.00
20.5525 1802.00
20.8568 6257.00
21.1611 1686.00
21.4653 1275.00
21.7696 1210.00
22.0738 1170.00
22.3781 1081.00
22.6824 1067.00
22.9866 1035.00
23.2909 1107.00
23.5951 1130.00
23.8994 2704.00
24.2037 2688.00
24.5079 1026.00
24.8122 1058.00
25.1164 991.00
25.4207 893.00
25.725 889.00
26.0292 939.00
26.3335 887.00
26.6378 1031.00
26.942 888.00
27.2463 832.00
27.5505 776.00
27.8548 814.00
28.1591 884.00
28.4633 861.00
28.7676 1743.00
29.0718 3330.00
29.3761 818.00
29.6804 853.00
29.9846 751.00
30.2889 783.00
30.5931 743.00
30.8974 740.00
31.2017 836.00
31.5059 1159.00
31.8102 6201.00
32.1144 1259.00
32.4187 1163.00
32.723 668.00
33.0272 685.00
33.3315 686.00
33.6357 680.00
33.94 914.00
34.2443 905.00
34.5485 555.00
34.8528 577.00
35.157 592.00
35.4613 685.00
35.7656 970.00
36.0698 2100.00
36.3741 1350.00
36.6783 2567.00
36.9826 636.00
37.2869 596.00
37.5911 587.00
37.8954 604.00
38.1996 549.00
38.5039 655.00
38.8082 530.00
39.1124 518.00
39.4167 537.00
39.7209 458.00
40.0252 509.00
40.3295 884.00
40.6337 543.00
40.938 490.00
41.2422 536.00
41.5465 501.00
41.8508 764.00
42.155 866.00
42.4593 969.00
42.7635 573.00
43.0678 575.00
43.3721 489.00
43.6763 477.00
43.9806 1125.00
44.2849 851.00
44.5891 473.00
44.8934 489.00
45.1976 606.00
45.5019 488.00
45.8062 1414.00
46.1104 750.00
46.4147 448.00
46.7189 429.00
47.0232 573.00
47.3275 2203.00
47.6317 720.00
47.936 469.00
48.2402 447.00
48.5445 540.00
48.8488 533.00
49.153 1796.00
49.4573 1128.00
49.7615 451.00
50.0658 530.00
50.3701 495.00
50.6743 419.00
50.9786 371.00
51.2828 415.00
51.5871 410.00
51.8914 647.00
52.1956 1828.00
52.4999 1167.00
52.8041 429.00
53.1084 533.00
53.4127 399.00
53.7169 354.00
54.0212 366.00
54.3254 428.00
54.6297 412.00
54.934 394.00
55.2382 398.00
55.5425 828.00
55.8467 511.00
56.151 424.00
56.4553 389.00
56.7595 1099.00
57.0638 1184.00
57.368 1732.00
57.6723 525.00
57.9766 436.00
58.2808 403.00
58.5851 478.00
58.8893 816.00
59.1936 410.00
59.4979 361.00
59.8021 398.00
60.1064 564.00
60.4106 343.00
60.7149 369.00
61.0192 460.00
61.3234 1326.00
61.6277 477.00
61.932 428.00
62.2362 535.00
62.5405 513.00
62.8447 1666.00
63.149 1264.00
63.4533 503.00
63.7575 344.00
64.0618 356.00
64.366 464.00
64.6703 386.00
64.9745 366.00
65.2788 558.00
65.5831 970.00
65.8873 867.00
66.1916 514.00
66.4959 366.00
66.8001 354.00
67.1044 596.00
67.4086 818.00
67.7129 403.00
68.0172 404.00
68.3214 293.00
68.6257 279.00
68.9299 289.00
69.2342 404.00
69.5385 1025.00
69.8427 461.00
70.147 313.00
70.4512 275.00
70.7555 328.00
71.0598 453.00
71.364 351.00
71.6683 301.00
71.9725 316.00
72.2768 318.00
72.5811 298.00
72.8853 263.00
73.1896 331.00
73.4938 760.00
73.7981 410.00
74.1024 320.00
74.4066 300.00
74.7109 304.00
75.0151 410.00
75.3194 626.00
75.6237 417.00
75.9279 410.00
76.2322 491.00
76.5364 361.00
76.8407 260.00
77.145 292.00
77.4492 375.00
77.7535 614.00
78.0577 414.00
78.362 287.00
78.6663 312.00
78.9705 365.00
79.2748 380.00
79.579 328.00
79.8833 288.00
80.1876 324.00
80.4918 302.00
80.7961 287.00
81.1003 584.00
81.4046 625.00
81.7089 463.00
82.0131 276.00
82.3174 303.00
82.6217 471.00
82.9259 696.00
83.2302 379.00
83.5344 280.00
83.8387 289.00
84.143 282.00
84.4472 261.00
84.7515 229.00
85.0557 323.00
85.36 291.00
85.6643 304.00
85.9685 341.00
86.2728 540.00
86.577 531.00
86.8813 291.00
87.1856 288.00
87.4898 556.00
87.7941 742.00
88.0983 393.00
88.4026 334.00
88.7069 412.00
89.0111 320.00
89.3154 281.00
89.6196 259.00
89.9239 265.00
90.2282 345.00
90.5324 375.00
90.8367 379.00
91.1409 330.00
91.4452 330.00
91.7495 342.00
92.0537 301.00
92.358 474.00
92.6622 534.00
92.9665 403.00
93.2708 289.00
93.575 246.00
93.8793 256.00
94.1835 521.00
94.4878 409.00
94.7921 285.00
95.0963 435.00
95.4006 445.00
95.7048 343.00
96.0091 340.00
96.3134 404.00
96.6176 324.00
96.9219 290.00
97.2261 276.00
97.5304 350.00
97.8347 654.00
98.1389 450.00
98.4432 331.00
98.7474 267.00
99.0517 267.00
99.356 280.00
99.6602 322.00
99.9645 584.00
100.095 599.00

File: NSC_112.xy
9.903433 2768.00
10.2077 2832.00
10.512 2578.00
10.8162 2512.00
11.1205 2336.00
11.4247 2166.00
11.729 2143.00
12.0333 2002.00
12.3375 2067.00
12.6418 1962.00
12.946 1979.00
13.2503 1809.00
13.5546 1818.00
13.8588 1733.00
14.1631 2005.00
14.4673 2617.00
14.7716 1672.00
15.0759 1642.00
15.3801 1627.00
15.6844 1597.00
15.9886 1494.00
16.2929 1523.00
16.5972 1544.00
16.9014 1490.00
17.2057 1524.00
17.5099 1412.00
17.8142 1448.00
18.1185 1400.00
18.4227 1427.00
18.727 1375.00
19.0312 1311.00
19.3355 1424.00
19.6398 2239.00
19.944 5599.00
20.2483 1399.00
20.5525 1694.00
20.8568 5642.00
21.1611 2042.00
21.4653 1312.00
21.7696 1312.00
22.0738 1206.00
22.3781 1224.00
22.6824 1092.00
22.9866 1132.00
23.2909 1102.00
23.5951 1190.00
23.8994 2169.00
24.2037 3512.00
24.5079 1070.00
24.8122 1024.00
25.1164 1013.00
25.4207 956.00
25.725 1001.00
26.0292 956.00
26.3335 903.00
26.6378 916.00
26.942 850.00
27.2463 838.00
27.5505 881.00
27.8548 831.00
28.1591 878.00
28.4633 849.00
28.7676 1435.00
29.0718 4351.00
29.3761 914.00
29.6804 817.00
29.9846 803.00
30.2889 840.00
30.5931 750.00
30.8974 821.00
31.2017 824.00
31.5059 1042.00
31.8102 5831.00
32.1144 1473.00
32.4187 1294.00
32.723 725.00
33.0272 711.00
33.3315 675.00
33.6357 664.00
33.94 712.00
34.2443 925.00
34.5485 656.00
34.8528 646.00
35.157 581.00
35.4613 685.00
35.7656 841.00
36.0698 2630.00
36.3741 1090.00
36.6783 3361.00
36.9826 782.00
37.2869 644.00
37.5911 648.00
37.8954 581.00
38.1996 512.00
38.5039 588.00
38.8082 634.00
39.1124 555.00
39.4167 544.00
39.7209 536.00
40.0252 580.00
40.3295 907.00
40.6337 603.00
40.938 520.00
41.2422 536.00
41.5465 533.00
41.8508 743.00
42.155 963.00
42.4593 968.00
42.7635 683.00
43.0678 666.00
43.3721 503.00
43.6763 509.00
43.9806 869.00
44.2849 1057.00
44.5891 504.00
44.8934 460.00
45.1976 682.00
45.5019 535.00
45.8062 1149.00
46.1104 860.00
46.4147 462.00
46.7189 458.00
47.0232 527.00
47.3275 2154.00
47.6317 903.00
47.936 461.00
48.2402 474.00
48.5445 574.00
48.8488 586.00
49.153 1296.00
49.4573 1635.00
49.7615 515.00
50.0658 514.00
50.3701 617.00
50.6743 421.00
50.9786 429.00
51.2828 411.00
51.5871 382.00
51.8914 493.00
52.1956 1447.00
52.4999 1441.00
52.8041 504.00
53.1084 555.00
53.4127 457.00
53.7169 392.00
54.0212 381.00
54.3254 421.00
54.6297 400.00
54.934 380.00
55.2382 409.00
55.5425 782.00
55.8467 674.00
56.151 439.00
56.4553 453.00
56.7595 898.00
57.0638 1394.00
57.368 1959.00
57.6723 643.00
57.9766 407.00
58.2808 449.00
58.5851 496.00
58.8893 838.00
59.1936 448.00
59.4979 357.00
59.8021 387.00
60.1064 640.00
60.4106 382.00
60.7149 407.00
61.0192 492.00
61.3234 1532.00
61.6277 545.00
61.932 406.00
62.2362 485.00
62.5405 554.00
62.8447 1422.00
63.149 1542.00
63.4533 583.00
63.7575 379.00
64.0618 377.00
64.366 518.00
64.6703 431.00
64.9745 358.00
65.2788 518.00
65.5831 1046.00
65.8873 889.00
66.1916 626.00
66.4959 374.00
66.8001 388.00
67.1044 568.00
67.4086 892.00
67.7129 415.00
68.0172 403.00
68.3214 363.00
68.6257 325.00
68.9299 337.00
69.2342 358.00
69.5385 1083.00
69.8427 621.00
70.147 367.00
70.4512 317.00
70.7555 355.00
71.0598 485.00
71.364 500.00
71.6683 385.00
71.9725 414.00
72.2768 299.00
72.5811 324.00
72.8853 306.00
73.1896 362.00
73.4938 792.00
73.7981 549.00
74.1024 344.00
74.4066 332.00
74.7109 329.00
75.0151 396.00
75.3194 682.00
75.6237 441.00
75.9279 458.00
76.2322 499.00
76.5364 380.00
76.8407 345.00
77.145 321.00
77.4492 382.00
77.7535 645.00
78.0577 551.00
78.362 348.00
78.6663 295.00
78.9705 363.00
79.2748 373.00
79.579 361.00
79.8833 327.00
80.1876 342.00
80.4918 326.00
80.7961 355.00
81.1003 470.00
81.4046 678.00
81.7089 526.00
82.0131 359.00
82.3174 332.00
82.6217 451.00
82.9259 837.00
83.2302 467.00
83.5344 327.00
83.8387 298.00
84.143 289.00
84.4472 283.00
84.7515 273.00
85.0557 368.00
85.36 327.00
85.6643 281.00
85.9685 354.00
86.2728 458.00
86.577 576.00
86.8813 411.00
87.1856 367.00
87.4898 480.00
87.7941 742.00
88.0983 469.00
88.4026 311.00
88.7069 404.00
89.0111 361.00
89.3154 293.00
89.6196 289.00
89.9239 261.00
90.2282 324.00
90.5324 405.00
90.8367 374.00
91.1409 350.00
91.4452 341.00
91.7495 358.00
92.0537 303.00
92.358 460.00
92.6622 546.00
92.9665 506.00
93.2708 350.00
93.575 248.00
93.8793 351.00
94.1835 581.00
94.4878 456.00
94.7921 355.00
95.0963 468.00
95.4006 487.00
95.7048 419.00
96.0091 358.00
96.3134 411.00
96.6176 377.00
96.9219 313.00
97.2261 316.00
97.5304 411.00
97.8347 607.00
98.1389 543.00
98.4432 409.00
98.7474 338.00
99.0517 308.00
99.356 273.00
99.6602 306.00
99.9645 542.00
100.095 642.00

File: NSC_113.xy
9.903433 2808.00
10.2077 2700.00
10.512 2572.00
10.8162 2382.00
11.1205 2279.00
11.4247 2292.00
11.729 2150.00
12.0333 2173.00
12.3375 1931.00
12.6418 1937.00
12.946 1909.00
13.2503 1888.00
13.5546 1798.00
13.8588 1860.00
14.1631 1932.00
14.4673 2381.00
14.7716 1688.00
15.0759 1649.00
15.3801 1571.00
15.6844 1546.00
15.9886 1545.00
16.2929 1509.00
16.5972 1478.00
16.9014 1451.00
17.2057 1503.00
17.5099 1395.00
17.8142 1441.00
18.1185 1373.00
18.4227 1341.00
18.727 1330.00
19.0312 1300.00
19.3355 1429.00
19.6398 2154.00
19.944 4015.00
20.2483 1818.00
20.5525 1597.00
20.8568 4338.00
21.1611 4211.00
21.4653 1288.00
21.7696 1315.00
22.0738 1281.00
22.3781 1370.00
22.6824 1348.00
22.9866 1162.00
23.2909 1101.00
23.5951 1141.00
23.8994 1987.00
24.2037 3136.00
24.5079 1103.00
24.8122 1069.00
25.1164 1085.00
25.4207 964.00
25.725 926.00
26.0292 934.00
26.3335 920.00
26.6378 909.00
26.942 904.00
27.2463 896.00
27.5505 877.00
27.8548 841.00
28.1591 893.00
28.4633 927.00
28.7676 1324.00
29.0718 3123.00
29.3761 1087.00
29.6804 905.00
29.9846 804.00
30.2889 728.00
30.5931 783.00
30.8974 849.00
31.2017 756.00
31.5059 930.00
31.8102 3558.00
32.1144 3755.00
32.4187 1159.00
32.723 851.00
33.0272 668.00
33.3315 734.00
33.6357 671.00
33.94 711.00
34.2443 887.00
34.5485 656.00
34.8528 619.00
35.157 644.00
35.4613 665.00
35.7656 869.00
36.0698 1903.00
36.3741 1155.00
36.6783 2464.00
36.9826 997.00
37.2869 705.00
37.5911 889.00
37.8954 646.00
38.1996 600.00
38.5039 617.00
38.8082 738.00
39.1124 556.00
39.4167 646.00
39.7209 586.00
40.0252 558.00
40.3295 723.00
40.6337 805.00
40.938 571.00
41.2422 534.00
41.5465 498.00
41.8508 590.00
42.155 1044.00
42.4593 815.00
42.7635 844.00
43.0678 634.00
43.3721 497.00
43.6763 547.00
43.9806 700.00
44.2849 1403.00
44.5891 617.00
44.8934 488.00
45.1976 668.00
45.5019 471.00
45.8062 868.00
46.1104 1373.00
46.4147 487.00
46.7189 493.00
47.0232 576.00
47.3275 1280.00
47.6317 1490.00
47.936 492.00
48.2402 487.00
48.5445 489.00
48.8488 614.00
49.153 967.00
49.4573 2205.00
49.7615 564.00
50.0658 567.00
50.3701 760.00
50.6743 446.00
50.9786 427.00
51.2828 520.00
51.5871 574.00
51.8914 538.00
52.1956 976.00
52.4999 2084.00
52.8041 535.00
53.1084 506.00
53.4127 502.00
53.7169 412.00
54.0212 391.00
54.3254 425.00
54.6297 440.00
54.934 457.00
55.2382 442.00
55.5425 620.00
55.8467 877.00
56.151 441.00
56.4553 504.00
56.7595 742.00
57.0638 1498.00
57.368 1722.00
57.6723 816.00
57.9766 476.00
58.2808 437.00
58.5851 528.00
58.8893 771.00
59.1936 585.00
59.4979 390.00
59.8021 420.00
60.1064 533.00
60.4106 503.00
60.7149 523.00
61.0192 527.00
61.3234 1105.00
61.6277 855.00
61.932 455.00
62.2362 499.00
62.5405 556.00
62.8447 967.00
63.149 1501.00
63.4533 772.00
63.7575 470.00
64.0618 409.00
64.366 501.00
64.6703 459.00
64.9745 393.00
65.2788 466.00
65.5831 1068.00
65.8873 1006.00
66.1916 740.00
66.4959 448.00
66.8001 428.00
67.1044 497.00
67.4086 957.00
67.7129 562.00
68.0172 464.00
68.3214 391.00
68.6257 351.00
68.9299 350.00
69.2342 364.00
69.5385 794.00
69.8427 764.00
70.147 407.00
70.4512 387.00
70.7555 392.00
71.0598 461.00
71.364 508.00
71.6683 424.00
71.9725 384.00
72.2768 403.00
72.5811 356.00
72.8853 336.00
73.1896 347.00
73.4938 671.00
73.7981 642.00
74.1024 355.00
74.4066 315.00
74.7109 345.00
75.0151 420.00
75.3194 753.00
75.6237 532.00
75.9279 476.00
76.2322 504.00
76.5364 433.00
76.8407 318.00
77.145 329.00
77.4492 403.00
77.7535 582.00
78.0577 541.00
78.362 392.00
78.6663 337.00
78.9705 359.00
79.2748 457.00
79.579 409.00
79.8833 385.00
80.1876 405.00
80.4918 354.00
80.7961 378.00
81.1003 469.00
81.4046 684.00
81.7089 579.00
82.0131 424.00
82.3174 329.00
82.6217 430.00
82.9259 797.00
83.2302 540.00
83.5344 359.00
83.8387 289.00
84.143 303.00
84.4472 318.00
84.7515 285.00
85.0557 387.00
85.36 371.00
85.6643 324.00
85.9685 323.00
86.2728 442.00
86.577 636.00
86.8813 477.00
87.1856 364.00
87.4898 469.00
87.7941 748.00
88.0983 548.00
88.4026 366.00
88.7069 420.00
89.0111 422.00
89.3154 342.00
89.6196 290.00
89.9239 325.00
90.2282 352.00
90.5324 463.00
90.8367 408.00
91.1409 416.00
91.4452 407.00
91.7495 349.00
92.0537 352.00
92.358 437.00
92.6622 669.00
92.9665 581.00
93.2708 347.00
93.575 330.00
93.8793 356.00
94.1835 545.00
94.4878 480.00
94.7921 377.00
95.0963 378.00
95.4006 473.00
95.7048 442.00
96.0091 391.00
96.3134 423.00
96.6176 402.00
96.9219 365.00
97.2261 322.00
97.5304 374.00
97.8347 554.00
98.1389 610.00
98.4432 466.00
98.7474 323.00
99.0517 300.00
99.356 292.00
99.6602 335.00
99.9645 511.00
100.095 624.00

File: NSC_114.xy
9.903433 2673.00
10.2077 2551.00
10.512 2423.00
10.8162 2382.00
11.1205 2293.00
11.4247 2343.00
11.729 2114.00
12.0333 1923.00
12.3375 1847.00
12.6418 1756.00
12.946 1689.00
13.2503 1779.00
13.5546 1602.00
13.8588 1467.00
14.1631 1422.00
14.4673 1512.00
14.7716 1469.00
15.0759 1426.00
15.3801 1411.00
15.6844 2003.00
15.9886 1378.00
16.2929 1304.00
16.5972 1313.00
16.9014 1263.00
17.2057 1216.00
17.5099 1261.00
17.8142 1185.00
18.1185 1222.00
18.4227 1359.00
18.727 1142.00
19.0312 1081.00
19.3355 1042.00
19.6398 1072.00
19.944 1011.00
20.2483 1075.00
20.5525 1034.00
20.8568 1029.00
21.1611 1040.00
21.4653 888.00
21.7696 927.00
22.0738 961.00
22.3781 956.00
22.6824 920.00
22.9866 923.00
23.2909 866.00
23.5951 861.00
23.8994 872.00
24.2037 867.00
24.5079 785.00
24.8122 825.00
25.1164 848.00
25.4207 839.00
25.725 998.00
26.0292 774.00
26.3335 917.00
26.6378 901.00
26.942 778.00
27.2463 854.00
27.5505 869.00
27.8548 729.00
28.1591 891.00
28.4633 781.00
28.7676 741.00
29.0718 752.00
29.3761 721.00
29.6804 760.00
29.9846 759.00
30.2889 641.00
30.5931 670.00
30.8974 621.00
31.2017 700.00
31.5059 1024.00
31.8102 1009.00
32.1144 644.00
32.4187 566.00
32.723 685.00
33.0272 563.00
33.3315 635.00
33.6357 722.00
33.94 670.00
34.2443 582.00
34.5485 586.00
34.8528 641.00
35.157 566.00
35.4613 520.00
35.7656 476.00
36.0698 546.00
36.3741 474.00
36.6783 459.00
36.9826 488.00
37.2869 432.00
37.5911 494.00
37.8954 472.00
38.1996 498.00
38.5039 474.00
38.8082 476.00
39.1124 420.00
39.4167 414.00
39.7209 423.00
40.0252 412.00
40.3295 438.00
40.6337 448.00
40.938 424.00
41.2422 355.00
41.5465 372.00
41.8508 405.00
42.155 361.00
42.4593 385.00
42.7635 392.00
43.0678 372.00
43.3721 410.00
43.6763 425.00
43.9806 402.00
44.2849 439.00
44.5891 382.00
44.8934 391.00
45.1976 377.00
45.5019 335.00
45.8062 389.00
46.1104 303.00
46.4147 337.00
46.7189 338.00
47.0232 344.00
47.3275 326.00
47.6317 366.00
47.936 312.00
48.2402 364.00
48.5445 376.00
48.8488 321.00
49.153 314.00
49.4573 308.00
49.7615 309.00
50.0658 317.00
50.3701 341.00
50.6743 337.00
50.9786 324.00
51.2828 330.00
51.5871 399.00
51.8914 359.00
52.1956 361.00
52.4999 300.00
52.8041 346.00
53.1084 320.00
53.4127 304.00
53.7169 295.00
54.0212 286.00
54.3254 315.00
54.6297 352.00
54.934 257.00
55.2382 310.00
55.5425 266.00
55.8467 277.00
56.151 307.00
56.4553 258.00
56.7595 282.00
57.0638 322.00
57.368 264.00
57.6723 264.00
57.9766 311.00
58.2808 261.00
58.5851 264.00
58.8893 286.00
59.1936 268.00
59.4979 245.00
59.8021 261.00
60.1064 249.00
60.4106 274.00
60.7149 271.00
61.0192 210.00
61.3234 238.00
61.6277 221.00
61.932 268.00
62.2362 222.00
62.5405 250.00
62.8447 226.00
63.149 219.00
63.4533 211.00
63.7575 229.00
64.0618 237.00
64.366 231.00
64.6703 258.00
64.9745 215.00
65.2788 224.00
65.5831 245.00
65.8873 269.00
66.1916 208.00
66.4959 224.00
66.8001 204.00
67.1044 222.00
67.4086 241.00
67.7129 231.00
68.0172 222.00
68.3214 204.00
68.6257 191.00
68.9299 240.00
69.2342 207.00
69.5385 210.00
69.8427 212.00
70.147 230.00
70.4512 212.00
70.7555 195.00
71.0598 218.00
71.364 221.00
71.6683 206.00
71.9725 226.00
72.2768 235.00
72.5811 219.00
72.8853 200.00
73.1896 242.00
73.4938 203.00
73.7981 186.00
74.1024 247.00
74.4066 220.00
74.7109 216.00
75.0151 219.00
75.3194 212.00
75.6237 260.00
75.9279 222.00
76.2322 206.00
76.5364 270.00
76.8407 211.00
77.145 209.00
77.4492 242.00
77.7535 246.00
78.0577 227.00
78.362 244.00
78.6663 224.00
78.9705 249.00
79.2748 214.00
79.579 222.00
79.8833 221.00
80.1876 215.00
80.4918 247.00
80.7961 247.00
81.1003 261.00
81.4046 243.00
81.7089 245.00
82.0131 276.00
82.3174 238.00
82.6217 248.00
82.9259 245.00
83.2302 284.00
83.5344 270.00
83.8387 277.00
84.143 295.00
84.4472 226.00
84.7515 237.00
85.0557 247.00
85.36 223.00
85.6643 258.00
85.9685 236.00
86.2728 269.00
86.577 236.00
86.8813 251.00
87.1856 211.00
87.4898 224.00
87.7941 257.00
88.0983 206.00
88.4026 269.00
88.7069 221.00
89.0111 228.00
89.3154 207.00
89.6196 218.00
89.9239 213.00
90.2282 195.00
90.5324 230.00
90.8367 235.00
91.1409 229.00
91.4452 185.00
91.7495 211.00
92.0537 230.00
92.358 236.00
92.6622 211.00
92.9665 195.00
93.2708 216.00
93.575 204.00
93.8793 209.00
94.1835 217.00
94.4878 228.00
94.7921 181.00
95.0963 204.00
95.4006 215.00
95.7048 221.00
96.0091 217.00
96.3134 206.00
96.6176 201.00
96.9219 210.00
97.2261 234.00
97.5304 202.00
97.8347 200.00
98.1389 237.00
98.4432 198.00
98.7474 221.00
99.0517 193.00
99.356 218.00
99.6602 179.00
99.9645 199.00
100.095 182.00

File: NSC_115.xy
9.903433 2691.00
10.2077 2627.00
10.512 2502.00
10.8162 2511.00
11.1205 2632.00
11.4247 4541.00
11.729 12419.00
12.0333 2397.00
12.3375 2272.00
12.6418 2176.00
12.946 1990.00
13.2503 1967.00
13.5546 1922.00
13.8588 1860.00
14.1631 1782.00
14.4673 1828.00
14.7716 1905.00
15.0759 1782.00
15.3801 1745.00
15.6844 1657.00
15.9886 1939.00
16.2929 2912.00
16.5972 5009.00
16.9014 1720.00
17.2057 1654.00
17.5099 1501.00
17.8142 1714.00
18.1185 2439.00
18.4227 1582.00
18.727 1508.00
19.0312 1421.00
19.3355 1431.00
19.6398 1392.00
19.944 1423.00
20.2483 1665.00
20.5525 1416.00
20.8568 1331.00
21.1611 1336.00
21.4653 1275.00
21.7696 1244.00
22.0738 1214.00
22.3781 1115.00
22.6824 1184.00
22.9866 1182.00
23.2909 1207.00
23.5951 1180.00
23.8994 1236.00
24.2037 1264.00
24.5079 2044.00
24.8122 1594.00
25.1164 1289.00
25.4207 1380.00
25.725 1607.00
26.0292 7357.00
26.3335 1728.00
26.6378 1691.00
26.942 3964.00
27.2463 1497.00
27.5505 1399.00
27.8548 5214.00
28.1591 3674.00
28.4633 1253.00
28.7676 977.00
29.0718 959.00
29.3761 881.00
29.6804 953.00
29.9846 1117.00
30.2889 1926.00
30.5931 1275.00
30.8974 916.00
31.2017 990.00
31.5059 1898.00
31.8102 1376.00
32.1144 1120.00
32.4187 882.00
32.723 1212.00
33.0272 7408.00
33.3315 1605.00
33.6357 1188.00
33.94 1567.00
34.2443 3617.00
34.5485 9209.00
34.8528 2827.00
35.157 1170.00
35.4613 926.00
35.7656 794.00
36.0698 802.00
36.3741 1284.00
36.6783 1166.00
36.9826 1371.00
37.2869 1291.00
37.5911 802.00
37.8954 1043.00
38.1996 1225.00
38.5039 832.00
38.8082 1048.00
39.1124 906.00
39.4167 797.00
39.7209 781.00
40.0252 659.00
40.3295 627.00
40.6337 748.00
40.938 705.00
41.2422 774.00
41.5465 796.00
41.8508 1367.00
42.155 1278.00
42.4593 1604.00
42.7635 720.00
43.0678 677.00
43.3721 771.00
43.6763 1078.00
43.9806 865.00
44.2849 743.00
44.5891 638.00
44.8934 696.00
45.1976 1153.00
45.5019 986.00
45.8062 726.00
46.1104 628.00
46.4147 684.00
46.7189 665.00
47.0232 1109.00
47.3275 1655.00
47.6317 2473.00
47.936 737.00
48.2402 641.00
48.5445 851.00
48.8488 782.00
49.153 1205.00
49.4573 837.00
49.7615 1753.00
50.0658 1569.00
50.3701 1752.00
50.6743 745.00
50.9786 572.00
51.2828 731.00
51.5871 677.00
51.8914 2020.00
52.1956 1912.00
52.4999 737.00
52.8041 588.00
53.1084 1117.00
53.4127 931.00
53.7169 711.00
54.0212 769.00
54.3254 721.00
54.6297 719.00
54.934 991.00
55.2382 796.00
55.5425 1232.00
55.8467 726.00
56.151 746.00
56.4553 847.00
56.7595 719.00
57.0638 960.00
57.368 1087.00
57.6723 715.00
57.9766 814.00
58.2808 899.00
58.5851 1555.00
58.8893 1128.00
59.1936 1042.00
59.4979 1786.00
59.8021 1889.00
60.1064 1219.00
60.4106 1184.00
60.7149 652.00
61.0192 682.00
61.3234 523.00
61.6277 681.00
61.932 754.00
62.2362 896.00
62.5405 927.00
62.8447 694.00
63.149 1002.00
63.4533 586.00
63.7575 619.00
64.0618 707.00
64.366 710.00
64.6703 655.00
64.9745 1237.00
65.2788 772.00
65.5831 876.00
65.8873 936.00
66.1916 1113.00
66.4959 805.00
66.8001 716.00
67.1044 651.00
67.4086 647.00
67.7129 539.00
68.0172 677.00
68.3214 518.00
68.6257 619.00
68.9299 716.00
69.2342 611.00
69.5385 464.00
69.8427 523.00
70.147 468.00
70.4512 485.00
70.7555 430.00
71.0598 464.00
71.364 471.00
71.6683 545.00
71.9725 456.00
72.2768 675.00
72.5811 530.00
72.8853 432.00
73.1896 509.00
73.4938 658.00
73.7981 483.00
74.1024 507.00
74.4066 564.00
74.7109 511.00
75.0151 481.00
75.3194 614.00
75.6237 480.00
75.9279 435.00
76.2322 504.00
76.5364 467.00
76.8407 577.00
77.145 601.00
77.4492 618.00
77.7535 455.00
78.0577 489.00
78.362 469.00
78.6663 558.00
78.9705 826.00
79.2748 676.00
79.579 525.00
79.8833 400.00
80.1876 579.00
80.4918 540.00
80.7961 498.00
81.1003 457.00
81.4046 517.00
81.7089 488.00
82.0131 451.00
82.3174 416.00
82.6217 473.00
82.9259 485.00
83.2302 442.00
83.5344 440.00
83.8387 632.00
84.143 584.00
84.4472 447.00
84.7515 559.00
85.0557 561.00
85.36 493.00
85.6643 471.00
85.9685 441.00
86.2728 482.00
86.577 540.00
86.8813 530.00
87.1856 566.00
87.4898 574.00
87.7941 428.00
88.0983 448.00
88.4026 513.00
88.7069 596.00
89.0111 511.00
89.3154 441.00
89.6196 534.00
89.9239 564.00
90.2282 604.00
90.5324 632.00
90.8367 504.00
91.1409 631.00
91.4452 593.00
91.7495 585.00
92.0537 584.00
92.358 482.00
92.6622 529.00
92.9665 487.00
93.2708 471.00
93.575 511.00
93.8793 461.00
94.1835 440.00
94.4878 405.00
94.7921 451.00
95.0963 420.00
95.4006 498.00
95.7048 492.00
96.0091 539.00
96.3134 516.00
96.6176 505.00
96.9219 531.00
97.2261 604.00
97.5304 608.00
97.8347 536.00
98.1389 530.00
98.4432 433.00
98.7474 512.00
99.0517 429.00
99.356 460.00
99.6602 531.00
99.9645 546.00
100.095 516.00