Folder: alab-pipeline/data/xrd_creation/results (part 65)

File: NSC_166.xy
9.903433 2540.00
10.2077 2475.00
10.512 2242.00
10.8162 2254.00
11.1205 2024.00
11.4247 2037.00
11.729 1932.00
12.0333 1905.00
12.3375 1795.00
12.6418 1658.00
12.946 1628.00
13.2503 1590.00
13.5546 1529.00
13.8588 1440.00
14.1631 1471.00
14.4673 1403.00
14.7716 1297.00
15.0759 1322.00
15.3801 1349.00
15.6844 1257.00
15.9886 1264.00
16.2929 1170.00
16.5972 1125.00
16.9014 1210.00
17.2057 1137.00
17.5099 1069.00
17.8142 1100.00
18.1185 1052.00
18.4227 1045.00
18.727 1025.00
19.0312 972.00
19.3355 1445.00
19.6398 1060.00
19.944 921.00
20.2483 899.00
20.5525 895.00
20.8568 907.00
21.1611 872.00
21.4653 844.00
21.7696 826.00
22.0738 825.00
22.3781 830.00
22.6824 829.00
22.9866 749.00
23.2909 773.00
23.5951 769.00
23.8994 785.00
24.2037 706.00
24.5079 683.00
24.8122 690.00
25.1164 674.00
25.4207 615.00
25.725 605.00
26.0292 635.00
26.3335 628.00
26.6378 605.00
26.942 580.00
27.2463 578.00
27.5505 735.00
27.8548 626.00
28.1591 598.00
28.4633 541.00
28.7676 571.00
29.0718 524.00
29.3761 571.00
29.6804 510.00
29.9846 532.00
30.2889 577.00
30.5931 545.00
30.8974 612.00
31.2017 791.00
31.5059 507.00
31.8102 482.00
32.1144 460.00
32.4187 501.00
32.723 454.00
33.0272 472.00
33.3315 432.00
33.6357 459.00
33.94 914.00
34.2443 493.00
34.5485 404.00
34.8528 392.00
35.157 439.00
35.4613 413.00
35.7656 404.00
36.0698 411.00
36.3741 395.00
36.6783 378.00
36.9826 375.00
37.2869 382.00
37.5911 333.00
37.8954 345.00
38.1996 398.00
38.5039 325.00
38.8082 386.00
39.1124 334.00
39.4167 392.00
39.7209 345.00
40.0252 351.00
40.3295 305.00
40.6337 333.00
40.938 310.00
41.2422 335.00
41.5465 341.00
41.8508 298.00
42.155 328.00
42.4593 303.00
42.7635 316.00
43.0678 282.00
43.3721 279.00
43.6763 276.00
43.9806 307.00
44.2849 328.00
44.5891 397.00
44.8934 319.00
45.1976 266.00
45.5019 307.00
45.8062 303.00
46.1104 292.00
46.4147 304.00
46.7189 444.00
47.0232 332.00
47.3275 318.00
47.6317 258.00
47.936 243.00
48.2402 288.00
48.5445 281.00
48.8488 270.00
49.153 241.00
49.4573 286.00
49.7615 276.00
50.0658 285.00
50.3701 256.00
50.6743 280.00
50.9786 307.00
51.2828 318.00
51.5871 231.00
51.8914 280.00
52.1956 256.00
52.4999 281.00
52.8041 285.00
53.1084 361.00
53.4127 221.00
53.7169 195.00
54.0212 198.00
54.3254 225.00
54.6297 240.00
54.934 197.00
55.2382 210.00
55.5425 224.00
55.8467 239.00
56.151 232.00
56.4553 220.00
56.7595 220.00
57.0638 188.00
57.368 220.00
57.6723 212.00
57.9766 191.00
58.2808 189.00
58.5851 208.00
58.8893 208.00
59.1936 298.00
59.4979 224.00
59.8021 204.00
60.1064 172.00
60.4106 200.00
60.7149 221.00
61.0192 220.00
61.3234 218.00
61.6277 204.00
61.932 191.00
62.2362 197.00
62.5405 207.00
62.8447 184.00
63.149 191.00
63.4533 168.00
63.7575 221.00
64.0618 191.00
64.366 177.00
64.6703 196.00
64.9745 175.00
65.2788 181.00
65.5831 159.00
65.8873 215.00
66.1916 206.00
66.4959 185.00
66.8001 197.00
67.1044 207.00
67.4086 173.00
67.7129 168.00
68.0172 182.00
68.3214 196.00
68.6257 190.00
68.9299 182.00
69.2342 175.00
69.5385 187.00
69.8427 175.00
70.147 178.00
70.4512 184.00
70.7555 191.00
71.0598 203.00
71.364 181.00
71.6683 211.00
71.9725 197.00
72.2768 166.00
72.5811 192.00
72.8853 179.00
73.1896 204.00
73.4938 190.00
73.7981 206.00
74.1024 206.00
74.4066 153.00
74.7109 202.00
75.0151 180.00
75.3194 193.00
75.6237 194.00
75.9279 177.00
76.2322 205.00
76.5364 183.00
76.8407 198.00
77.145 191.00
77.4492 188.00
77.7535 219.00
78.0577 212.00
78.362 172.00
78.6663 208.00
78.9705 204.00
79.2748 211.00
79.579 182.00
79.8833 196.00
80.1876 194.00
80.4918 230.00
80.7961 238.00
81.1003 198.00
81.4046 179.00
81.7089 215.00
82.0131 240.00
82.3174 215.00
82.6217 186.00
82.9259 237.00
83.2302 238.00
83.5344 247.00
83.8387 217.00
84.143 219.00
84.4472 202.00
84.7515 194.00
85.0557 179.00
85.36 205.00
85.6643 211.00
85.9685 208.00
86.2728 195.00
86.577 185.00
86.8813 188.00
87.1856 226.00
87.4898 172.00
87.7941 207.00
88.0983 202.00
88.4026 197.00
88.7069 183.00
89.0111 172.00
89.3154 189.00
89.6196 189.00
89.9239 198.00
90.2282 197.00
90.5324 194.00
90.8367 165.00
91.1409 160.00
91.4452 146.00
91.7495 183.00
92.0537 164.00
92.358 183.00
92.6622 193.00
92.9665 172.00
93.2708 162.00
93.575 175.00
93.8793 169.00
94.1835 190.00
94.4878 153.00
94.7921 184.00
95.0963 159.00
95.4006 190.00
95.7048 170.00
96.0091 167.00
96.3134 185.00
96.6176 159.00
96.9219 168.00
97.2261 179.00
97.5304 175.00
97.8347 190.00
98.1389 161.00
98.4432 169.00
98.7474 194.00
99.0517 168.00
99.356 175.00
99.6602 186.00
99.9645 202.00
100.095 189.00

File: NSC_167.xy
9.903433 2713.00
10.2077 2569.00
10.512 2500.00
10.8162 2378.00
11.1205 2405.00
11.4247 2268.00
11.729 2202.00
12.0333 2067.00
12.3375 2037.00
12.6418 1896.00
12.946 1943.00
13.2503 1815.00
13.5546 1794.00
13.8588 1824.00
14.1631 2316.00
14.4673 1931.00
14.7716 1664.00
15.0759 1617.00
15.3801 1614.00
15.6844 1601.00
15.9886 1579.00
16.2929 1552.00
16.5972 1542.00
16.9014 1552.00
17.2057 1572.00
17.5099 2038.00
17.8142 1357.00
18.1185 1409.00
18.4227 1365.00
18.727 1391.00
19.0312 1349.00
19.3355 1625.00
19.6398 1902.00
19.944 2397.00
20.2483 1949.00
20.5525 1347.00
20.8568 1364.00
21.1611 1361.00
21.4653 1403.00
21.7696 1366.00
22.0738 1348.00
22.3781 1290.00
22.6824 1298.00
22.9866 1528.00
23.2909 2092.00
23.5951 4516.00
23.8994 2290.00
24.2037 1338.00
24.5079 1457.00
24.8122 1406.00
25.1164 1085.00
25.4207 1132.00
25.725 1123.00
26.0292 1603.00
26.3335 1127.00
26.6378 1079.00
26.942 1138.00
27.2463 1463.00
27.5505 1635.00
27.8548 1143.00
28.1591 1587.00
28.4633 2562.00
28.7676 1046.00
29.0718 1160.00
29.3761 1074.00
29.6804 1030.00
29.9846 987.00
30.2889 974.00
30.5931 1019.00
30.8974 1514.00
31.2017 4419.00
31.5059 2554.00
31.8102 2550.00
32.1144 1627.00
32.4187 1245.00
32.723 1059.00
33.0272 859.00
33.3315 838.00
33.6357 867.00
33.94 844.00
34.2443 826.00
34.5485 967.00
34.8528 1864.00
35.157 2481.00
35.4613 1436.00
35.7656 787.00
36.0698 708.00
36.3741 897.00
36.6783 720.00
36.9826 803.00
37.2869 753.00
37.5911 646.00
37.8954 653.00
38.1996 667.00
38.5039 679.00
38.8082 632.00
39.1124 590.00
39.4167 625.00
39.7209 629.00
40.0252 708.00
40.3295 654.00
40.6337 650.00
40.938 699.00
41.2422 730.00
41.5465 778.00
41.8508 800.00
42.155 753.00
42.4593 1114.00
42.7635 1554.00
43.0678 815.00
43.3721 741.00
43.6763 671.00
43.9806 600.00
44.2849 553.00
44.5891 616.00
44.8934 909.00
45.1976 748.00
45.5019 999.00
45.8062 810.00
46.1104 615.00
46.4147 594.00
46.7189 589.00
47.0232 668.00
47.3275 810.00
47.6317 1602.00
47.936 1428.00
48.2402 1090.00
48.5445 625.00
48.8488 486.00
49.153 526.00
49.4573 635.00
49.7615 633.00
50.0658 523.00
50.3701 537.00
50.6743 566.00
50.9786 976.00
51.2828 1016.00
51.5871 994.00
51.8914 970.00
52.1956 795.00
52.4999 488.00
52.8041 554.00
53.1084 714.00
53.4127 613.00
53.7169 630.00
54.0212 459.00
54.3254 608.00
54.6297 956.00
54.934 1108.00
55.2382 575.00
55.5425 515.00
55.8467 556.00
56.151 652.00
56.4553 513.00
56.7595 426.00
57.0638 439.00
57.368 448.00
57.6723 414.00
57.9766 436.00
58.2808 448.00
58.5851 491.00
58.8893 446.00
59.1936 609.00
59.4979 666.00
59.8021 754.00
60.1064 821.00
60.4106 797.00
60.7149 1015.00
61.0192 687.00
61.3234 566.00
61.6277 505.00
61.932 570.00
62.2362 633.00
62.5405 593.00
62.8447 750.00
63.149 602.00
63.4533 625.00
63.7575 516.00
64.0618 542.00
64.366 474.00
64.6703 465.00
64.9745 442.00
65.2788 398.00
65.5831 484.00
65.8873 485.00
66.1916 503.00
66.4959 682.00
66.8001 576.00
67.1044 610.00
67.4086 517.00
67.7129 633.00
68.0172 724.00
68.3214 491.00
68.6257 373.00
68.9299 340.00
69.2342 419.00
69.5385 348.00
69.8427 437.00
70.147 589.00
70.4512 476.00
70.7555 518.00
71.0598 447.00
71.364 472.00
71.6683 451.00
71.9725 375.00
72.2768 393.00
72.5811 418.00
72.8853 366.00
73.1896 395.00
73.4938 373.00
73.7981 582.00
74.1024 608.00
74.4066 583.00
74.7109 420.00
75.0151 398.00
75.3194 440.00
75.6237 438.00
75.9279 402.00
76.2322 380.00
76.5364 387.00
76.8407 352.00
77.145 323.00
77.4492 360.00
77.7535 362.00
78.0577 331.00
78.362 293.00
78.6663 399.00
78.9705 401.00
79.2748 439.00
79.579 357.00
79.8833 300.00
80.1876 293.00
80.4918 342.00
80.7961 320.00
81.1003 358.00
81.4046 336.00
81.7089 367.00
82.0131 396.00
82.3174 533.00
82.6217 382.00
82.9259 372.00
83.2302 338.00
83.5344 392.00
83.8387 376.00
84.143 429.00
84.4472 328.00
84.7515 327.00
85.0557 366.00
85.36 294.00
85.6643 299.00
85.9685 290.00
86.2728 360.00
86.577 406.00
86.8813 357.00
87.1856 292.00
87.4898 332.00
87.7941 367.00
88.0983 401.00
88.4026 377.00
88.7069 353.00
89.0111 400.00
89.3154 434.00
89.6196 364.00
89.9239 356.00
90.2282 395.00
90.5324 373.00
90.8367 321.00
91.1409 284.00
91.4452 319.00
91.7495 358.00
92.0537 342.00
92.358 394.00
92.6622 363.00
92.9665 302.00
93.2708 304.00
93.575 314.00
93.8793 324.00
94.1835 325.00
94.4878 397.00
94.7921 364.00
95.0963 362.00
95.4006 337.00
95.7048 427.00
96.0091 323.00
96.3134 271.00
96.6176 263.00
96.9219 308.00
97.2261 293.00
97.5304 319.00
97.8347 369.00
98.1389 322.00
98.4432 331.00
98.7474 364.00
99.0517 334.00
99.356 289.00
99.6602 301.00
99.9645 331.00
100.095 288.00

File: NSC_169.xy
9.903433 2962.00
10.2077 2972.00
10.512 2884.00
10.8162 2940.00
11.1205 2799.00
11.4247 2549.00
11.729 2548.00
12.0333 2510.00
12.3375 2487.00
12.6418 2371.00
12.946 2586.00
13.2503 2377.00
13.5546 2394.00
13.8588 2430.00
14.1631 3943.00
14.4673 2540.00
14.7716 2290.00
15.0759 2240.00
15.3801 2283.00
15.6844 2200.00
15.9886 2237.00
16.2929 2200.00
16.5972 2221.00
16.9014 2115.00
17.2057 2200.00
17.5099 2128.00
17.8142 1978.00
18.1185 1974.00
18.4227 2050.00
18.727 1965.00
19.0312 1988.00
19.3355 2013.00
19.6398 3247.00
19.944 7546.00
20.2483 6389.00
20.5525 2253.00
20.8568 2021.00
21.1611 1952.00
21.4653 1886.00
21.7696 2085.00
22.0738 1835.00
22.3781 1845.00
22.6824 1888.00
22.9866 1932.00
23.2909 2781.00
23.5951 23008.00
23.8994 2460.00
24.2037 1843.00
24.5079 1901.00
24.8122 2000.00
25.1164 1716.00
25.4207 1816.00
25.725 1658.00
26.0292 1583.00
26.3335 1676.00
26.6378 1606.00
26.942 1687.00
27.2463 1568.00
27.5505 1700.00
27.8548 1640.00
28.1591 1957.00
28.4633 10308.00
28.7676 1775.00
29.0718 1565.00
29.3761 1613.00
29.6804 1566.00
29.9846 1482.00
30.2889 1493.00
30.5931 1660.00
30.8974 1731.00
31.2017 2916.00
31.5059 25392.00
31.8102 2497.00
32.1144 1607.00
32.4187 1468.00
32.723 1512.00
33.0272 1419.00
33.3315 1368.00
33.6357 1376.00
33.94 1474.00
34.2443 1689.00
34.5485 1677.00
34.8528 1709.00
35.157 3396.00
35.4613 4259.00
35.7656 1474.00
36.0698 1342.00
36.3741 1393.00
36.6783 1372.00
36.9826 1343.00
37.2869 1284.00
37.5911 1238.00
37.8954 1239.00
38.1996 1259.00
38.5039 1253.00
38.8082 1346.00
39.1124 1322.00
39.4167 1301.00
39.7209 1276.00
40.0252 1918.00
40.3295 1236.00
40.6337 1209.00
40.938 1252.00
41.2422 1273.00
41.5465 1410.00
41.8508 1465.00
42.155 1993.00
42.4593 1286.00
42.7635 2841.00
43.0678 1694.00
43.3721 1353.00
43.6763 1287.00
43.9806 1163.00
44.2849 1212.00
44.5891 1236.00
44.8934 1342.00
45.1976 3235.00
45.5019 1301.00
45.8062 3159.00
46.1104 1249.00
46.4147 1274.00
46.7189 1225.00
47.0232 2640.00
47.3275 1423.00
47.6317 1519.00
47.936 5107.00
48.2402 1870.00
48.5445 1336.00
48.8488 1736.00
49.153 1259.00
49.4573 1280.00
49.7615 1277.00
50.0658 1166.00
50.3701 1403.00
50.6743 1322.00
50.9786 1337.00
51.2828 1361.00
51.5871 6261.00
51.8914 1439.00
52.1956 1181.00
52.4999 1199.00
52.8041 1180.00
53.1084 1205.00
53.4127 1126.00
53.7169 1211.00
54.0212 1198.00
54.3254 2017.00
54.6297 1468.00
54.934 4493.00
55.2382 1542.00
55.5425 1328.00
55.8467 1196.00
56.151 1212.00
56.4553 1841.00
56.7595 1299.00
57.0638 1212.00
57.368 1174.00
57.6723 1088.00
57.9766 1119.00
58.2808 1328.00
58.5851 1306.00
58.8893 1620.00
59.1936 1069.00
59.4979 1146.00
59.8021 1496.00
60.1064 2684.00
60.4106 1201.00
60.7149 3833.00
61.0192 1350.00
61.3234 1418.00
61.6277 1428.00
61.932 1071.00
62.2362 1219.00
62.5405 1335.00
62.8447 2538.00
63.149 2033.00
63.4533 1201.00
63.7575 1295.00
64.0618 1406.00
64.366 1308.00
64.6703 1100.00
64.9745 1068.00
65.2788 1155.00
65.5831 1124.00
65.8873 1342.00
66.1916 1116.00
66.4959 1455.00
66.8001 1825.00
67.1044 1166.00
67.4086 1392.00
67.7129 1536.00
68.0172 1362.00
68.3214 1509.00
68.6257 1098.00
68.9299 1021.00
69.2342 998.00
69.5385 1073.00
69.8427 983.00
70.147 1297.00
70.4512 2172.00
70.7555 1116.00
71.0598 1013.00
71.364 1126.00
71.6683 1506.00
71.9725 1008.00
72.2768 981.00
72.5811 1022.00
72.8853 1009.00
73.1896 1000.00
73.4938 1105.00
73.7981 1172.00
74.1024 1560.00
74.4066 1796.00
74.7109 1023.00
75.0151 1605.00
75.3194 1202.00
75.6237 978.00
75.9279 1330.00
76.2322 1336.00
76.5364 1029.00
76.8407 1064.00
77.145 1013.00
77.4492 1152.00
77.7535 1450.00
78.0577 1089.00
78.362 989.00
78.6663 1207.00
78.9705 1113.00
79.2748 1065.00
79.579 1005.00
79.8833 1036.00
80.1876 933.00
80.4918 986.00
80.7961 1001.00
81.1003 1313.00
81.4046 1048.00
81.7089 974.00
82.0131 1021.00
82.3174 1077.00
82.6217 1851.00
82.9259 1394.00
83.2302 1092.00
83.5344 1061.00
83.8387 968.00
84.143 1276.00
84.4472 1089.00
84.7515 1207.00
85.0557 1166.00
85.36 961.00
85.6643 969.00
85.9685 951.00
86.2728 924.00
86.577 1145.00
86.8813 1086.00
87.1856 1061.00
87.4898 1143.00
87.7941 1324.00
88.0983 1088.00
88.4026 1000.00
88.7069 1129.00
89.0111 1536.00
89.3154 1238.00
89.6196 1048.00
89.9239 1034.00
90.2282 1068.00
90.5324 1009.00
90.8367 971.00
91.1409 1228.00
91.4452 1277.00
91.7495 1138.00
92.0537 1025.00
92.358 908.00
92.6622 1046.00
92.9665 1270.00
93.2708 1067.00
93.575 1040.00
93.8793 1000.00
94.1835 1045.00
94.4878 1190.00
94.7921 1703.00
95.0963 1323.00
95.4006 1168.00
95.7048 1162.00
96.0091 1152.00
96.3134 1056.00
96.6176 973.00
96.9219 942.00
97.2261 964.00
97.5304 980.00
97.8347 1115.00
98.1389 1076.00
98.4432 1091.00
98.7474 1016.00
99.0517 970.00
99.356 1208.00
99.6602 1070.00
99.9645 924.00
100.095 966.00

File: NSC_170.xy
9.903433 2589.00
10.2077 2467.00
10.512 2545.00
10.8162 2334.00
11.1205 2302.00
11.4247 2116.00
11.729 2084.00
12.0333 2123.00
12.3375 1953.00
12.6418 1867.00
12.946 1781.00
13.2503 1769.00
13.5546 1772.00
13.8588 1945.00
14.1631 2699.00
14.4673 1946.00
14.7716 1659.00
15.0759 1602.00
15.3801 1625.00
15.6844 1615.00
15.9886 1508.00
16.2929 1510.00
16.5972 1456.00
16.9014 1482.00
17.2057 1460.00
17.5099 1440.00
17.8142 1380.00
18.1185 1395.00
18.4227 1407.00
18.727 1378.00
19.0312 1393.00
19.3355 1967.00
19.6398 5164.00
19.944 3518.00
20.2483 4024.00
20.5525 6447.00
20.8568 1795.00
21.1611 1337.00
21.4653 1453.00
21.7696 1336.00
22.0738 1160.00
22.3781 1158.00
22.6824 1199.00
22.9866 1352.00
23.2909 1457.00
23.5951 2923.00
23.8994 2305.00
24.2037 1116.00
24.5079 1088.00
24.8122 1119.00
25.1164 1010.00
25.4207 986.00
25.725 990.00
26.0292 1052.00
26.3335 1150.00
26.6378 3066.00
26.942 1597.00
27.2463 951.00
27.5505 1014.00
27.8548 942.00
28.1591 1320.00
28.4633 3481.00
28.7676 2477.00
29.0718 941.00
29.3761 899.00
29.6804 928.00
29.9846 897.00
30.2889 887.00
30.5931 809.00
30.8974 942.00
31.2017 2046.00
31.5059 4702.00
31.8102 2573.00
32.1144 1015.00
32.4187 846.00
32.723 813.00
33.0272 791.00
33.3315 814.00
33.6357 1035.00
33.94 2963.00
34.2443 1622.00
34.5485 825.00
34.8528 945.00
35.157 1785.00
35.4613 2723.00
35.7656 2926.00
36.0698 1783.00
36.3741 811.00
36.6783 679.00
36.9826 736.00
37.2869 710.00
37.5911 710.00
37.8954 962.00
38.1996 1168.00
38.5039 750.00
38.8082 703.00
39.1124 795.00
39.4167 665.00
39.7209 775.00
40.0252 975.00
40.3295 742.00
40.6337 626.00
40.938 647.00
41.2422 907.00
41.5465 1335.00
41.8508 1283.00
42.155 872.00
42.4593 678.00
42.7635 720.00
43.0678 946.00
43.3721 1325.00
43.6763 949.00
43.9806 755.00
44.2849 717.00
44.5891 681.00
44.8934 825.00
45.1976 1303.00
45.5019 1268.00
45.8062 752.00
46.1104 1107.00
46.4147 1421.00
46.7189 1194.00
47.0232 1171.00
47.3275 869.00
47.6317 606.00
47.936 849.00
48.2402 1558.00
48.5445 1561.00
48.8488 972.00
49.153 804.00
49.4573 670.00
49.7615 650.00
50.0658 626.00
50.3701 614.00
50.6743 669.00
50.9786 796.00
51.2828 1043.00
51.5871 1784.00
51.8914 3459.00
52.1956 1421.00
52.4999 717.00
52.8041 608.00
53.1084 563.00
53.4127 603.00
53.7169 573.00
54.0212 632.00
54.3254 788.00
54.6297 1056.00
54.934 1359.00
55.2382 970.00
55.5425 1598.00
55.8467 1963.00
56.151 1555.00
56.4553 927.00
56.7595 646.00
57.0638 633.00
57.368 628.00
57.6723 669.00
57.9766 838.00
58.2808 834.00
58.5851 864.00
58.8893 948.00
59.1936 740.00
59.4979 596.00
59.8021 653.00
60.1064 958.00
60.4106 1095.00
60.7149 1004.00
61.0192 759.00
61.3234 1121.00
61.6277 1219.00
61.932 1289.00
62.2362 1056.00
62.5405 833.00
62.8447 906.00
63.149 873.00
63.4533 685.00
63.7575 842.00
64.0618 1068.00
64.366 1082.00
64.6703 1039.00
64.9745 1023.00
65.2788 689.00
65.5831 644.00
65.8873 886.00
66.1916 1216.00
66.4959 932.00
66.8001 841.00
67.1044 732.00
67.4086 645.00
67.7129 809.00
68.0172 879.00
68.3214 920.00
68.6257 806.00
68.9299 575.00
69.2342 680.00
69.5385 634.00
69.8427 628.00
70.147 573.00
70.4512 578.00
70.7555 535.00
71.0598 661.00
71.364 952.00
71.6683 963.00
71.9725 820.00
72.2768 610.00
72.5811 496.00
72.8853 564.00
73.1896 534.00
73.4938 562.00
73.7981 618.00
74.1024 700.00
74.4066 801.00
74.7109 746.00
75.0151 739.00
75.3194 790.00
75.6237 830.00
75.9279 778.00
76.2322 695.00
76.5364 572.00
76.8407 528.00
77.145 559.00
77.4492 569.00
77.7535 581.00
78.0577 563.00
78.362 547.00
78.6663 902.00
78.9705 982.00
79.2748 960.00
79.579 837.00
79.8833 769.00
80.1876 667.00
80.4918 622.00
80.7961 585.00
81.1003 682.00
81.4046 714.00
81.7089 722.00
82.0131 688.00
82.3174 599.00
82.6217 564.00
82.9259 552.00
83.2302 569.00
83.5344 690.00
83.8387 865.00
84.143 807.00
84.4472 669.00
84.7515 648.00
85.0557 580.00
85.36 562.00
85.6643 642.00
85.9685 676.00
86.2728 677.00
86.577 700.00
86.8813 620.00
87.1856 745.00
87.4898 711.00
87.7941 618.00
88.0983 557.00
88.4026 548.00
88.7069 600.00
89.0111 639.00
89.3154 625.00
89.6196 739.00
89.9239 977.00
90.2282 829.00
90.5324 876.00
90.8367 910.00
91.1409 825.00
91.4452 665.00
91.7495 621.00
92.0537 601.00
92.358 641.00
92.6622 657.00
92.9665 645.00
93.2708 753.00
93.575 693.00
93.8793 608.00
94.1835 604.00
94.4878 659.00
94.7921 611.00
95.0963 619.00
95.4006 688.00
95.7048 654.00
96.0091 775.00
96.3134 724.00
96.6176 738.00
96.9219 721.00
97.2261 708.00
97.5304 678.00
97.8347 634.00
98.1389 593.00
98.4432 599.00
98.7474 531.00
99.0517 576.00
99.356 505.00
99.6602 569.00
99.9645 628.00
100.095 566.00

File: NSC_171.xy
9.903433 2497.00
10.2077 2518.00
10.512 2427.00
10.8162 2328.00
11.1205 2214.00
11.4247 2137.00
11.729 2003.00
12.0333 2021.00
12.3375 1986.00
12.6418 1957.00
12.946 1810.00
13.2503 1809.00
13.5546 1838.00
13.8588 1715.00
14.1631 1656.00
14.4673 1725.00
14.7716 2328.00
15.0759 2476.00
15.3801 1720.00
15.6844 1587.00
15.9886 1620.00
16.2929 1522.00
16.5972 1497.00
16.9014 1435.00
17.2057 1450.00
17.5099 1422.00
17.8142 1398.00
18.1185 1400.00
18.4227 1333.00
18.727 1285.00
19.0312 1290.00
19.3355 1265.00
19.6398 1280.00
19.944 1386.00
20.2483 2602.00
20.5525 5245.00
20.8568 2426.00
21.1611 1739.00
21.4653 5069.00
21.7696 4034.00
22.0738 1779.00
22.3781 1134.00
22.6824 1177.00
22.9866 1078.00
23.2909 1103.00
23.5951 1027.00
23.8994 1082.00
24.2037 1176.00
24.5079 1829.00
24.8122 4439.00
25.1164 2414.00
25.4207 1338.00
25.725 971.00
26.0292 1110.00
26.3335 1693.00
26.6378 1050.00
26.942 970.00
27.2463 896.00
27.5505 868.00
27.8548 909.00
28.1591 858.00
28.4633 855.00
28.7676 826.00
29.0718 883.00
29.3761 1090.00
29.6804 3073.00
29.9846 2405.00
30.2889 1486.00
30.5931 948.00
30.8974 749.00
31.2017 777.00
31.5059 743.00
31.8102 810.00
32.1144 964.00
32.4187 2653.00
32.723 4566.00
33.0272 2337.00
33.3315 1651.00
33.6357 1114.00
33.94 820.00
34.2443 740.00
34.5485 682.00
34.8528 824.00
35.157 794.00
35.4613 696.00
35.7656 670.00
36.0698 663.00
36.3741 753.00
36.6783 1105.00
36.9826 1639.00
37.2869 1553.00
37.5911 2258.00
37.8954 1451.00
38.1996 1063.00
38.5039 900.00
38.8082 643.00
39.1124 615.00
39.4167 696.00
39.7209 848.00
40.0252 649.00
40.3295 570.00
40.6337 542.00
40.938 608.00
41.2422 831.00
41.5465 722.00
41.8508 658.00
42.155 704.00
42.4593 581.00
42.7635 836.00
43.0678 830.00
43.3721 800.00
43.6763 875.00
43.9806 770.00
44.2849 647.00
44.5891 572.00
44.8934 750.00
45.1976 1053.00
45.5019 842.00
45.8062 714.00
46.1104 734.00
46.4147 675.00
46.7189 940.00
47.0232 1102.00
47.3275 790.00
47.6317 677.00
47.936 672.00
48.2402 1165.00
48.5445 1361.00
48.8488 1021.00
49.153 819.00
49.4573 702.00
49.7615 676.00
50.0658 840.00
50.3701 1494.00
50.6743 1226.00
50.9786 937.00
51.2828 834.00
51.5871 704.00
51.8914 594.00
52.1956 550.00
52.4999 506.00
52.8041 511.00
53.1084 824.00
53.4127 1329.00
53.7169 1079.00
54.0212 790.00
54.3254 761.00
54.6297 606.00
54.934 556.00
55.2382 513.00
55.5425 548.00
55.8467 464.00
56.151 461.00
56.4553 503.00
56.7595 735.00
57.0638 690.00
57.368 620.00
57.6723 619.00
57.9766 823.00
58.2808 1123.00
58.5851 1325.00
58.8893 1203.00
59.1936 1000.00
59.4979 757.00
59.8021 820.00
60.1064 816.00
60.4106 680.00
60.7149 526.00
61.0192 538.00
61.3234 643.00
61.6277 540.00
61.932 599.00
62.2362 638.00
62.5405 873.00
62.8447 866.00
63.149 753.00
63.4533 704.00
63.7575 693.00
64.0618 910.00
64.366 1208.00
64.6703 1088.00
64.9745 802.00
65.2788 706.00
65.5831 680.00
65.8873 652.00
66.1916 662.00
66.4959 599.00
66.8001 729.00
67.1044 932.00
67.4086 911.00
67.7129 762.00
68.0172 671.00
68.3214 777.00
68.6257 797.00
68.9299 729.00
69.2342 643.00
69.5385 503.00
69.8427 470.00
70.147 461.00
70.4512 505.00
70.7555 520.00
71.0598 665.00
71.364 634.00
71.6683 555.00
71.9725 494.00
72.2768 463.00
72.5811 495.00
72.8853 532.00
73.1896 501.00
73.4938 497.00
73.7981 423.00
74.1024 485.00
74.4066 410.00
74.7109 467.00
75.0151 543.00
75.3194 605.00
75.6237 554.00
75.9279 542.00
76.2322 490.00
76.5364 548.00
76.8407 555.00
77.145 584.00
77.4492 571.00
77.7535 605.00
78.0577 560.00
78.362 480.00
78.6663 448.00
78.9705 476.00
79.2748 513.00
79.579 543.00
79.8833 512.00
80.1876 514.00
80.4918 494.00
80.7961 468.00
81.1003 498.00
81.4046 467.00
81.7089 503.00
82.0131 471.00
82.3174 435.00
82.6217 467.00
82.9259 497.00
83.2302 546.00
83.5344 582.00
83.8387 497.00
84.143 523.00
84.4472 577.00
84.7515 625.00
85.0557 560.00
85.36 511.00
85.6643 498.00
85.9685 488.00
86.2728 468.00
86.577 406.00
86.8813 417.00
87.1856 478.00
87.4898 421.00
87.7941 437.00
88.0983 467.00
88.4026 513.00
88.7069 546.00
89.0111 601.00
89.3154 628.00
89.6196 630.00
89.9239 578.00
90.2282 582.00
90.5324 503.00
90.8367 488.00
91.1409 510.00
91.4452 486.00
91.7495 449.00
92.0537 473.00
92.358 481.00
92.6622 517.00
92.9665 501.00
93.2708 504.00
93.575 467.00
93.8793 467.00
94.1835 458.00
94.4878 456.00
94.7921 551.00
95.0963 574.00
95.4006 523.00
95.7048 527.00
96.0091 488.00
96.3134 525.00
96.6176 475.00
96.9219 489.00
97.2261 547.00
97.5304 528.00
97.8347 476.00
98.1389 493.00
98.4432 459.00
98.7474 473.00
99.0517 487.00
99.356 500.00
99.6602 469.00
99.9645 581.00
100.095 553.00