Folder: alab-pipeline/data/xrd_creation/results (part 89)

File: PG_1847-1.xy
9.903433 2497.00
10.2077 2444.00
10.512 2429.00
10.8162 2284.00
11.1205 2230.00
11.4247 2204.00
11.729 2007.00
12.0333 1939.00
12.3375 1910.00
12.6418 1782.00
12.946 1757.00
13.2503 1735.00
13.5546 1660.00
13.8588 1707.00
14.1631 1630.00
14.4673 1644.00
14.7716 1503.00
15.0759 1519.00
15.3801 1473.00
15.6844 1482.00
15.9886 1448.00
16.2929 1423.00
16.5972 1403.00
16.9014 1393.00
17.2057 1381.00
17.5099 1424.00
17.8142 1383.00
18.1185 1348.00
18.4227 1438.00
18.727 2035.00
19.0312 2888.00
19.3355 1278.00
19.6398 1200.00
19.944 1173.00
20.2483 1199.00
20.5525 1205.00
20.8568 1351.00
21.1611 4100.00
21.4653 1173.00
21.7696 1155.00
22.0738 1092.00
22.3781 1026.00
22.6824 1075.00
22.9866 1067.00
23.2909 2467.00
23.5951 1055.00
23.8994 1045.00
24.2037 973.00
24.5079 1005.00
24.8122 920.00
25.1164 1504.00
25.4207 904.00
25.725 934.00
26.0292 851.00
26.3335 825.00
26.6378 904.00
26.942 806.00
27.2463 957.00
27.5505 892.00
27.8548 836.00
28.1591 766.00
28.4633 765.00
28.7676 818.00
29.0718 790.00
29.3761 796.00
29.6804 719.00
29.9846 696.00
30.2889 717.00
30.5931 715.00
30.8974 846.00
31.2017 961.00
31.5059 1938.00
31.8102 701.00
32.1144 697.00
32.4187 768.00
32.723 761.00
33.0272 838.00
33.3315 6753.00
33.6357 922.00
33.94 706.00
34.2443 688.00
34.5485 679.00
34.8528 1168.00
35.157 735.00
35.4613 2987.00
35.7656 793.00
36.0698 627.00
36.3741 614.00
36.6783 606.00
36.9826 611.00
37.2869 554.00
37.5911 575.00
37.8954 657.00
38.1996 706.00
38.5039 549.00
38.8082 563.00
39.1124 564.00
39.4167 581.00
39.7209 552.00
40.0252 547.00
40.3295 501.00
40.6337 810.00
40.938 499.00
41.2422 518.00
41.5465 556.00
41.8508 748.00
42.155 931.00
42.4593 558.00
42.7635 1267.00
43.0678 533.00
43.3721 460.00
43.6763 508.00
43.9806 515.00
44.2849 493.00
44.5891 523.00
44.8934 494.00
45.1976 835.00
45.5019 564.00
45.8062 555.00
46.1104 497.00
46.4147 459.00
46.7189 481.00
47.0232 555.00
47.3275 3815.00
47.6317 562.00
47.936 500.00
48.2402 478.00
48.5445 438.00
48.8488 636.00
49.153 523.00
49.4573 419.00
49.7615 440.00
50.0658 431.00
50.3701 468.00
50.6743 473.00
50.9786 923.00
51.2828 1744.00
51.5871 494.00
51.8914 479.00
52.1956 453.00
52.4999 444.00
52.8041 430.00
53.1084 428.00
53.4127 414.00
53.7169 712.00
54.0212 433.00
54.3254 447.00
54.6297 428.00
54.934 440.00
55.2382 443.00
55.5425 706.00
55.8467 512.00
56.151 1587.00
56.4553 837.00
56.7595 1533.00
57.0638 707.00
57.368 543.00
57.6723 416.00
57.9766 496.00
58.2808 1749.00
58.5851 540.00
58.8893 432.00
59.1936 437.00
59.4979 456.00
59.8021 723.00
60.1064 501.00
60.4106 504.00
60.7149 879.00
61.0192 593.00
61.3234 1312.00
61.6277 470.00
61.932 424.00
62.2362 408.00
62.5405 387.00
62.8447 455.00
63.149 376.00
63.4533 429.00
63.7575 1016.00
64.0618 464.00
64.366 409.00
64.6703 419.00
64.9745 853.00
65.2788 638.00
65.5831 1645.00
65.8873 558.00
66.1916 545.00
66.4959 421.00
66.8001 468.00
67.1044 379.00
67.4086 410.00
67.7129 428.00
68.0172 2141.00
68.3214 518.00
68.6257 430.00
68.9299 425.00
69.2342 489.00
69.5385 531.00
69.8427 640.00
70.147 420.00
70.4512 375.00
70.7555 560.00
71.0598 365.00
71.364 356.00
71.6683 355.00
71.9725 403.00
72.2768 640.00
72.5811 446.00
72.8853 496.00
73.1896 351.00
73.4938 394.00
73.7981 482.00
74.1024 391.00
74.4066 376.00
74.7109 917.00
75.0151 531.00
75.3194 422.00
75.6237 556.00
75.9279 609.00
76.2322 482.00
76.5364 521.00
76.8407 349.00
77.145 386.00
77.4492 542.00
77.7535 396.00
78.0577 360.00
78.362 354.00
78.6663 366.00
78.9705 346.00
79.2748 358.00
79.579 346.00
79.8833 359.00
80.1876 363.00
80.4918 389.00
80.7961 567.00
81.1003 1229.00
81.4046 589.00
81.7089 367.00
82.0131 323.00
82.3174 358.00
82.6217 337.00
82.9259 357.00
83.2302 380.00
83.5344 1046.00
83.8387 516.00
84.143 450.00
84.4472 438.00
84.7515 413.00
85.0557 573.00
85.36 442.00
85.6643 369.00
85.9685 398.00
86.2728 392.00
86.577 366.00
86.8813 425.00
87.1856 1001.00
87.4898 544.00
87.7941 362.00
88.0983 357.00
88.4026 368.00
88.7069 378.00
89.0111 528.00
89.3154 386.00
89.6196 382.00
89.9239 358.00
90.2282 366.00
90.5324 377.00
90.8367 565.00
91.1409 566.00
91.4452 880.00
91.7495 1078.00
92.0537 554.00
92.358 528.00
92.6622 917.00
92.9665 676.00
93.2708 468.00
93.575 431.00
93.8793 385.00
94.1835 371.00
94.4878 398.00
94.7921 443.00
95.0963 370.00
95.4006 399.00
95.7048 358.00
96.0091 349.00
96.3134 356.00
96.6176 403.00
96.9219 343.00
97.2261 374.00
97.5304 392.00
97.8347 401.00
98.1389 370.00
98.4432 368.00
98.7474 379.00
99.0517 440.00
99.356 497.00
99.6602 421.00
99.9645 1299.00
100.095 553.00

File: PG_1848-1.xy
9.903433 2658.00
10.2077 2517.00
10.512 2434.00
10.8162 2495.00
11.1205 2297.00
11.4247 2274.00
11.729 2037.00
12.0333 2106.00
12.3375 2042.00
12.6418 1991.00
12.946 1930.00
13.2503 1932.00
13.5546 1816.00
13.8588 1792.00
14.1631 1718.00
14.4673 1705.00
14.7716 1727.00
15.0759 1673.00
15.3801 1771.00
15.6844 2431.00
15.9886 1683.00
16.2929 1591.00
16.5972 1590.00
16.9014 1592.00
17.2057 1591.00
17.5099 1516.00
17.8142 1526.00
18.1185 1436.00
18.4227 1438.00
18.727 1415.00
19.0312 1360.00
19.3355 1302.00
19.6398 1332.00
19.944 1368.00
20.2483 1418.00
20.5525 3808.00
20.8568 1592.00
21.1611 1344.00
21.4653 1416.00
21.7696 3202.00
22.0738 2743.00
22.3781 1296.00
22.6824 1231.00
22.9866 1179.00
23.2909 1197.00
23.5951 1092.00
23.8994 1109.00
24.2037 1076.00
24.5079 1082.00
24.8122 1010.00
25.1164 1083.00
25.4207 978.00
25.725 1018.00
26.0292 1086.00
26.3335 1377.00
26.6378 1301.00
26.942 964.00
27.2463 906.00
27.5505 961.00
27.8548 996.00
28.1591 940.00
28.4633 879.00
28.7676 870.00
29.0718 940.00
29.3761 817.00
29.6804 877.00
29.9846 1061.00
30.2889 1191.00
30.5931 2023.00
30.8974 29343.00
31.2017 2848.00
31.5059 1849.00
31.8102 992.00
32.1144 959.00
32.4187 917.00
32.723 1874.00
33.0272 948.00
33.3315 980.00
33.6357 1082.00
33.94 781.00
34.2443 763.00
34.5485 1143.00
34.8528 821.00
35.157 813.00
35.4613 1080.00
35.7656 8663.00
36.0698 1186.00
36.3741 990.00
36.6783 730.00
36.9826 705.00
37.2869 722.00
37.5911 726.00
37.8954 1079.00
38.1996 946.00
38.5039 696.00
38.8082 647.00
39.1124 649.00
39.4167 655.00
39.7209 621.00
40.0252 764.00
40.3295 732.00
40.6337 658.00
40.938 635.00
41.2422 659.00
41.5465 1068.00
41.8508 791.00
42.155 2068.00
42.4593 921.00
42.7635 601.00
43.0678 571.00
43.3721 537.00
43.6763 550.00
43.9806 611.00
44.2849 652.00
44.5891 619.00
44.8934 595.00
45.1976 568.00
45.5019 651.00
45.8062 1211.00
46.1104 2259.00
46.4147 648.00
46.7189 560.00
47.0232 538.00
47.3275 567.00
47.6317 1150.00
47.936 654.00
48.2402 884.00
48.5445 580.00
48.8488 577.00
49.153 1007.00
49.4573 690.00
49.7615 1053.00
50.0658 632.00
50.3701 633.00
50.6743 635.00
50.9786 975.00
51.2828 7625.00
51.5871 2370.00
51.8914 789.00
52.1956 715.00
52.4999 669.00
52.8041 600.00
53.1084 851.00
53.4127 506.00
53.7169 543.00
54.0212 564.00
54.3254 508.00
54.6297 642.00
54.934 520.00
55.2382 533.00
55.5425 484.00
55.8467 614.00
56.151 879.00
56.4553 1271.00
56.7595 595.00
57.0638 535.00
57.368 476.00
57.6723 517.00
57.9766 673.00
58.2808 547.00
58.5851 516.00
58.8893 627.00
59.1936 716.00
59.4979 1253.00
59.8021 610.00
60.1064 596.00
60.4106 786.00
60.7149 1094.00
61.0192 5129.00
61.3234 1182.00
61.6277 748.00
61.932 569.00
62.2362 656.00
62.5405 1576.00
62.8447 616.00
63.149 516.00
63.4533 446.00
63.7575 625.00
64.0618 1098.00
64.366 554.00
64.6703 613.00
64.9745 630.00
65.2788 621.00
65.5831 789.00
65.8873 538.00
66.1916 504.00
66.4959 541.00
66.8001 624.00
67.1044 648.00
67.4086 487.00
67.7129 523.00
68.0172 572.00
68.3214 1361.00
68.6257 634.00
68.9299 536.00
69.2342 567.00
69.5385 477.00
69.8427 684.00
70.147 576.00
70.4512 491.00
70.7555 553.00
71.0598 405.00
71.364 453.00
71.6683 470.00
71.9725 465.00
72.2768 493.00
72.5811 603.00
72.8853 613.00
73.1896 578.00
73.4938 485.00
73.7981 569.00
74.1024 702.00
74.4066 464.00
74.7109 588.00
75.0151 612.00
75.3194 1472.00
75.6237 614.00
75.9279 486.00
76.2322 525.00
76.5364 682.00
76.8407 755.00
77.145 464.00
77.4492 468.00
77.7535 515.00
78.0577 962.00
78.362 628.00
78.6663 537.00
78.9705 474.00
79.2748 489.00
79.579 676.00
79.8833 443.00
80.1876 432.00
80.4918 444.00
80.7961 647.00
81.1003 451.00
81.4046 453.00
81.7089 513.00
82.0131 773.00
82.3174 826.00
82.6217 474.00
82.9259 485.00
83.2302 728.00
83.5344 979.00
83.8387 564.00
84.143 468.00
84.4472 460.00
84.7515 542.00
85.0557 446.00
85.36 502.00
85.6643 508.00
85.9685 761.00
86.2728 849.00
86.577 561.00
86.8813 498.00
87.1856 532.00
87.4898 587.00
87.7941 474.00
88.0983 482.00
88.4026 459.00
88.7069 720.00
89.0111 547.00
89.3154 431.00
89.6196 453.00
89.9239 586.00
90.2282 623.00
90.5324 468.00
90.8367 482.00
91.1409 470.00
91.4452 475.00
91.7495 448.00
92.0537 414.00
92.358 432.00
92.6622 768.00
92.9665 679.00
93.2708 463.00
93.575 424.00
93.8793 458.00
94.1835 419.00
94.4878 417.00
94.7921 474.00
95.0963 452.00
95.4006 929.00
95.7048 727.00
96.0091 487.00
96.3134 466.00
96.6176 857.00
96.9219 715.00
97.2261 494.00
97.5304 480.00
97.8347 501.00
98.1389 689.00
98.4432 594.00
98.7474 417.00
99.0517 484.00
99.356 808.00
99.6602 622.00
99.9645 515.00
100.095 464.00

File: PG_1849-1.xy
9.903433 2527.00
10.2077 2317.00
10.512 2246.00
10.8162 2141.00
11.1205 2234.00
11.4247 2056.00
11.729 1915.00
12.0333 1864.00
12.3375 1848.00
12.6418 1673.00
12.946 1652.00
13.2503 1774.00
13.5546 2274.00
13.8588 1608.00
14.1631 1532.00
14.4673 1509.00
14.7716 1950.00
15.0759 1820.00
15.3801 1447.00
15.6844 1350.00
15.9886 1434.00
16.2929 1354.00
16.5972 1344.00
16.9014 1328.00
17.2057 1240.00
17.5099 1315.00
17.8142 1237.00
18.1185 1246.00
18.4227 1289.00
18.727 1589.00
19.0312 1985.00
19.3355 1171.00
19.6398 1557.00
19.944 2734.00
20.2483 1153.00
20.5525 1081.00
20.8568 1625.00
21.1611 5012.00
21.4653 1230.00
21.7696 2328.00
22.0738 6214.00
22.3781 8476.00
22.6824 1248.00
22.9866 1869.00
23.2909 1907.00
23.5951 1251.00
23.8994 2795.00
24.2037 4001.00
24.5079 1538.00
24.8122 3442.00
25.1164 1254.00
25.4207 1006.00
25.725 1486.00
26.0292 1031.00
26.3335 1221.00
26.6378 6602.00
26.942 2806.00
27.2463 1052.00
27.5505 1505.00
27.8548 853.00
28.1591 767.00
28.4633 767.00
28.7676 963.00
29.0718 2551.00
29.3761 1455.00
29.6804 1023.00
29.9846 1533.00
30.2889 1723.00
30.5931 1226.00
30.8974 7487.00
31.2017 884.00
31.5059 734.00
31.8102 811.00
32.1144 746.00
32.4187 1121.00
32.723 3035.00
33.0272 4126.00
33.3315 976.00
33.6357 1208.00
33.94 1614.00
34.2443 1464.00
34.5485 1718.00
34.8528 1308.00
35.157 1046.00
35.4613 789.00
35.7656 2930.00
36.0698 1570.00
36.3741 1711.00
36.6783 917.00
36.9826 627.00
37.2869 629.00
37.5911 596.00
37.8954 765.00
38.1996 647.00
38.5039 1050.00
38.8082 1496.00
39.1124 708.00
39.4167 3303.00
39.7209 1186.00
40.0252 2126.00
40.3295 712.00
40.6337 1020.00
40.938 795.00
41.2422 653.00
41.5465 612.00
41.8508 672.00
42.155 1141.00
42.4593 601.00
42.7635 575.00
43.0678 1170.00
43.3721 1238.00
43.6763 1129.00
43.9806 799.00
44.2849 732.00
44.5891 1083.00
44.8934 789.00
45.1976 1289.00
45.5019 839.00
45.8062 727.00
46.1104 1512.00
46.4147 898.00
46.7189 1293.00
47.0232 673.00
47.3275 938.00
47.6317 889.00
47.936 548.00
48.2402 716.00
48.5445 1491.00
48.8488 821.00
49.153 724.00
49.4573 698.00
49.7615 890.00
50.0658 814.00
50.3701 1551.00
50.6743 2042.00
50.9786 2771.00
51.2828 4560.00
51.5871 828.00
51.8914 972.00
52.1956 1193.00
52.4999 683.00
52.8041 829.00
53.1084 783.00
53.4127 914.00
53.7169 1001.00
54.0212 854.00
54.3254 1235.00
54.6297 1166.00
54.934 955.00
55.2382 1562.00
55.5425 1193.00
55.8467 896.00
56.151 1141.00
56.4553 1380.00
56.7595 923.00
57.0638 1111.00
57.368 707.00
57.6723 807.00
57.9766 914.00
58.2808 884.00
58.5851 740.00
58.8893 897.00
59.1936 752.00
59.4979 1033.00
59.8021 1128.00
60.1064 1129.00
60.4106 1019.00
60.7149 849.00
61.0192 1548.00
61.3234 855.00
61.6277 916.00
61.932 849.00
62.2362 1235.00
62.5405 1075.00
62.8447 999.00
63.149 1561.00
63.4533 697.00
63.7575 729.00
64.0618 841.00
64.366 574.00
64.6703 513.00
64.9745 715.00
65.2788 770.00
65.5831 994.00
65.8873 899.00
66.1916 1035.00
66.4959 830.00
66.8001 762.00
67.1044 834.00
67.4086 564.00
67.7129 579.00
68.0172 616.00
68.3214 924.00
68.6257 580.00
68.9299 548.00
69.2342 620.00
69.5385 698.00
69.8427 786.00
70.147 885.00
70.4512 839.00
70.7555 726.00
71.0598 581.00
71.364 501.00
71.6683 581.00
71.9725 684.00
72.2768 547.00
72.5811 531.00
72.8853 546.00
73.1896 534.00
73.4938 561.00
73.7981 608.00
74.1024 544.00
74.4066 420.00
74.7109 540.00
75.0151 527.00
75.3194 715.00
75.6237 493.00
75.9279 655.00
76.2322 604.00
76.5364 757.00
76.8407 802.00
77.145 786.00
77.4492 716.00
77.7535 587.00
78.0577 639.00
78.362 637.00
78.6663 722.00
78.9705 887.00
79.2748 710.00
79.579 810.00
79.8833 848.00
80.1876 611.00
80.4918 641.00
80.7961 724.00
81.1003 647.00
81.4046 594.00
81.7089 563.00
82.0131 786.00
82.3174 775.00
82.6217 652.00
82.9259 786.00
83.2302 795.00
83.5344 781.00
83.8387 622.00
84.143 630.00
84.4472 637.00
84.7515 571.00
85.0557 653.00
85.36 682.00
85.6643 609.00
85.9685 759.00
86.2728 773.00
86.577 673.00
86.8813 610.00
87.1856 524.00
87.4898 597.00
87.7941 696.00
88.0983 701.00
88.4026 520.00
88.7069 573.00
89.0111 606.00
89.3154 724.00
89.6196 629.00
89.9239 630.00
90.2282 658.00
90.5324 579.00
90.8367 561.00
91.1409 579.00
91.4452 538.00
91.7495 516.00
92.0537 532.00
92.358 521.00
92.6622 589.00
92.9665 468.00
93.2708 454.00
93.575 505.00
93.8793 498.00
94.1835 509.00
94.4878 535.00
94.7921 548.00
95.0963 522.00
95.4006 535.00
95.7048 493.00
96.0091 557.00
96.3134 555.00
96.6176 684.00
96.9219 531.00
97.2261 481.00
97.5304 474.00
97.8347 547.00
98.1389 503.00
98.4432 450.00
98.7474 427.00
99.0517 455.00
99.356 606.00
99.6602 487.00
99.9645 435.00
100.095 413.00

File: PG_1850-1.xy
9.903433 2573.00
10.2077 2571.00
10.512 2496.00
10.8162 2365.00
11.1205 2346.00
11.4247 2145.00
11.729 2221.00
12.0333 2146.00
12.3375 2012.00
12.6418 2055.00
12.946 1973.00
13.2503 1789.00
13.5546 1721.00
13.8588 1746.00
14.1631 1779.00
14.4673 1728.00
14.7716 1691.00
15.0759 1805.00
15.3801 1593.00
15.6844 1723.00
15.9886 1593.00
16.2929 1616.00
16.5972 1593.00
16.9014 1621.00
17.2057 1554.00
17.5099 1558.00
17.8142 1514.00
18.1185 1565.00
18.4227 1521.00
18.727 1451.00
19.0312 1388.00
19.3355 1400.00
19.6398 1350.00
19.944 1317.00
20.2483 1365.00
20.5525 1475.00
20.8568 2413.00
21.1611 1422.00
21.4653 1346.00
21.7696 2630.00
22.0738 1281.00
22.3781 1264.00
22.6824 1196.00
22.9866 1301.00
23.2909 1207.00
23.5951 1250.00
23.8994 1258.00
24.2037 1209.00
24.5079 1154.00
24.8122 1245.00
25.1164 1159.00
25.4207 1168.00
25.725 1119.00
26.0292 1136.00
26.3335 1160.00
26.6378 1134.00
26.942 1106.00
27.2463 1072.00
27.5505 1051.00
27.8548 1134.00
28.1591 1063.00
28.4633 1192.00
28.7676 1165.00
29.0718 1391.00
29.3761 5881.00
29.6804 2386.00
29.9846 1536.00
30.2889 1352.00
30.5931 1997.00
30.8974 22036.00
31.2017 1629.00
31.5059 1179.00
31.8102 1198.00
32.1144 1076.00
32.4187 1071.00
32.723 1082.00
33.0272 1062.00
33.3315 1206.00
33.6357 1061.00
33.94 1588.00
34.2443 1986.00
34.5485 1065.00
34.8528 1084.00
35.157 1035.00
35.4613 1221.00
35.7656 7423.00
36.0698 1223.00
36.3741 1156.00
36.6783 959.00
36.9826 908.00
37.2869 975.00
37.5911 996.00
37.8954 1195.00
38.1996 1189.00
38.5039 972.00
38.8082 946.00
39.1124 938.00
39.4167 934.00
39.7209 854.00
40.0252 1192.00
40.3295 1105.00
40.6337 949.00
40.938 878.00
41.2422 869.00
41.5465 873.00
41.8508 894.00
42.155 1953.00
42.4593 975.00
42.7635 841.00
43.0678 866.00
43.3721 913.00
43.6763 1173.00
43.9806 1196.00
44.2849 913.00
44.5891 864.00
44.8934 884.00
45.1976 823.00
45.5019 896.00
45.8062 1083.00
46.1104 1855.00
46.4147 890.00
46.7189 910.00
47.0232 920.00
47.3275 1053.00
47.6317 914.00
47.936 864.00
48.2402 942.00
48.5445 1155.00
48.8488 6030.00
49.153 1313.00
49.4573 1150.00
49.7615 1139.00
50.0658 1020.00
50.3701 1071.00
50.6743 961.00
50.9786 1262.00
51.2828 8415.00
51.5871 1323.00
51.8914 979.00
52.1956 941.00
52.4999 848.00
52.8041 987.00
53.1084 1024.00
53.4127 1051.00
53.7169 1023.00
54.0212 893.00
54.3254 870.00
54.6297 1029.00
54.934 1001.00
55.2382 855.00
55.5425 856.00
55.8467 919.00
56.151 1228.00
56.4553 1724.00
56.7595 965.00
57.0638 869.00
57.368 892.00
57.6723 1199.00
57.9766 3217.00
58.2808 1071.00
58.5851 995.00
58.8893 999.00
59.1936 1164.00
59.4979 1648.00
59.8021 939.00
60.1064 891.00
60.4106 1034.00
60.7149 1942.00
61.0192 3481.00
61.3234 1039.00
61.6277 927.00
61.932 934.00
62.2362 1082.00
62.5405 1342.00
62.8447 898.00
63.149 941.00
63.4533 1021.00
63.7575 951.00
64.0618 1304.00
64.366 835.00
64.6703 949.00
64.9745 1016.00
65.2788 959.00
65.5831 1105.00
65.8873 910.00
66.1916 977.00
66.4959 907.00
66.8001 1005.00
67.1044 890.00
67.4086 857.00
67.7129 827.00
68.0172 839.00
68.3214 1381.00
68.6257 855.00
68.9299 796.00
69.2342 779.00
69.5385 874.00
69.8427 959.00
70.147 928.00
70.4512 813.00
70.7555 797.00
71.0598 863.00
71.364 1254.00
71.6683 900.00
71.9725 865.00
72.2768 883.00
72.5811 1235.00
72.8853 955.00
73.1896 861.00
73.4938 846.00
73.7981 1076.00
74.1024 1099.00
74.4066 845.00
74.7109 813.00
75.0151 975.00
75.3194 1546.00
75.6237 930.00
75.9279 868.00
76.2322 935.00
76.5364 1094.00
76.8407 1174.00
77.145 877.00
77.4492 880.00
77.7535 1024.00
78.0577 1137.00
78.362 921.00
78.6663 959.00
78.9705 1161.00
79.2748 1062.00
79.579 1030.00
79.8833 889.00
80.1876 805.00
80.4918 884.00
80.7961 968.00
81.1003 944.00
81.4046 1036.00
81.7089 908.00
82.0131 1285.00
82.3174 1173.00
82.6217 875.00
82.9259 897.00
83.2302 1084.00
83.5344 1305.00
83.8387 918.00
84.143 800.00
84.4472 795.00
84.7515 890.00
85.0557 891.00
85.36 874.00
85.6643 826.00
85.9685 1265.00
86.2728 1226.00
86.577 819.00
86.8813 807.00
87.1856 916.00
87.4898 995.00
87.7941 875.00
88.0983 896.00
88.4026 831.00
88.7069 1028.00
89.0111 890.00
89.3154 851.00
89.6196 920.00
89.9239 1079.00
90.2282 1086.00
90.5324 894.00
90.8367 980.00
91.1409 1102.00
91.4452 931.00
91.7495 844.00
92.0537 878.00
92.358 943.00
92.6622 1303.00
92.9665 1059.00
93.2708 902.00
93.575 893.00
93.8793 904.00
94.1835 869.00
94.4878 840.00
94.7921 895.00
95.0963 923.00
95.4006 1126.00
95.7048 1118.00
96.0091 969.00
96.3134 954.00
96.6176 1420.00
96.9219 1111.00
97.2261 873.00
97.5304 903.00
97.8347 967.00
98.1389 1191.00
98.4432 1077.00
98.7474 939.00
99.0517 834.00
99.356 1244.00
99.6602 1039.00
99.9645 904.00
100.095 981.00

File: PG_1851-1.xy
9.903433 2550.00
10.2077 2401.00
10.512 2420.00
10.8162 2306.00
11.1205 2140.00
11.4247 2155.00
11.729 2081.00
12.0333 1952.00
12.3375 1808.00
12.6418 1792.00
12.946 1760.00
13.2503 1693.00
13.5546 1620.00
13.8588 1566.00
14.1631 1571.00
14.4673 1636.00
14.7716 1451.00
15.0759 1405.00
15.3801 1507.00
15.6844 1376.00
15.9886 1349.00
16.2929 1305.00
16.5972 1308.00
16.9014 1287.00
17.2057 1273.00
17.5099 1315.00
17.8142 1313.00
18.1185 1238.00
18.4227 1204.00
18.727 1114.00
19.0312 1057.00
19.3355 1096.00
19.6398 1070.00
19.944 1041.00
20.2483 1058.00
20.5525 954.00
20.8568 985.00
21.1611 1057.00
21.4653 1160.00
21.7696 2031.00
22.0738 968.00
22.3781 969.00
22.6824 942.00
22.9866 938.00
23.2909 885.00
23.5951 848.00
23.8994 872.00
24.2037 842.00
24.5079 834.00
24.8122 891.00
25.1164 799.00
25.4207 785.00
25.725 743.00
26.0292 732.00
26.3335 742.00
26.6378 731.00
26.942 702.00
27.2463 741.00
27.5505 701.00
27.8548 828.00
28.1591 720.00
28.4633 645.00
28.7676 635.00
29.0718 676.00
29.3761 631.00
29.6804 646.00
29.9846 692.00
30.2889 804.00
30.5931 1485.00
30.8974 11349.00
31.2017 1542.00
31.5059 1433.00
31.8102 1401.00
32.1144 1053.00
32.4187 984.00
32.723 1069.00
33.0272 899.00
33.3315 845.00
33.6357 691.00
33.94 745.00
34.2443 734.00
34.5485 834.00
34.8528 1172.00
35.157 1537.00
35.4613 1441.00
35.7656 5350.00
36.0698 1259.00
36.3741 1512.00
36.6783 905.00
36.9826 617.00
37.2869 590.00
37.5911 593.00
37.8954 942.00
38.1996 569.00
38.5039 494.00
38.8082 492.00
39.1124 466.00
39.4167 433.00
39.7209 486.00
40.0252 597.00
40.3295 457.00
40.6337 410.00
40.938 440.00
41.2422 515.00
41.5465 453.00
41.8508 444.00
42.155 904.00
42.4593 437.00
42.7635 400.00
43.0678 376.00
43.3721 427.00
43.6763 436.00
43.9806 484.00
44.2849 440.00
44.5891 529.00
44.8934 409.00
45.1976 417.00
45.5019 471.00
45.8062 686.00
46.1104 803.00
46.4147 420.00
46.7189 531.00
47.0232 719.00
47.3275 515.00
47.6317 621.00
47.936 606.00
48.2402 412.00
48.5445 387.00
48.8488 395.00
49.153 372.00
49.4573 545.00
49.7615 435.00
50.0658 423.00
50.3701 405.00
50.6743 473.00
50.9786 683.00
51.2828 5948.00
51.5871 531.00
51.8914 370.00
52.1956 407.00
52.4999 378.00
52.8041 385.00
53.1084 537.00
53.4127 395.00
53.7169 374.00
54.0212 367.00
54.3254 422.00
54.6297 486.00
54.934 441.00
55.2382 703.00
55.5425 1245.00
55.8467 590.00
56.151 1001.00
56.4553 734.00
56.7595 737.00
57.0638 440.00
57.368 458.00
57.6723 406.00
57.9766 462.00
58.2808 350.00
58.5851 358.00
58.8893 535.00
59.1936 535.00
59.4979 748.00
59.8021 437.00
60.1064 455.00
60.4106 722.00
60.7149 920.00
61.0192 2382.00
61.3234 500.00
61.6277 465.00
61.932 502.00
62.2362 549.00
62.5405 899.00
62.8447 533.00
63.149 632.00
63.4533 565.00
63.7575 583.00
64.0618 804.00
64.366 412.00
64.6703 379.00
64.9745 550.00
65.2788 623.00
65.5831 993.00
65.8873 609.00
66.1916 497.00
66.4959 479.00
66.8001 687.00
67.1044 659.00
67.4086 615.00
67.7129 661.00
68.0172 615.00
68.3214 808.00
68.6257 562.00
68.9299 455.00
69.2342 469.00
69.5385 424.00
69.8427 455.00
70.147 343.00
70.4512 307.00
70.7555 336.00
71.0598 324.00
71.364 327.00
71.6683 278.00
71.9725 354.00
72.2768 357.00
72.5811 347.00
72.8853 350.00
73.1896 349.00
73.4938 343.00
73.7981 520.00
74.1024 476.00
74.4066 346.00
74.7109 332.00
75.0151 357.00
75.3194 683.00
75.6237 415.00
75.9279 342.00
76.2322 371.00
76.5364 658.00
76.8407 656.00
77.145 397.00
77.4492 319.00
77.7535 344.00
78.0577 443.00
78.362 384.00
78.6663 314.00
78.9705 346.00
79.2748 558.00
79.579 510.00
79.8833 323.00
80.1876 334.00
80.4918 356.00
80.7961 400.00
81.1003 369.00
81.4046 314.00
81.7089 355.00
82.0131 799.00
82.3174 476.00
82.6217 342.00
82.9259 331.00
83.2302 612.00
83.5344 731.00
83.8387 314.00
84.143 342.00
84.4472 335.00
84.7515 309.00
85.0557 368.00
85.36 393.00
85.6643 382.00
85.9685 895.00
86.2728 794.00
86.577 337.00
86.8813 360.00
87.1856 367.00
87.4898 349.00
87.7941 335.00
88.0983 356.00
88.4026 354.00
88.7069 506.00
89.0111 408.00
89.3154 406.00
89.6196 409.00
89.9239 622.00
90.2282 573.00
90.5324 388.00
90.8367 361.00
91.1409 357.00
91.4452 357.00
91.7495 371.00
92.0537 405.00
92.358 515.00
92.6622 926.00
92.9665 685.00
93.2708 405.00
93.575 399.00
93.8793 342.00
94.1835 346.00
94.4878 356.00
94.7921 397.00
95.0963 433.00
95.4006 548.00
95.7048 449.00
96.0091 361.00
96.3134 354.00
96.6176 971.00
96.9219 673.00
97.2261 372.00
97.5304 368.00
97.8347 421.00
98.1389 425.00
98.4432 412.00
98.7474 413.00
99.0517 394.00
99.356 563.00
99.6602 445.00
99.9645 389.00
100.095 401.00