Folder: alab-pipeline/data/xrd_creation/results (part 98)

File: PG_2146-1.xy
9.903433 2439.00
10.2077 2360.00
10.512 2257.00
10.8162 2263.00
11.1205 2261.00
11.4247 2172.00
11.729 2023.00
12.0333 1936.00
12.3375 2039.00
12.6418 1826.00
12.946 1877.00
13.2503 1792.00
13.5546 1794.00
13.8588 1750.00
14.1631 1586.00
14.4673 1658.00
14.7716 1610.00
15.0759 1636.00
15.3801 1801.00
15.6844 2697.00
15.9886 8690.00
16.2929 2111.00
16.5972 1640.00
16.9014 1490.00
17.2057 1500.00
17.5099 1403.00
17.8142 1355.00
18.1185 1368.00
18.4227 1322.00
18.727 1291.00
19.0312 1243.00
19.3355 1221.00
19.6398 1194.00
19.944 1144.00
20.2483 1128.00
20.5525 1097.00
20.8568 1166.00
21.1611 1120.00
21.4653 1028.00
21.7696 1033.00
22.0738 1019.00
22.3781 995.00
22.6824 1002.00
22.9866 1014.00
23.2909 960.00
23.5951 953.00
23.8994 894.00
24.2037 863.00
24.5079 956.00
24.8122 957.00
25.1164 945.00
25.4207 1323.00
25.725 3897.00
26.0292 972.00
26.3335 841.00
26.6378 942.00
26.942 987.00
27.2463 1488.00
27.5505 5962.00
27.8548 2530.00
28.1591 4636.00
28.4633 4618.00
28.7676 1241.00
29.0718 865.00
29.3761 832.00
29.6804 787.00
29.9846 725.00
30.2889 718.00
30.5931 654.00
30.8974 723.00
31.2017 692.00
31.5059 770.00
31.8102 1585.00
32.1144 1325.00
32.4187 703.00
32.723 642.00
33.0272 620.00
33.3315 586.00
33.6357 596.00
33.94 590.00
34.2443 571.00
34.5485 557.00
34.8528 562.00
35.157 577.00
35.4613 604.00
35.7656 569.00
36.0698 640.00
36.3741 1053.00
36.6783 617.00
36.9826 520.00
37.2869 817.00
37.5911 522.00
37.8954 544.00
38.1996 1262.00
38.5039 606.00
38.8082 717.00
39.1124 682.00
39.4167 1072.00
39.7209 4896.00
40.0252 2580.00
40.3295 763.00
40.6337 558.00
40.938 537.00
41.2422 488.00
41.5465 517.00
41.8508 483.00
42.155 540.00
42.4593 1219.00
42.7635 882.00
43.0678 482.00
43.3721 445.00
43.6763 441.00
43.9806 428.00
44.2849 402.00
44.5891 407.00
44.8934 443.00
45.1976 436.00
45.5019 419.00
45.8062 457.00
46.1104 442.00
46.4147 441.00
46.7189 415.00
47.0232 509.00
47.3275 1123.00
47.6317 957.00
47.936 709.00
48.2402 1329.00
48.5445 3129.00
48.8488 3864.00
49.153 3068.00
49.4573 916.00
49.7615 596.00
50.0658 753.00
50.3701 959.00
50.6743 477.00
50.9786 426.00
51.2828 366.00
51.5871 371.00
51.8914 412.00
52.1956 342.00
52.4999 350.00
52.8041 364.00
53.1084 376.00
53.4127 343.00
53.7169 379.00
54.0212 436.00
54.3254 902.00
54.6297 398.00
54.934 430.00
55.2382 697.00
55.5425 1990.00
55.8467 931.00
56.151 567.00
56.4553 830.00
56.7595 783.00
57.0638 479.00
57.368 370.00
57.6723 376.00
57.9766 532.00
58.2808 603.00
58.5851 386.00
58.8893 488.00
59.1936 669.00
59.4979 371.00
59.8021 329.00
60.1064 258.00
60.4106 293.00
60.7149 301.00
61.0192 297.00
61.3234 315.00
61.6277 275.00
61.932 286.00
62.2362 279.00
62.5405 353.00
62.8447 419.00
63.149 692.00
63.4533 392.00
63.7575 402.00
64.0618 734.00
64.366 1234.00
64.6703 650.00
64.9745 436.00
65.2788 631.00
65.5831 581.00
65.8873 382.00
66.1916 447.00
66.4959 423.00
66.8001 322.00
67.1044 314.00
67.4086 261.00
67.7129 312.00
68.0172 288.00
68.3214 299.00
68.6257 312.00
68.9299 378.00
69.2342 474.00
69.5385 440.00
69.8427 803.00
70.147 899.00
70.4512 505.00
70.7555 519.00
71.0598 465.00
71.364 527.00
71.6683 338.00
71.9725 301.00
72.2768 279.00
72.5811 304.00
72.8853 370.00
73.1896 346.00
73.4938 274.00
73.7981 279.00
74.1024 297.00
74.4066 288.00
74.7109 270.00
75.0151 299.00
75.3194 722.00
75.6237 469.00
75.9279 477.00
76.2322 761.00
76.5364 792.00
76.8407 683.00
77.145 682.00
77.4492 984.00
77.7535 1230.00
78.0577 914.00
78.362 526.00
78.6663 495.00
78.9705 412.00
79.2748 333.00
79.579 278.00
79.8833 275.00
80.1876 241.00
80.4918 245.00
80.7961 267.00
81.1003 232.00
81.4046 262.00
81.7089 287.00
82.0131 266.00
82.3174 399.00
82.6217 589.00
82.9259 647.00
83.2302 383.00
83.5344 277.00
83.8387 264.00
84.143 243.00
84.4472 257.00
84.7515 239.00
85.0557 291.00
85.36 360.00
85.6643 277.00
85.9685 303.00
86.2728 274.00
86.577 277.00
86.8813 260.00
87.1856 267.00
87.4898 237.00
87.7941 249.00
88.0983 292.00
88.4026 333.00
88.7069 446.00
89.0111 661.00
89.3154 497.00
89.6196 359.00
89.9239 337.00
90.2282 385.00
90.5324 507.00
90.8367 455.00
91.1409 352.00
91.4452 377.00
91.7495 361.00
92.0537 324.00
92.358 323.00
92.6622 274.00
92.9665 258.00
93.2708 258.00
93.575 239.00
93.8793 292.00
94.1835 250.00
94.4878 354.00
94.7921 330.00
95.0963 329.00
95.4006 525.00
95.7048 642.00
96.0091 628.00
96.3134 489.00
96.6176 453.00
96.9219 537.00
97.2261 469.00
97.5304 378.00
97.8347 319.00
98.1389 256.00
98.4432 303.00
98.7474 291.00
99.0517 315.00
99.356 275.00
99.6602 242.00
99.9645 287.00
100.095 310.00

File: PG_2147-1.xy
9.903433 2475.00
10.2077 2528.00
10.512 2281.00
10.8162 2262.00
11.1205 2310.00
11.4247 2183.00
11.729 2063.00
12.0333 2044.00
12.3375 1934.00
12.6418 1881.00
12.946 1858.00
13.2503 1786.00
13.5546 1736.00
13.8588 1734.00
14.1631 1697.00
14.4673 1698.00
14.7716 1618.00
15.0759 1668.00
15.3801 1736.00
15.6844 2637.00
15.9886 8437.00
16.2929 2287.00
16.5972 1591.00
16.9014 1522.00
17.2057 1456.00
17.5099 1414.00
17.8142 1459.00
18.1185 1412.00
18.4227 1300.00
18.727 1294.00
19.0312 1269.00
19.3355 1250.00
19.6398 1259.00
19.944 1215.00
20.2483 1247.00
20.5525 1141.00
20.8568 1142.00
21.1611 1118.00
21.4653 1156.00
21.7696 1120.00
22.0738 1094.00
22.3781 1116.00
22.6824 1023.00
22.9866 1040.00
23.2909 1001.00
23.5951 948.00
23.8994 977.00
24.2037 1017.00
24.5079 1190.00
24.8122 1192.00
25.1164 961.00
25.4207 922.00
25.725 947.00
26.0292 963.00
26.3335 919.00
26.6378 952.00
26.942 1069.00
27.2463 1491.00
27.5505 5929.00
27.8548 2789.00
28.1591 4384.00
28.4633 5699.00
28.7676 1363.00
29.0718 1002.00
29.3761 947.00
29.6804 888.00
29.9846 888.00
30.2889 822.00
30.5931 831.00
30.8974 807.00
31.2017 816.00
31.5059 849.00
31.8102 1502.00
32.1144 1495.00
32.4187 800.00
32.723 744.00
33.0272 771.00
33.3315 2408.00
33.6357 764.00
33.94 654.00
34.2443 659.00
34.5485 662.00
34.8528 634.00
35.157 655.00
35.4613 680.00
35.7656 637.00
36.0698 700.00
36.3741 1272.00
36.6783 1671.00
36.9826 639.00
37.2869 589.00
37.5911 599.00
37.8954 513.00
38.1996 596.00
38.5039 592.00
38.8082 682.00
39.1124 737.00
39.4167 1135.00
39.7209 4646.00
40.0252 3056.00
40.3295 948.00
40.6337 685.00
40.938 616.00
41.2422 546.00
41.5465 1072.00
41.8508 547.00
42.155 710.00
42.4593 1265.00
42.7635 1134.00
43.0678 607.00
43.3721 552.00
43.6763 563.00
43.9806 493.00
44.2849 536.00
44.5891 589.00
44.8934 451.00
45.1976 508.00
45.5019 488.00
45.8062 526.00
46.1104 473.00
46.4147 515.00
46.7189 518.00
47.0232 602.00
47.3275 1167.00
47.6317 981.00
47.936 687.00
48.2402 1026.00
48.5445 2787.00
48.8488 3753.00
49.153 3434.00
49.4573 1069.00
49.7615 677.00
50.0658 943.00
50.3701 1147.00
50.6743 555.00
50.9786 505.00
51.2828 480.00
51.5871 476.00
51.8914 462.00
52.1956 423.00
52.4999 446.00
52.8041 468.00
53.1084 451.00
53.4127 445.00
53.7169 484.00
54.0212 519.00
54.3254 1668.00
54.6297 516.00
54.934 485.00
55.2382 595.00
55.5425 1528.00
55.8467 1037.00
56.151 589.00
56.4553 816.00
56.7595 895.00
57.0638 564.00
57.368 483.00
57.6723 406.00
57.9766 559.00
58.2808 683.00
58.5851 511.00
58.8893 582.00
59.1936 683.00
59.4979 507.00
59.8021 394.00
60.1064 367.00
60.4106 421.00
60.7149 342.00
61.0192 384.00
61.3234 358.00
61.6277 372.00
61.932 344.00
62.2362 354.00
62.5405 370.00
62.8447 394.00
63.149 387.00
63.4533 767.00
63.7575 513.00
64.0618 770.00
64.366 1370.00
64.6703 803.00
64.9745 554.00
65.2788 684.00
65.5831 1003.00
65.8873 491.00
66.1916 525.00
66.4959 418.00
66.8001 373.00
67.1044 394.00
67.4086 352.00
67.7129 365.00
68.0172 378.00
68.3214 365.00
68.6257 343.00
68.9299 361.00
69.2342 407.00
69.5385 502.00
69.8427 866.00
70.147 1043.00
70.4512 567.00
70.7555 450.00
71.0598 769.00
71.364 670.00
71.6683 427.00
71.9725 388.00
72.2768 370.00
72.5811 383.00
72.8853 424.00
73.1896 470.00
73.4938 400.00
73.7981 384.00
74.1024 348.00
74.4066 328.00
74.7109 335.00
75.0151 330.00
75.3194 337.00
75.6237 383.00
75.9279 553.00
76.2322 735.00
76.5364 810.00
76.8407 769.00
77.145 773.00
77.4492 1036.00
77.7535 1392.00
78.0577 1020.00
78.362 614.00
78.6663 663.00
78.9705 626.00
79.2748 435.00
79.579 366.00
79.8833 378.00
80.1876 361.00
80.4918 377.00
80.7961 334.00
81.1003 302.00
81.4046 314.00
81.7089 303.00
82.0131 371.00
82.3174 510.00
82.6217 684.00
82.9259 590.00
83.2302 385.00
83.5344 371.00
83.8387 317.00
84.143 358.00
84.4472 311.00
84.7515 335.00
85.0557 403.00
85.36 428.00
85.6643 363.00
85.9685 368.00
86.2728 372.00
86.577 408.00
86.8813 344.00
87.1856 359.00
87.4898 337.00
87.7941 323.00
88.0983 339.00
88.4026 349.00
88.7069 537.00
89.0111 751.00
89.3154 605.00
89.6196 465.00
89.9239 552.00
90.2282 561.00
90.5324 574.00
90.8367 547.00
91.1409 484.00
91.4452 464.00
91.7495 429.00
92.0537 379.00
92.358 380.00
92.6622 332.00
92.9665 331.00
93.2708 352.00
93.575 438.00
93.8793 393.00
94.1835 346.00
94.4878 306.00
94.7921 284.00
95.0963 387.00
95.4006 479.00
95.7048 672.00
96.0091 676.00
96.3134 603.00
96.6176 539.00
96.9219 626.00
97.2261 607.00
97.5304 504.00
97.8347 428.00
98.1389 357.00
98.4432 341.00
98.7474 340.00
99.0517 334.00
99.356 309.00
99.6602 338.00
99.9645 319.00
100.095 329.00

File: PG_2148-1.xy
9.903433 2770.00
10.2077 2532.00
10.512 2401.00
10.8162 2461.00
11.1205 2293.00
11.4247 2292.00
11.729 2242.00
12.0333 2197.00
12.3375 2019.00
12.6418 1970.00
12.946 1846.00
13.2503 1821.00
13.5546 1820.00
13.8588 1747.00
14.1631 1750.00
14.4673 1627.00
14.7716 1723.00
15.0759 1682.00
15.3801 1887.00
15.6844 3317.00
15.9886 9799.00
16.2929 2471.00
16.5972 1708.00
16.9014 1554.00
17.2057 1651.00
17.5099 1484.00
17.8142 1444.00
18.1185 1454.00
18.4227 1424.00
18.727 1373.00
19.0312 1348.00
19.3355 1332.00
19.6398 1320.00
19.944 1348.00
20.2483 1318.00
20.5525 2562.00
20.8568 1484.00
21.1611 1218.00
21.4653 1170.00
21.7696 1223.00
22.0738 1920.00
22.3781 1113.00
22.6824 1036.00
22.9866 1014.00
23.2909 1045.00
23.5951 1084.00
23.8994 1018.00
24.2037 1012.00
24.5079 980.00
24.8122 983.00
25.1164 994.00
25.4207 998.00
25.725 1010.00
26.0292 1009.00
26.3335 1124.00
26.6378 1386.00
26.942 1045.00
27.2463 1446.00
27.5505 5916.00
27.8548 3191.00
28.1591 4184.00
28.4633 6365.00
28.7676 1396.00
29.0718 1042.00
29.3761 961.00
29.6804 832.00
29.9846 843.00
30.2889 784.00
30.5931 871.00
30.8974 846.00
31.2017 1055.00
31.5059 1525.00
31.8102 1487.00
32.1144 1587.00
32.4187 845.00
32.723 1220.00
33.0272 749.00
33.3315 713.00
33.6357 829.00
33.94 713.00
34.2443 673.00
34.5485 811.00
34.8528 692.00
35.157 654.00
35.4613 653.00
35.7656 644.00
36.0698 709.00
36.3741 1243.00
36.6783 654.00
36.9826 568.00
37.2869 617.00
37.5911 600.00
37.8954 566.00
38.1996 578.00
38.5039 624.00
38.8082 688.00
39.1124 735.00
39.4167 1130.00
39.7209 4418.00
40.0252 3362.00
40.3295 971.00
40.6337 694.00
40.938 617.00
41.2422 659.00
41.5465 828.00
41.8508 646.00
42.155 644.00
42.4593 1396.00
42.7635 1110.00
43.0678 640.00
43.3721 552.00
43.6763 569.00
43.9806 533.00
44.2849 556.00
44.5891 532.00
44.8934 604.00
45.1976 487.00
45.5019 515.00
45.8062 766.00
46.1104 492.00
46.4147 515.00
46.7189 504.00
47.0232 591.00
47.3275 1124.00
47.6317 1310.00
47.936 800.00
48.2402 1358.00
48.5445 2806.00
48.8488 3691.00
49.153 4009.00
49.4573 1095.00
49.7615 755.00
50.0658 746.00
50.3701 1035.00
50.6743 594.00
50.9786 515.00
51.2828 482.00
51.5871 849.00
51.8914 517.00
52.1956 420.00
52.4999 559.00
52.8041 471.00
53.1084 422.00
53.4127 440.00
53.7169 416.00
54.0212 461.00
54.3254 446.00
54.6297 487.00
54.934 468.00
55.2382 619.00
55.5425 1510.00
55.8467 1144.00
56.151 702.00
56.4553 849.00
56.7595 993.00
57.0638 520.00
57.368 440.00
57.6723 444.00
57.9766 570.00
58.2808 638.00
58.5851 495.00
58.8893 651.00
59.1936 782.00
59.4979 563.00
59.8021 427.00
60.1064 425.00
60.4106 444.00
60.7149 399.00
61.0192 402.00
61.3234 458.00
61.6277 483.00
61.932 383.00
62.2362 406.00
62.5405 529.00
62.8447 385.00
63.149 369.00
63.4533 372.00
63.7575 494.00
64.0618 787.00
64.366 1420.00
64.6703 850.00
64.9745 631.00
65.2788 696.00
65.5831 684.00
65.8873 465.00
66.1916 508.00
66.4959 564.00
66.8001 360.00
67.1044 353.00
67.4086 389.00
67.7129 349.00
68.0172 385.00
68.3214 405.00
68.6257 407.00
68.9299 369.00
69.2342 469.00
69.5385 468.00
69.8427 953.00
70.147 1109.00
70.4512 650.00
70.7555 512.00
71.0598 578.00
71.364 583.00
71.6683 450.00
71.9725 410.00
72.2768 413.00
72.5811 487.00
72.8853 495.00
73.1896 546.00
73.4938 422.00
73.7981 363.00
74.1024 381.00
74.4066 373.00
74.7109 404.00
75.0151 454.00
75.3194 402.00
75.6237 379.00
75.9279 518.00
76.2322 741.00
76.5364 909.00
76.8407 771.00
77.145 739.00
77.4492 1023.00
77.7535 1380.00
78.0577 1093.00
78.362 610.00
78.6663 596.00
78.9705 597.00
79.2748 450.00
79.579 384.00
79.8833 357.00
80.1876 398.00
80.4918 368.00
80.7961 363.00
81.1003 382.00
81.4046 354.00
81.7089 335.00
82.0131 375.00
82.3174 473.00
82.6217 585.00
82.9259 517.00
83.2302 375.00
83.5344 352.00
83.8387 346.00
84.143 339.00
84.4472 317.00
84.7515 325.00
85.0557 410.00
85.36 382.00
85.6643 410.00
85.9685 364.00
86.2728 357.00
86.577 364.00
86.8813 382.00
87.1856 355.00
87.4898 367.00
87.7941 324.00
88.0983 344.00
88.4026 374.00
88.7069 570.00
89.0111 725.00
89.3154 592.00
89.6196 454.00
89.9239 420.00
90.2282 524.00
90.5324 621.00
90.8367 550.00
91.1409 489.00
91.4452 429.00
91.7495 466.00
92.0537 392.00
92.358 373.00
92.6622 340.00
92.9665 353.00
93.2708 378.00
93.575 364.00
93.8793 326.00
94.1835 352.00
94.4878 357.00
94.7921 349.00
95.0963 411.00
95.4006 488.00
95.7048 649.00
96.0091 703.00
96.3134 562.00
96.6176 514.00
96.9219 615.00
97.2261 600.00
97.5304 482.00
97.8347 376.00
98.1389 382.00
98.4432 365.00
98.7474 344.00
99.0517 392.00
99.356 338.00
99.6602 368.00
99.9645 389.00
100.095 357.00

File: PG_2149-1.xy
9.903433 2455.00
10.2077 2434.00
10.512 2362.00
10.8162 2265.00
11.1205 2139.00
11.4247 1990.00
11.729 1977.00
12.0333 1996.00
12.3375 1825.00
12.6418 1736.00
12.946 1751.00
13.2503 1658.00
13.5546 1659.00
13.8588 1532.00
14.1631 1569.00
14.4673 1523.00
14.7716 1522.00
15.0759 1481.00
15.3801 1511.00
15.6844 1962.00
15.9886 5682.00
16.2929 1937.00
16.5972 1417.00
16.9014 1294.00
17.2057 1327.00
17.5099 1242.00
17.8142 1309.00
18.1185 1243.00
18.4227 1183.00
18.727 1140.00
19.0312 1205.00
19.3355 1165.00
19.6398 1081.00
19.944 1052.00
20.2483 999.00
20.5525 1043.00
20.8568 1012.00
21.1611 1051.00
21.4653 982.00
21.7696 998.00
22.0738 951.00
22.3781 949.00
22.6824 1021.00
22.9866 1145.00
23.2909 2188.00
23.5951 5318.00
23.8994 5430.00
24.2037 2063.00
24.5079 2373.00
24.8122 6248.00
25.1164 1045.00
25.4207 918.00
25.725 930.00
26.0292 945.00
26.3335 912.00
26.6378 1016.00
26.942 2020.00
27.2463 1302.00
27.5505 3183.00
27.8548 2286.00
28.1591 2541.00
28.4633 4644.00
28.7676 1422.00
29.0718 1876.00
29.3761 1722.00
29.6804 771.00
29.9846 724.00
30.2889 746.00
30.5931 658.00
30.8974 614.00
31.2017 645.00
31.5059 685.00
31.8102 1037.00
32.1144 1226.00
32.4187 658.00
32.723 654.00
33.0272 637.00
33.3315 1212.00
33.6357 3368.00
33.94 3015.00
34.2443 2115.00
34.5485 4768.00
34.8528 1236.00
35.157 683.00
35.4613 623.00
35.7656 956.00
36.0698 1082.00
36.3741 971.00
36.6783 584.00
36.9826 471.00
37.2869 516.00
37.5911 520.00
37.8954 484.00
38.1996 472.00
38.5039 461.00
38.8082 494.00
39.1124 592.00
39.4167 735.00
39.7209 2628.00
40.0252 2260.00
40.3295 770.00
40.6337 574.00
40.938 541.00
41.2422 582.00
41.5465 606.00
41.8508 1143.00
42.155 1312.00
42.4593 1231.00
42.7635 799.00
43.0678 556.00
43.3721 501.00
43.6763 427.00
43.9806 431.00
44.2849 446.00
44.5891 641.00
44.8934 563.00
45.1976 721.00
45.5019 545.00
45.8062 695.00
46.1104 593.00
46.4147 659.00
46.7189 416.00
47.0232 467.00
47.3275 820.00
47.6317 1757.00
47.936 590.00
48.2402 723.00
48.5445 2260.00
48.8488 2697.00
49.153 2571.00
49.4573 894.00
49.7615 666.00
50.0658 983.00
50.3701 2540.00
50.6743 1539.00
50.9786 1306.00
51.2828 903.00
51.5871 425.00
51.8914 419.00
52.1956 364.00
52.4999 409.00
52.8041 374.00
53.1084 411.00
53.4127 486.00
53.7169 823.00
54.0212 913.00
54.3254 846.00
54.6297 1123.00
54.934 773.00
55.2382 1130.00
55.5425 1462.00
55.8467 1740.00
56.151 1684.00
56.4553 1654.00
56.7595 973.00
57.0638 466.00
57.368 427.00
57.6723 381.00
57.9766 472.00
58.2808 579.00
58.5851 480.00
58.8893 476.00
59.1936 562.00
59.4979 491.00
59.8021 474.00
60.1064 604.00
60.4106 825.00
60.7149 828.00
61.0192 610.00
61.3234 722.00
61.6277 749.00
61.932 882.00
62.2362 891.00
62.5405 990.00
62.8447 778.00
63.149 586.00
63.4533 555.00
63.7575 595.00
64.0618 582.00
64.366 937.00
64.6703 590.00
64.9745 402.00
65.2788 490.00
65.5831 493.00
65.8873 404.00
66.1916 435.00
66.4959 461.00
66.8001 435.00
67.1044 436.00
67.4086 452.00
67.7129 451.00
68.0172 508.00
68.3214 416.00
68.6257 340.00
68.9299 313.00
69.2342 408.00
69.5385 424.00
69.8427 651.00
70.147 872.00
70.4512 592.00
70.7555 494.00
71.0598 562.00
71.364 596.00
71.6683 554.00
71.9725 431.00
72.2768 664.00
72.5811 485.00
72.8853 460.00
73.1896 500.00
73.4938 383.00
73.7981 439.00
74.1024 456.00
74.4066 384.00
74.7109 357.00
75.0151 342.00
75.3194 399.00
75.6237 437.00
75.9279 603.00
76.2322 771.00
76.5364 1019.00
76.8407 1037.00
77.145 1087.00
77.4492 1113.00
77.7535 1026.00
78.0577 814.00
78.362 538.00
78.6663 507.00
78.9705 556.00
79.2748 407.00
79.579 336.00
79.8833 354.00
80.1876 361.00
80.4918 384.00
80.7961 385.00
81.1003 379.00
81.4046 428.00
81.7089 452.00
82.0131 545.00
82.3174 566.00
82.6217 625.00
82.9259 567.00
83.2302 516.00
83.5344 507.00
83.8387 611.00
84.143 482.00
84.4472 357.00
84.7515 399.00
85.0557 451.00
85.36 444.00
85.6643 420.00
85.9685 493.00
86.2728 596.00
86.577 589.00
86.8813 511.00
87.1856 488.00
87.4898 558.00
87.7941 642.00
88.0983 505.00
88.4026 498.00
88.7069 583.00
89.0111 687.00
89.3154 542.00
89.6196 420.00
89.9239 382.00
90.2282 429.00
90.5324 543.00
90.8367 477.00
91.1409 410.00
91.4452 421.00
91.7495 444.00
92.0537 460.00
92.358 486.00
92.6622 418.00
92.9665 346.00
93.2708 359.00
93.575 369.00
93.8793 342.00
94.1835 276.00
94.4878 355.00
94.7921 387.00
95.0963 376.00
95.4006 427.00
95.7048 646.00
96.0091 615.00
96.3134 542.00
96.6176 502.00
96.9219 552.00
97.2261 517.00
97.5304 470.00
97.8347 371.00
98.1389 373.00
98.4432 340.00
98.7474 309.00
99.0517 308.00
99.356 301.00
99.6602 316.00
99.9645 306.00
100.095 313.00

File: PG_2150-1.xy
9.903433 2792.00
10.2077 2708.00
10.512 2675.00
10.8162 2527.00
11.1205 2392.00
11.4247 2336.00
11.729 2266.00
12.0333 2120.00
12.3375 2255.00
12.6418 2077.00
12.946 2026.00
13.2503 2043.00
13.5546 2063.00
13.8588 1959.00
14.1631 1915.00
14.4673 2002.00
14.7716 1891.00
15.0759 2031.00
15.3801 2167.00
15.6844 3704.00
15.9886 9937.00
16.2929 2423.00
16.5972 2008.00
16.9014 1817.00
17.2057 1796.00
17.5099 1631.00
17.8142 1691.00
18.1185 1644.00
18.4227 1573.00
18.727 1616.00
19.0312 1527.00
19.3355 1573.00
19.6398 1596.00
19.944 1605.00
20.2483 1500.00
20.5525 1775.00
20.8568 2662.00
21.1611 1520.00
21.4653 1477.00
21.7696 1376.00
22.0738 1364.00
22.3781 1420.00
22.6824 1371.00
22.9866 1376.00
23.2909 1370.00
23.5951 1297.00
23.8994 1390.00
24.2037 1288.00
24.5079 1285.00
24.8122 1303.00
25.1164 1269.00
25.4207 1308.00
25.725 1314.00
26.0292 1183.00
26.3335 1262.00
26.6378 1359.00
26.942 1376.00
27.2463 2054.00
27.5505 7803.00
27.8548 2981.00
28.1591 6599.00
28.4633 4410.00
28.7676 1705.00
29.0718 1781.00
29.3761 8833.00
29.6804 2244.00
29.9846 1364.00
30.2889 1166.00
30.5931 1192.00
30.8974 1188.00
31.2017 1162.00
31.5059 1265.00
31.8102 2217.00
32.1144 1622.00
32.4187 1124.00
32.723 1123.00
33.0272 1134.00
33.3315 1077.00
33.6357 1038.00
33.94 1679.00
34.2443 1771.00
34.5485 1036.00
34.8528 925.00
35.157 983.00
35.4613 964.00
35.7656 1089.00
36.0698 1263.00
36.3741 1627.00
36.6783 1003.00
36.9826 886.00
37.2869 942.00
37.5911 904.00
37.8954 902.00
38.1996 1105.00
38.5039 978.00
38.8082 1046.00
39.1124 1088.00
39.4167 1674.00
39.7209 6328.00
40.0252 2870.00
40.3295 1278.00
40.6337 999.00
40.938 912.00
41.2422 938.00
41.5465 904.00
41.8508 970.00
42.155 1103.00
42.4593 1830.00
42.7635 1258.00
43.0678 950.00
43.3721 929.00
43.6763 1160.00
43.9806 1051.00
44.2849 841.00
44.5891 791.00
44.8934 872.00
45.1976 813.00
45.5019 842.00
45.8062 872.00
46.1104 820.00
46.4147 873.00
46.7189 898.00
47.0232 1021.00
47.3275 1978.00
47.6317 1279.00
47.936 1150.00
48.2402 1639.00
48.5445 3627.00
48.8488 9851.00
49.153 3448.00
49.4573 1395.00
49.7615 1087.00
50.0658 1220.00
50.3701 1621.00
50.6743 925.00
50.9786 807.00
51.2828 879.00
51.5871 772.00
51.8914 841.00
52.1956 776.00
52.4999 819.00
52.8041 851.00
53.1084 822.00
53.4127 1090.00
53.7169 901.00
54.0212 825.00
54.3254 833.00
54.6297 848.00
54.934 981.00
55.2382 1063.00
55.5425 2017.00
55.8467 1209.00
56.151 978.00
56.4553 1776.00
56.7595 1225.00
57.0638 881.00
57.368 811.00
57.6723 1109.00
57.9766 2847.00
58.2808 1175.00
58.5851 815.00
58.8893 1039.00
59.1936 1272.00
59.4979 1193.00
59.8021 779.00
60.1064 714.00
60.4106 784.00
60.7149 1389.00
61.0192 792.00
61.3234 841.00
61.6277 729.00
61.932 750.00
62.2362 886.00
62.5405 756.00
62.8447 726.00
63.149 794.00
63.4533 924.00
63.7575 851.00
64.0618 1186.00
64.366 1740.00
64.6703 1169.00
64.9745 1180.00
65.2788 1112.00
65.5831 1011.00
65.8873 841.00
66.1916 1001.00
66.4959 872.00
66.8001 748.00
67.1044 724.00
67.4086 703.00
67.7129 684.00
68.0172 754.00
68.3214 713.00
68.6257 727.00
68.9299 720.00
69.2342 752.00
69.5385 911.00
69.8427 1408.00
70.147 1379.00
70.4512 971.00
70.7555 869.00
71.0598 944.00
71.364 1220.00
71.6683 822.00
71.9725 765.00
72.2768 725.00
72.5811 1199.00
72.8853 851.00
73.1896 837.00
73.4938 771.00
73.7981 875.00
74.1024 757.00
74.4066 728.00
74.7109 670.00
75.0151 816.00
75.3194 812.00
75.6237 777.00
75.9279 931.00
76.2322 1169.00
76.5364 1259.00
76.8407 1137.00
77.145 1089.00
77.4492 1576.00
77.7535 1832.00
78.0577 1371.00
78.362 1010.00
78.6663 1119.00
78.9705 1251.00
79.2748 821.00
79.579 725.00
79.8833 715.00
80.1876 718.00
80.4918 655.00
80.7961 667.00
81.1003 803.00
81.4046 889.00
81.7089 745.00
82.0131 707.00
82.3174 841.00
82.6217 997.00
82.9259 836.00
83.2302 712.00
83.5344 705.00
83.8387 717.00
84.143 711.00
84.4472 709.00
84.7515 693.00
85.0557 847.00
85.36 821.00
85.6643 684.00
85.9685 696.00
86.2728 670.00
86.577 704.00
86.8813 689.00
87.1856 724.00
87.4898 735.00
87.7941 721.00
88.0983 769.00
88.4026 771.00
88.7069 926.00
89.0111 1057.00
89.3154 914.00
89.6196 846.00
89.9239 914.00
90.2282 865.00
90.5324 974.00
90.8367 1014.00
91.1409 1013.00
91.4452 900.00
91.7495 830.00
92.0537 866.00
92.358 800.00
92.6622 776.00
92.9665 728.00
93.2708 737.00
93.575 757.00
93.8793 734.00
94.1835 670.00
94.4878 711.00
94.7921 786.00
95.0963 791.00
95.4006 802.00
95.7048 1156.00
96.0091 1159.00
96.3134 939.00
96.6176 940.00
96.9219 1034.00
97.2261 990.00
97.5304 825.00
97.8347 792.00
98.1389 868.00
98.4432 825.00
98.7474 774.00
99.0517 828.00
99.356 832.00
99.6602 805.00
99.9645 746.00
100.095 698.00