Folder: alab-pipeline/data/xrd_creation/results (part 94)

File: PG_2039-1.xy
9.903433 3797.00
10.2077 3668.00
10.512 3648.00
10.8162 3561.00
11.1205 3572.00
11.4247 3533.00
11.729 3545.00
12.0333 3423.00
12.3375 3387.00
12.6418 3344.00
12.946 3432.00
13.2503 3269.00
13.5546 3348.00
13.8588 3284.00
14.1631 3307.00
14.4673 3381.00
14.7716 3381.00
15.0759 3307.00
15.3801 3343.00
15.6844 3271.00
15.9886 3418.00
16.2929 3259.00
16.5972 3318.00
16.9014 3334.00
17.2057 3453.00
17.5099 4226.00
17.8142 3908.00
18.1185 3193.00
18.4227 3310.00
18.727 3162.00
19.0312 3310.00
19.3355 3342.00
19.6398 3162.00
19.944 3196.00
20.2483 3167.00
20.5525 3198.00
20.8568 3222.00
21.1611 3117.00
21.4653 3106.00
21.7696 3060.00
22.0738 3159.00
22.3781 3225.00
22.6824 3096.00
22.9866 3136.00
23.2909 3079.00
23.5951 3245.00
23.8994 4550.00
24.2037 23839.00
24.5079 3453.00
24.8122 3128.00
25.1164 3099.00
25.4207 3177.00
25.725 3005.00
26.0292 3019.00
26.3335 2935.00
26.6378 3031.00
26.942 3003.00
27.2463 2974.00
27.5505 2911.00
27.8548 2934.00
28.1591 3058.00
28.4633 2878.00
28.7676 2891.00
29.0718 3020.00
29.3761 2935.00
29.6804 2917.00
29.9846 6244.00
30.2889 3056.00
30.5931 3284.00
30.8974 9809.00
31.2017 4032.00
31.5059 2979.00
31.8102 2962.00
32.1144 2916.00
32.4187 2847.00
32.723 2861.00
33.0272 2878.00
33.3315 2863.00
33.6357 2886.00
33.94 3009.00
34.2443 7381.00
34.5485 3021.00
34.8528 2848.00
35.157 2825.00
35.4613 4307.00
35.7656 2863.00
36.0698 2846.00
36.3741 2889.00
36.6783 2805.00
36.9826 2893.00
37.2869 4120.00
37.5911 12050.00
37.8954 3394.00
38.1996 2910.00
38.5039 3613.00
38.8082 4618.00
39.1124 2779.00
39.4167 2852.00
39.7209 2789.00
40.0252 2807.00
40.3295 2735.00
40.6337 2783.00
40.938 3806.00
41.2422 2833.00
41.5465 2699.00
41.8508 2830.00
42.155 2788.00
42.4593 2798.00
42.7635 2861.00
43.0678 3154.00
43.3721 5571.00
43.6763 14911.00
43.9806 3380.00
44.2849 2862.00
44.5891 2818.00
44.8934 2758.00
45.1976 2772.00
45.5019 2804.00
45.8062 2975.00
46.1104 4410.00
46.4147 3042.00
46.7189 13741.00
47.0232 3271.00
47.3275 2826.00
47.6317 2763.00
47.936 3632.00
48.2402 2753.00
48.5445 2778.00
48.8488 2641.00
49.153 3003.00
49.4573 2767.00
49.7615 2694.00
50.0658 2668.00
50.3701 2637.00
50.6743 2715.00
50.9786 2599.00
51.2828 2649.00
51.5871 2668.00
51.8914 2616.00
52.1956 2687.00
52.4999 2967.00
52.8041 2657.00
53.1084 2685.00
53.4127 2668.00
53.7169 2642.00
54.0212 2617.00
54.3254 2714.00
54.6297 2646.00
54.934 2659.00
55.2382 3609.00
55.5425 2908.00
55.8467 2630.00
56.151 2722.00
56.4553 2637.00
56.7595 2602.00
57.0638 2596.00
57.368 2642.00
57.6723 2660.00
57.9766 2684.00
58.2808 2580.00
58.5851 3750.00
58.8893 2954.00
59.1936 3666.00
59.4979 2770.00
59.8021 2700.00
60.1064 3059.00
60.4106 2654.00
60.7149 2604.00
61.0192 2712.00
61.3234 2624.00
61.6277 2615.00
61.932 2720.00
62.2362 2691.00
62.5405 2935.00
62.8447 3751.00
63.149 8396.00
63.4533 4311.00
63.7575 3102.00
64.0618 3251.00
64.366 3626.00
64.6703 2715.00
64.9745 2609.00
65.2788 2662.00
65.5831 2717.00
65.8873 2650.00
66.1916 2630.00
66.4959 2734.00
66.8001 2640.00
67.1044 2745.00
67.4086 2629.00
67.7129 2569.00
68.0172 2690.00
68.3214 2514.00
68.6257 2731.00
68.9299 2660.00
69.2342 2704.00
69.5385 2661.00
69.8427 3281.00
70.147 3616.00
70.4512 2607.00
70.7555 2616.00
71.0598 2655.00
71.364 2646.00
71.6683 2961.00
71.9725 3032.00
72.2768 2699.00
72.5811 2650.00
72.8853 2637.00
73.1896 2630.00
73.4938 2673.00
73.7981 2715.00
74.1024 2799.00
74.4066 2796.00
74.7109 4161.00
75.0151 2888.00
75.3194 2973.00
75.6237 4602.00
75.9279 3642.00
76.2322 2892.00
76.5364 2681.00
76.8407 2844.00
77.145 2764.00
77.4492 2718.00
77.7535 2541.00
78.0577 2679.00
78.362 2736.00
78.6663 2746.00
78.9705 2719.00
79.2748 2994.00
79.579 4366.00
79.8833 4160.00
80.1876 3211.00
80.4918 2768.00
80.7961 2716.00
81.1003 2649.00
81.4046 2658.00
81.7089 2701.00
82.0131 2862.00
82.3174 2643.00
82.6217 2689.00
82.9259 2779.00
83.2302 2633.00
83.5344 2649.00
83.8387 2687.00
84.143 2695.00
84.4472 2716.00
84.7515 2641.00
85.0557 2654.00
85.36 2666.00
85.6643 3070.00
85.9685 2821.00
86.2728 2629.00
86.577 2599.00
86.8813 2653.00
87.1856 2598.00
87.4898 2656.00
87.7941 2613.00
88.0983 2726.00
88.4026 2528.00
88.7069 2545.00
89.0111 2709.00
89.3154 2652.00
89.6196 2717.00
89.9239 2555.00
90.2282 2638.00
90.5324 2633.00
90.8367 2619.00
91.1409 2551.00
91.4452 2485.00
91.7495 2616.00
92.0537 2633.00
92.358 2698.00
92.6622 2638.00
92.9665 2604.00
93.2708 2558.00
93.575 2705.00
93.8793 2706.00
94.1835 2647.00
94.4878 2680.00
94.7921 2688.00
95.0963 2969.00
95.4006 3386.00
95.7048 3085.00
96.0091 2864.00
96.3134 2670.00
96.6176 2810.00
96.9219 2835.00
97.2261 2678.00
97.5304 2681.00
97.8347 2610.00
98.1389 2543.00
98.4432 2616.00
98.7474 2648.00
99.0517 2754.00
99.356 3022.00
99.6602 3325.00
99.9645 2882.00
100.095 2997.00

File: PG_2041-1.xy
9.903433 2672.00
10.2077 2604.00
10.512 2548.00
10.8162 2409.00
11.1205 2328.00
11.4247 2226.00
11.729 2211.00
12.0333 2074.00
12.3375 2103.00
12.6418 1965.00
12.946 1977.00
13.2503 1886.00
13.5546 1916.00
13.8588 2236.00
14.1631 2483.00
14.4673 1764.00
14.7716 1753.00
15.0759 1683.00
15.3801 1720.00
15.6844 1556.00
15.9886 1565.00
16.2929 1614.00
16.5972 1516.00
16.9014 1500.00
17.2057 1483.00
17.5099 1563.00
17.8142 1625.00
18.1185 1412.00
18.4227 1369.00
18.727 1258.00
19.0312 1284.00
19.3355 1262.00
19.6398 1369.00
19.944 1220.00
20.2483 1237.00
20.5525 1236.00
20.8568 1216.00
21.1611 1167.00
21.4653 1212.00
21.7696 1184.00
22.0738 1125.00
22.3781 1095.00
22.6824 1055.00
22.9866 1151.00
23.2909 1048.00
23.5951 1030.00
23.8994 1217.00
24.2037 5836.00
24.5079 1040.00
24.8122 963.00
25.1164 1022.00
25.4207 983.00
25.725 1012.00
26.0292 945.00
26.3335 907.00
26.6378 939.00
26.942 954.00
27.2463 990.00
27.5505 1407.00
27.8548 5450.00
28.1591 5181.00
28.4633 1255.00
28.7676 1469.00
29.0718 934.00
29.3761 870.00
29.6804 854.00
29.9846 1392.00
30.2889 928.00
30.5931 891.00
30.8974 1632.00
31.2017 1280.00
31.5059 813.00
31.8102 857.00
32.1144 1189.00
32.4187 8063.00
32.723 1058.00
33.0272 835.00
33.3315 780.00
33.6357 712.00
33.94 750.00
34.2443 1345.00
34.5485 785.00
34.8528 775.00
35.157 860.00
35.4613 1868.00
35.7656 631.00
36.0698 580.00
36.3741 556.00
36.6783 604.00
36.9826 585.00
37.2869 552.00
37.5911 534.00
37.8954 547.00
38.1996 555.00
38.5039 718.00
38.8082 953.00
39.1124 541.00
39.4167 517.00
39.7209 603.00
40.0252 625.00
40.3295 513.00
40.6337 526.00
40.938 734.00
41.2422 474.00
41.5465 498.00
41.8508 491.00
42.155 513.00
42.4593 808.00
42.7635 480.00
43.0678 447.00
43.3721 452.00
43.6763 451.00
43.9806 411.00
44.2849 472.00
44.5891 495.00
44.8934 477.00
45.1976 480.00
45.5019 486.00
45.8062 650.00
46.1104 1794.00
46.4147 4985.00
46.7189 2324.00
47.0232 691.00
47.3275 623.00
47.6317 457.00
47.936 657.00
48.2402 432.00
48.5445 761.00
48.8488 471.00
49.153 539.00
49.4573 445.00
49.7615 424.00
50.0658 413.00
50.3701 396.00
50.6743 435.00
50.9786 534.00
51.2828 468.00
51.5871 415.00
51.8914 372.00
52.1956 441.00
52.4999 421.00
52.8041 388.00
53.1084 421.00
53.4127 432.00
53.7169 438.00
54.0212 470.00
54.3254 619.00
54.6297 1417.00
54.934 4601.00
55.2382 933.00
55.5425 637.00
55.8467 477.00
56.151 394.00
56.4553 407.00
56.7595 394.00
57.0638 507.00
57.368 1200.00
57.6723 1155.00
57.9766 434.00
58.2808 407.00
58.5851 551.00
58.8893 556.00
59.1936 763.00
59.4979 1111.00
59.8021 469.00
60.1064 540.00
60.4106 361.00
60.7149 356.00
61.0192 373.00
61.3234 374.00
61.6277 364.00
61.932 367.00
62.2362 332.00
62.5405 383.00
62.8447 317.00
63.149 347.00
63.4533 344.00
63.7575 345.00
64.0618 498.00
64.366 1190.00
64.6703 418.00
64.9745 304.00
65.2788 324.00
65.5831 309.00
65.8873 314.00
66.1916 291.00
66.4959 306.00
66.8001 352.00
67.1044 438.00
67.4086 933.00
67.7129 423.00
68.0172 373.00
68.3214 333.00
68.6257 332.00
68.9299 436.00
69.2342 699.00
69.5385 396.00
69.8427 428.00
70.147 549.00
70.4512 297.00
70.7555 305.00
71.0598 324.00
71.364 276.00
71.6683 319.00
71.9725 465.00
72.2768 378.00
72.5811 306.00
72.8853 307.00
73.1896 313.00
73.4938 356.00
73.7981 487.00
74.1024 648.00
74.4066 1244.00
74.7109 928.00
75.0151 438.00
75.3194 342.00
75.6237 343.00
75.9279 335.00
76.2322 499.00
76.5364 1790.00
76.8407 967.00
77.145 417.00
77.4492 358.00
77.7535 326.00
78.0577 403.00
78.362 475.00
78.6663 368.00
78.9705 372.00
79.2748 328.00
79.579 352.00
79.8833 395.00
80.1876 408.00
80.4918 311.00
80.7961 276.00
81.1003 301.00
81.4046 294.00
81.7089 374.00
82.0131 342.00
82.3174 296.00
82.6217 478.00
82.9259 403.00
83.2302 309.00
83.5344 320.00
83.8387 317.00
84.143 287.00
84.4472 289.00
84.7515 294.00
85.0557 374.00
85.36 937.00
85.6643 893.00
85.9685 385.00
86.2728 282.00
86.577 298.00
86.8813 357.00
87.1856 405.00
87.4898 283.00
87.7941 288.00
88.0983 274.00
88.4026 244.00
88.7069 299.00
89.0111 307.00
89.3154 249.00
89.6196 280.00
89.9239 280.00
90.2282 290.00
90.5324 287.00
90.8367 351.00
91.1409 390.00
91.4452 966.00
91.7495 737.00
92.0537 902.00
92.358 566.00
92.6622 265.00
92.9665 299.00
93.2708 286.00
93.575 282.00
93.8793 270.00
94.1835 259.00
94.4878 296.00
94.7921 282.00
95.0963 296.00
95.4006 364.00
95.7048 389.00
96.0091 345.00
96.3134 302.00
96.6176 353.00
96.9219 324.00
97.2261 263.00
97.5304 289.00
97.8347 263.00
98.1389 278.00
98.4432 316.00
98.7474 238.00
99.0517 243.00
99.356 326.00
99.6602 384.00
99.9645 330.00
100.095 442.00

File: PG_2043-1.xy
9.903433 3682.00
10.2077 3494.00
10.512 3389.00
10.8162 3318.00
11.1205 3216.00
11.4247 3184.00
11.729 3134.00
12.0333 2958.00
12.3375 2939.00
12.6418 2906.00
12.946 2788.00
13.2503 2668.00
13.5546 2645.00
13.8588 2626.00
14.1631 2628.00
14.4673 2546.00
14.7716 2494.00
15.0759 2649.00
15.3801 2512.00
15.6844 2594.00
15.9886 2478.00
16.2929 2502.00
16.5972 2579.00
16.9014 2585.00
17.2057 2576.00
17.5099 2953.00
17.8142 2963.00
18.1185 2759.00
18.4227 2715.00
18.727 2802.00
19.0312 2889.00
19.3355 2973.00
19.6398 3087.00
19.944 3073.00
20.2483 3189.00
20.5525 3277.00
20.8568 3525.00
21.1611 3384.00
21.4653 3486.00
21.7696 3458.00
22.0738 3609.00
22.3781 3601.00
22.6824 3520.00
22.9866 3468.00
23.2909 3606.00
23.5951 3506.00
23.8994 4215.00
24.2037 8164.00
24.5079 3172.00
24.8122 2991.00
25.1164 2997.00
25.4207 2873.00
25.725 2769.00
26.0292 2619.00
26.3335 2672.00
26.6378 2473.00
26.942 2423.00
27.2463 2252.00
27.5505 2221.00
27.8548 2130.00
28.1591 2089.00
28.4633 1996.00
28.7676 1956.00
29.0718 1916.00
29.3761 1811.00
29.6804 1889.00
29.9846 2404.00
30.2889 1735.00
30.5931 1827.00
30.8974 4253.00
31.2017 1851.00
31.5059 1549.00
31.8102 1480.00
32.1144 1482.00
32.4187 1444.00
32.723 1356.00
33.0272 1296.00
33.3315 1334.00
33.6357 1379.00
33.94 1331.00
34.2443 2342.00
34.5485 1272.00
34.8528 1202.00
35.157 1264.00
35.4613 1519.00
35.7656 1159.00
36.0698 1088.00
36.3741 1104.00
36.6783 1063.00
36.9826 1116.00
37.2869 1011.00
37.5911 1048.00
37.8954 1016.00
38.1996 991.00
38.5039 1326.00
38.8082 1288.00
39.1124 944.00
39.4167 921.00
39.7209 947.00
40.0252 911.00
40.3295 933.00
40.6337 923.00
40.938 1155.00
41.2422 929.00
41.5465 957.00
41.8508 890.00
42.155 969.00
42.4593 882.00
42.7635 887.00
43.0678 865.00
43.3721 894.00
43.6763 880.00
43.9806 858.00
44.2849 849.00
44.5891 906.00
44.8934 869.00
45.1976 847.00
45.5019 933.00
45.8062 1021.00
46.1104 1209.00
46.4147 1205.00
46.7189 2954.00
47.0232 898.00
47.3275 815.00
47.6317 829.00
47.936 947.00
48.2402 743.00
48.5445 773.00
48.8488 755.00
49.153 885.00
49.4573 773.00
49.7615 739.00
50.0658 745.00
50.3701 725.00
50.6743 689.00
50.9786 704.00
51.2828 728.00
51.5871 714.00
51.8914 712.00
52.1956 751.00
52.4999 773.00
52.8041 723.00
53.1084 690.00
53.4127 683.00
53.7169 664.00
54.0212 726.00
54.3254 693.00
54.6297 622.00
54.934 727.00
55.2382 896.00
55.5425 756.00
55.8467 640.00
56.151 656.00
56.4553 649.00
56.7595 686.00
57.0638 649.00
57.368 639.00
57.6723 676.00
57.9766 627.00
58.2808 668.00
58.5851 940.00
58.8893 950.00
59.1936 856.00
59.4979 643.00
59.8021 638.00
60.1064 779.00
60.4106 665.00
60.7149 669.00
61.0192 637.00
61.3234 609.00
61.6277 663.00
61.932 651.00
62.2362 672.00
62.5405 631.00
62.8447 638.00
63.149 620.00
63.4533 689.00
63.7575 695.00
64.0618 822.00
64.366 803.00
64.6703 609.00
64.9745 639.00
65.2788 609.00
65.5831 626.00
65.8873 624.00
66.1916 606.00
66.4959 643.00
66.8001 651.00
67.1044 648.00
67.4086 589.00
67.7129 609.00
68.0172 613.00
68.3214 587.00
68.6257 640.00
68.9299 607.00
69.2342 568.00
69.5385 578.00
69.8427 848.00
70.147 724.00
70.4512 587.00
70.7555 584.00
71.0598 544.00
71.364 561.00
71.6683 630.00
71.9725 601.00
72.2768 554.00
72.5811 566.00
72.8853 560.00
73.1896 590.00
73.4938 533.00
73.7981 576.00
74.1024 519.00
74.4066 619.00
74.7109 913.00
75.0151 559.00
75.3194 515.00
75.6237 532.00
75.9279 569.00
76.2322 576.00
76.5364 595.00
76.8407 659.00
77.145 553.00
77.4492 557.00
77.7535 509.00
78.0577 532.00
78.362 509.00
78.6663 487.00
78.9705 535.00
79.2748 558.00
79.579 709.00
79.8833 719.00
80.1876 609.00
80.4918 532.00
80.7961 488.00
81.1003 559.00
81.4046 531.00
81.7089 563.00
82.0131 547.00
82.3174 502.00
82.6217 536.00
82.9259 461.00
83.2302 501.00
83.5344 445.00
83.8387 463.00
84.143 419.00
84.4472 445.00
84.7515 445.00
85.0557 451.00
85.36 407.00
85.6643 506.00
85.9685 399.00
86.2728 419.00
86.577 388.00
86.8813 381.00
87.1856 391.00
87.4898 346.00
87.7941 388.00
88.0983 343.00
88.4026 390.00
88.7069 405.00
89.0111 375.00
89.3154 408.00
89.6196 404.00
89.9239 336.00
90.2282 314.00
90.5324 367.00
90.8367 336.00
91.1409 333.00
91.4452 335.00
91.7495 367.00
92.0537 347.00
92.358 344.00
92.6622 326.00
92.9665 376.00
93.2708 341.00
93.575 340.00
93.8793 359.00
94.1835 355.00
94.4878 391.00
94.7921 355.00
95.0963 333.00
95.4006 477.00
95.7048 373.00
96.0091 361.00
96.3134 367.00
96.6176 374.00
96.9219 385.00
97.2261 354.00
97.5304 351.00
97.8347 332.00
98.1389 308.00
98.4432 343.00
98.7474 345.00
99.0517 341.00
99.356 392.00
99.6602 437.00
99.9645 397.00
100.095 432.00

File: PG_2044-1.xy
9.903433 2629.00
10.2077 2566.00
10.512 2448.00
10.8162 2356.00
11.1205 2304.00
11.4247 2225.00
11.729 2275.00
12.0333 2032.00
12.3375 1932.00
12.6418 2046.00
12.946 1954.00
13.2503 1863.00
13.5546 1877.00
13.8588 1833.00
14.1631 1856.00
14.4673 1722.00
14.7716 1716.00
15.0759 1775.00
15.3801 1675.00
15.6844 1689.00
15.9886 1639.00
16.2929 1540.00
16.5972 1595.00
16.9014 1564.00
17.2057 1574.00
17.5099 1638.00
17.8142 1927.00
18.1185 1385.00
18.4227 1424.00
18.727 1417.00
19.0312 1400.00
19.3355 1385.00
19.6398 1269.00
19.944 1322.00
20.2483 1286.00
20.5525 1209.00
20.8568 1270.00
21.1611 1190.00
21.4653 1196.00
21.7696 1236.00
22.0738 1268.00
22.3781 1204.00
22.6824 1139.00
22.9866 1177.00
23.2909 1085.00
23.5951 1202.00
23.8994 1325.00
24.2037 9272.00
24.5079 1200.00
24.8122 1074.00
25.1164 1062.00
25.4207 1041.00
25.725 1064.00
26.0292 1245.00
26.3335 1466.00
26.6378 2982.00
26.942 22561.00
27.2463 2236.00
27.5505 1260.00
27.8548 1065.00
28.1591 1007.00
28.4633 954.00
28.7676 910.00
29.0718 910.00
29.3761 938.00
29.6804 879.00
29.9846 1579.00
30.2889 921.00
30.5931 928.00
30.8974 1622.00
31.2017 1448.00
31.5059 841.00
31.8102 743.00
32.1144 798.00
32.4187 781.00
32.723 794.00
33.0272 906.00
33.3315 932.00
33.6357 1093.00
33.94 2453.00
34.2443 17732.00
34.5485 1865.00
34.8528 988.00
35.157 860.00
35.4613 953.00
35.7656 726.00
36.0698 652.00
36.3741 688.00
36.6783 654.00
36.9826 688.00
37.2869 713.00
37.5911 747.00
37.8954 898.00
38.1996 3354.00
38.5039 1794.00
38.8082 1377.00
39.1124 736.00
39.4167 1189.00
39.7209 636.00
40.0252 563.00
40.3295 590.00
40.6337 613.00
40.938 924.00
41.2422 571.00
41.5465 566.00
41.8508 548.00
42.155 551.00
42.4593 563.00
42.7635 587.00
43.0678 692.00
43.3721 536.00
43.6763 519.00
43.9806 532.00
44.2849 489.00
44.5891 520.00
44.8934 477.00
45.1976 504.00
45.5019 536.00
45.8062 486.00
46.1104 950.00
46.4147 537.00
46.7189 2119.00
47.0232 623.00
47.3275 555.00
47.6317 494.00
47.936 694.00
48.2402 471.00
48.5445 439.00
48.8488 503.00
49.153 635.00
49.4573 429.00
49.7615 466.00
50.0658 489.00
50.3701 479.00
50.6743 517.00
50.9786 492.00
51.2828 582.00
51.5871 847.00
51.8914 2651.00
52.1956 9795.00
52.4999 1295.00
52.8041 621.00
53.1084 595.00
53.4127 523.00
53.7169 510.00
54.0212 492.00
54.3254 553.00
54.6297 577.00
54.934 1485.00
55.2382 2238.00
55.5425 878.00
55.8467 481.00
56.151 449.00
56.4553 454.00
56.7595 413.00
57.0638 430.00
57.368 441.00
57.6723 488.00
57.9766 847.00
58.2808 1291.00
58.5851 599.00
58.8893 592.00
59.1936 634.00
59.4979 418.00
59.8021 407.00
60.1064 586.00
60.4106 408.00
60.7149 393.00
61.0192 411.00
61.3234 424.00
61.6277 456.00
61.932 785.00
62.2362 2477.00
62.5405 686.00
62.8447 463.00
63.149 451.00
63.4533 422.00
63.7575 434.00
64.0618 521.00
64.366 607.00
64.6703 654.00
64.9745 2445.00
65.2788 1356.00
65.5831 571.00
65.8873 646.00
66.1916 2733.00
66.4959 1852.00
66.8001 525.00
67.1044 494.00
67.4086 396.00
67.7129 384.00
68.0172 367.00
68.3214 355.00
68.6257 415.00
68.9299 355.00
69.2342 380.00
69.5385 397.00
69.8427 417.00
70.147 678.00
70.4512 373.00
70.7555 347.00
71.0598 404.00
71.364 605.00
71.6683 1120.00
71.9725 540.00
72.2768 398.00
72.5811 369.00
72.8853 333.00
73.1896 319.00
73.4938 320.00
73.7981 403.00
74.1024 307.00
74.4066 367.00
74.7109 868.00
75.0151 458.00
75.3194 334.00
75.6237 344.00
75.9279 336.00
76.2322 335.00
76.5364 363.00
76.8407 346.00
77.145 387.00
77.4492 329.00
77.7535 309.00
78.0577 370.00
78.362 385.00
78.6663 565.00
78.9705 2496.00
79.2748 1109.00
79.579 465.00
79.8833 480.00
80.1876 511.00
80.4918 373.00
80.7961 354.00
81.1003 405.00
81.4046 950.00
81.7089 602.00
82.0131 384.00
82.3174 373.00
82.6217 405.00
82.9259 309.00
83.2302 335.00
83.5344 424.00
83.8387 793.00
84.143 1033.00
84.4472 478.00
84.7515 361.00
85.0557 328.00
85.36 306.00
85.6643 405.00
85.9685 407.00
86.2728 325.00
86.577 330.00
86.8813 316.00
87.1856 421.00
87.4898 946.00
87.7941 599.00
88.0983 352.00
88.4026 345.00
88.7069 319.00
89.0111 329.00
89.3154 392.00
89.6196 466.00
89.9239 1086.00
90.2282 1078.00
90.5324 591.00
90.8367 569.00
91.1409 2004.00
91.4452 1270.00
91.7495 443.00
92.0537 348.00
92.358 334.00
92.6622 370.00
92.9665 327.00
93.2708 455.00
93.575 967.00
93.8793 652.00
94.1835 334.00
94.4878 411.00
94.7921 392.00
95.0963 296.00
95.4006 378.00
95.7048 374.00
96.0091 412.00
96.3134 803.00
96.6176 673.00
96.9219 429.00
97.2261 326.00
97.5304 312.00
97.8347 317.00
98.1389 284.00
98.4432 308.00
98.7474 304.00
99.0517 306.00
99.356 451.00
99.6602 454.00
99.9645 329.00
100.095 468.00

File: PG_2045-1.xy
9.903433 2981.00
10.2077 2896.00
10.512 2917.00
10.8162 2711.00
11.1205 2648.00
11.4247 2541.00
11.729 2528.00
12.0333 2423.00
12.3375 2475.00
12.6418 2351.00
12.946 2326.00
13.2503 2312.00
13.5546 2361.00
13.8588 2288.00
14.1631 2314.00
14.4673 2247.00
14.7716 2242.00
15.0759 2200.00
15.3801 2214.00
15.6844 2215.00
15.9886 2186.00
16.2929 2187.00
16.5972 2072.00
16.9014 2094.00
17.2057 2205.00
17.5099 2478.00
17.8142 2429.00
18.1185 2102.00
18.4227 1969.00
18.727 2053.00
19.0312 2056.00
19.3355 1952.00
19.6398 1958.00
19.944 2056.00
20.2483 2062.00
20.5525 2349.00
20.8568 2102.00
21.1611 1976.00
21.4653 1932.00
21.7696 1938.00
22.0738 1799.00
22.3781 1882.00
22.6824 1790.00
22.9866 1861.00
23.2909 1772.00
23.5951 1894.00
23.8994 2419.00
24.2037 14396.00
24.5079 2125.00
24.8122 2022.00
25.1164 2719.00
25.4207 13640.00
25.725 6014.00
26.0292 7561.00
26.3335 2721.00
26.6378 1940.00
26.942 1794.00
27.2463 1766.00
27.5505 1692.00
27.8548 1690.00
28.1591 1746.00
28.4633 1632.00
28.7676 1757.00
29.0718 1829.00
29.3761 1712.00
29.6804 1901.00
29.9846 5404.00
30.2889 1777.00
30.5931 1791.00
30.8974 4472.00
31.2017 2422.00
31.5059 2101.00
31.8102 3038.00
32.1144 1771.00
32.4187 1547.00
32.723 1503.00
33.0272 1537.00
33.3315 1587.00
33.6357 1655.00
33.94 1629.00
34.2443 3551.00
34.5485 1763.00
34.8528 2112.00
35.157 1966.00
35.4613 3719.00
35.7656 2267.00
36.0698 2038.00
36.3741 3695.00
36.6783 5569.00
36.9826 4142.00
37.2869 1773.00
37.5911 1521.00
37.8954 1477.00
38.1996 1458.00
38.5039 1781.00
38.8082 2293.00
39.1124 1483.00
39.4167 1388.00
39.7209 1480.00
40.0252 1589.00
40.3295 1405.00
40.6337 1475.00
40.938 2065.00
41.2422 1567.00
41.5465 2308.00
41.8508 1897.00
42.155 1500.00
42.4593 1437.00
42.7635 1439.00
43.0678 1728.00
43.3721 1712.00
43.6763 1497.00
43.9806 1805.00
44.2849 4511.00
44.5891 3882.00
44.8934 1916.00
45.1976 1714.00
45.5019 1995.00
45.8062 2876.00
46.1104 3077.00
46.4147 1728.00
46.7189 7035.00
47.0232 2859.00
47.3275 2008.00
47.6317 2250.00
47.936 4900.00
48.2402 2205.00
48.5445 1420.00
48.8488 1376.00
49.153 1619.00
49.4573 1439.00
49.7615 1475.00
50.0658 2178.00
50.3701 3824.00
50.6743 2418.00
50.9786 1530.00
51.2828 1398.00
51.5871 1387.00
51.8914 1686.00
52.1956 1572.00
52.4999 1540.00
52.8041 1309.00
53.1084 1463.00
53.4127 1483.00
53.7169 1325.00
54.0212 1348.00
54.3254 1308.00
54.6297 1294.00
54.934 1308.00
55.2382 1728.00
55.5425 1609.00
55.8467 1275.00
56.151 1282.00
56.4553 1327.00
56.7595 1338.00
57.0638 1514.00
57.368 1557.00
57.6723 1828.00
57.9766 1610.00
58.2808 1405.00
58.5851 1818.00
58.8893 1800.00
59.1936 2487.00
59.4979 1545.00
59.8021 1550.00
60.1064 2093.00
60.4106 1376.00
60.7149 1274.00
61.0192 1286.00
61.3234 1204.00
61.6277 1302.00
61.932 1414.00
62.2362 1126.00
62.5405 1179.00
62.8447 1372.00
63.149 1492.00
63.4533 1293.00
63.7575 1329.00
64.0618 1914.00
64.366 2014.00
64.6703 1320.00
64.9745 1379.00
65.2788 1340.00
65.5831 1528.00
65.8873 1723.00
66.1916 1488.00
66.4959 1411.00
66.8001 1398.00
67.1044 1318.00
67.4086 1207.00
67.7129 1189.00
68.0172 1136.00
68.3214 1208.00
68.6257 1182.00
68.9299 1237.00
69.2342 1145.00
69.5385 1192.00
69.8427 1457.00
70.147 1815.00
70.4512 1092.00
70.7555 1189.00
71.0598 1201.00
71.364 1199.00
71.6683 1309.00
71.9725 1491.00
72.2768 1756.00
72.5811 1409.00
72.8853 1343.00
73.1896 1469.00
73.4938 1445.00
73.7981 1933.00
74.1024 2170.00
74.4066 1862.00
74.7109 2740.00
75.0151 1754.00
75.3194 1686.00
75.6237 1620.00
75.9279 1517.00
76.2322 1667.00
76.5364 1467.00
76.8407 1387.00
77.145 1411.00
77.4492 1342.00
77.7535 1558.00
78.0577 1338.00
78.362 1292.00
78.6663 1203.00
78.9705 1200.00
79.2748 1169.00
79.579 1305.00
79.8833 1457.00
80.1876 1493.00
80.4918 1350.00
80.7961 1285.00
81.1003 1209.00
81.4046 1249.00
81.7089 1303.00
82.0131 1444.00
82.3174 1482.00
82.6217 1411.00
82.9259 1205.00
83.2302 1389.00
83.5344 1452.00
83.8387 1325.00
84.143 1155.00
84.4472 1327.00
84.7515 1267.00
85.0557 1304.00
85.36 1316.00
85.6643 1563.00
85.9685 1337.00
86.2728 1210.00
86.577 1081.00
86.8813 1163.00
87.1856 1180.00
87.4898 1178.00
87.7941 1214.00
88.0983 1204.00
88.4026 1087.00
88.7069 1206.00
89.0111 1113.00
89.3154 1239.00
89.6196 1158.00
89.9239 1187.00
90.2282 1163.00
90.5324 1098.00
90.8367 1152.00
91.1409 1120.00
91.4452 1137.00
91.7495 1273.00
92.0537 1289.00
92.358 1212.00
92.6622 1118.00
92.9665 1151.00
93.2708 1088.00
93.575 1189.00
93.8793 1251.00
94.1835 1287.00
94.4878 1298.00
94.7921 1390.00
95.0963 1465.00
95.4006 1601.00
95.7048 1420.00
96.0091 1219.00
96.3134 1219.00
96.6176 1373.00
96.9219 1377.00
97.2261 1379.00
97.5304 1321.00
97.8347 1236.00
98.1389 1204.00
98.4432 1179.00
98.7474 1087.00
99.0517 1131.00
99.356 1437.00
99.6602 1525.00
99.9645 1284.00
100.095 1377.00