Folder: alab-pipeline/data/xrd_creation/results (part 96)

File: PG_2051-1.xy
9.903433 2546.00
10.2077 2418.00
10.512 2296.00
10.8162 2301.00
11.1205 2156.00
11.4247 2150.00
11.729 1953.00
12.0333 1952.00
12.3375 1929.00
12.6418 1836.00
12.946 1797.00
13.2503 1768.00
13.5546 1685.00
13.8588 1666.00
14.1631 1707.00
14.4673 1722.00
14.7716 1876.00
15.0759 1597.00
15.3801 1579.00
15.6844 1549.00
15.9886 1496.00
16.2929 1443.00
16.5972 1405.00
16.9014 1455.00
17.2057 1386.00
17.5099 1907.00
17.8142 2204.00
18.1185 1361.00
18.4227 1260.00
18.727 1318.00
19.0312 1216.00
19.3355 1338.00
19.6398 1281.00
19.944 1276.00
20.2483 1164.00
20.5525 1120.00
20.8568 1260.00
21.1611 1332.00
21.4653 1132.00
21.7696 1113.00
22.0738 1079.00
22.3781 1016.00
22.6824 975.00
22.9866 993.00
23.2909 1024.00
23.5951 1091.00
23.8994 1912.00
24.2037 17528.00
24.5079 1170.00
24.8122 928.00
25.1164 917.00
25.4207 920.00
25.725 952.00
26.0292 910.00
26.3335 922.00
26.6378 992.00
26.942 896.00
27.2463 915.00
27.5505 985.00
27.8548 1105.00
28.1591 1281.00
28.4633 1251.00
28.7676 1537.00
29.0718 1541.00
29.3761 1163.00
29.6804 982.00
29.9846 3169.00
30.2889 952.00
30.5931 1089.00
30.8974 5327.00
31.2017 1815.00
31.5059 1044.00
31.8102 1635.00
32.1144 13173.00
32.4187 1188.00
32.723 978.00
33.0272 1077.00
33.3315 1075.00
33.6357 972.00
33.94 1054.00
34.2443 4043.00
34.5485 2486.00
34.8528 4964.00
35.157 1131.00
35.4613 1812.00
35.7656 922.00
36.0698 1153.00
36.3741 4102.00
36.6783 10709.00
36.9826 1106.00
37.2869 841.00
37.5911 799.00
37.8954 695.00
38.1996 706.00
38.5039 1227.00
38.8082 1983.00
39.1124 640.00
39.4167 588.00
39.7209 655.00
40.0252 609.00
40.3295 558.00
40.6337 673.00
40.938 1450.00
41.2422 635.00
41.5465 581.00
41.8508 567.00
42.155 547.00
42.4593 610.00
42.7635 524.00
43.0678 559.00
43.3721 550.00
43.6763 551.00
43.9806 487.00
44.2849 494.00
44.5891 552.00
44.8934 509.00
45.1976 560.00
45.5019 611.00
45.8062 682.00
46.1104 1675.00
46.4147 742.00
46.7189 8188.00
47.0232 867.00
47.3275 736.00
47.6317 1228.00
47.936 4151.00
48.2402 684.00
48.5445 555.00
48.8488 527.00
49.153 721.00
49.4573 473.00
49.7615 474.00
50.0658 498.00
50.3701 477.00
50.6743 445.00
50.9786 448.00
51.2828 448.00
51.5871 448.00
51.8914 424.00
52.1956 466.00
52.4999 655.00
52.8041 488.00
53.1084 453.00
53.4127 469.00
53.7169 427.00
54.0212 471.00
54.3254 501.00
54.6297 472.00
54.934 580.00
55.2382 1123.00
55.5425 851.00
55.8467 537.00
56.151 603.00
56.4553 712.00
56.7595 3334.00
57.0638 3159.00
57.368 599.00
57.6723 502.00
57.9766 512.00
58.2808 524.00
58.5851 1235.00
58.8893 743.00
59.1936 1171.00
59.4979 456.00
59.8021 425.00
60.1064 787.00
60.4106 453.00
60.7149 475.00
61.0192 496.00
61.3234 455.00
61.6277 406.00
61.932 520.00
62.2362 437.00
62.5405 523.00
62.8447 812.00
63.149 6199.00
63.4533 893.00
63.7575 586.00
64.0618 824.00
64.366 1000.00
64.6703 447.00
64.9745 427.00
65.2788 442.00
65.5831 477.00
65.8873 459.00
66.1916 399.00
66.4959 681.00
66.8001 981.00
67.1044 515.00
67.4086 433.00
67.7129 508.00
68.0172 1238.00
68.3214 2776.00
68.6257 696.00
68.9299 564.00
69.2342 1582.00
69.5385 1674.00
69.8427 1047.00
70.147 1143.00
70.4512 406.00
70.7555 397.00
71.0598 381.00
71.364 393.00
71.6683 531.00
71.9725 611.00
72.2768 419.00
72.5811 409.00
72.8853 642.00
73.1896 406.00
73.4938 410.00
73.7981 443.00
74.1024 386.00
74.4066 443.00
74.7109 1543.00
75.0151 487.00
75.3194 386.00
75.6237 375.00
75.9279 440.00
76.2322 415.00
76.5364 403.00
76.8407 578.00
77.145 953.00
77.4492 720.00
77.7535 402.00
78.0577 396.00
78.362 355.00
78.6663 367.00
78.9705 375.00
79.2748 430.00
79.579 651.00
79.8833 800.00
80.1876 623.00
80.4918 385.00
80.7961 337.00
81.1003 411.00
81.4046 356.00
81.7089 686.00
82.0131 554.00
82.3174 327.00
82.6217 378.00
82.9259 361.00
83.2302 317.00
83.5344 319.00
83.8387 339.00
84.143 338.00
84.4472 365.00
84.7515 302.00
85.0557 321.00
85.36 340.00
85.6643 696.00
85.9685 468.00
86.2728 298.00
86.577 308.00
86.8813 333.00
87.1856 310.00
87.4898 329.00
87.7941 308.00
88.0983 368.00
88.4026 325.00
88.7069 311.00
89.0111 311.00
89.3154 378.00
89.6196 606.00
89.9239 1006.00
90.2282 545.00
90.5324 349.00
90.8367 300.00
91.1409 318.00
91.4452 300.00
91.7495 294.00
92.0537 326.00
92.358 312.00
92.6622 384.00
92.9665 764.00
93.2708 584.00
93.575 351.00
93.8793 315.00
94.1835 316.00
94.4878 437.00
94.7921 370.00
95.0963 401.00
95.4006 1393.00
95.7048 980.00
96.0091 484.00
96.3134 381.00
96.6176 508.00
96.9219 517.00
97.2261 357.00
97.5304 324.00
97.8347 350.00
98.1389 328.00
98.4432 404.00
98.7474 845.00
99.0517 626.00
99.356 645.00
99.6602 886.00
99.9645 510.00
100.095 533.00

File: PG_2052-1.xy
9.903433 2836.00
10.2077 2695.00
10.512 2647.00
10.8162 2586.00
11.1205 2552.00
11.4247 2459.00
11.729 2331.00
12.0333 2367.00
12.3375 2308.00
12.6418 2197.00
12.946 2238.00
13.2503 2288.00
13.5546 2185.00
13.8588 2241.00
14.1631 2274.00
14.4673 2150.00
14.7716 2212.00
15.0759 2106.00
15.3801 2020.00
15.6844 2071.00
15.9886 2107.00
16.2929 2046.00
16.5972 2092.00
16.9014 2063.00
17.2057 2140.00
17.5099 2542.00
17.8142 2439.00
18.1185 1982.00
18.4227 1927.00
18.727 1933.00
19.0312 1905.00
19.3355 1841.00
19.6398 1802.00
19.944 1863.00
20.2483 1816.00
20.5525 1805.00
20.8568 1771.00
21.1611 1770.00
21.4653 1703.00
21.7696 1769.00
22.0738 1792.00
22.3781 1825.00
22.6824 1760.00
22.9866 1755.00
23.2909 1747.00
23.5951 1796.00
23.8994 2795.00
24.2037 9193.00
24.5079 2671.00
24.8122 2783.00
25.1164 1781.00
25.4207 1795.00
25.725 1723.00
26.0292 1613.00
26.3335 1710.00
26.6378 1748.00
26.942 1685.00
27.2463 1665.00
27.5505 1726.00
27.8548 2004.00
28.1591 3149.00
28.4633 13883.00
28.7676 2703.00
29.0718 1922.00
29.3761 1798.00
29.6804 1663.00
29.9846 2983.00
30.2889 1723.00
30.5931 1952.00
30.8974 4952.00
31.2017 2262.00
31.5059 3259.00
31.8102 9079.00
32.1144 2151.00
32.4187 1636.00
32.723 1561.00
33.0272 1555.00
33.3315 1563.00
33.6357 1557.00
33.94 1668.00
34.2443 4144.00
34.5485 3991.00
34.8528 2083.00
35.157 1705.00
35.4613 3027.00
35.7656 1972.00
36.0698 1682.00
36.3741 1444.00
36.6783 1472.00
36.9826 1409.00
37.2869 1389.00
37.5911 1322.00
37.8954 1327.00
38.1996 1350.00
38.5039 1671.00
38.8082 2772.00
39.1124 1448.00
39.4167 1374.00
39.7209 1437.00
40.0252 1349.00
40.3295 1438.00
40.6337 1543.00
40.938 2895.00
41.2422 1947.00
41.5465 2022.00
41.8508 1526.00
42.155 1278.00
42.4593 1297.00
42.7635 1217.00
43.0678 1196.00
43.3721 1291.00
43.6763 1254.00
43.9806 1223.00
44.2849 1301.00
44.5891 1311.00
44.8934 1487.00
45.1976 1983.00
45.5019 1545.00
45.8062 2167.00
46.1104 2015.00
46.4147 1332.00
46.7189 5915.00
47.0232 1364.00
47.3275 1239.00
47.6317 1259.00
47.936 1637.00
48.2402 1307.00
48.5445 1291.00
48.8488 1364.00
49.153 1680.00
49.4573 2951.00
49.7615 1980.00
50.0658 1781.00
50.3701 4418.00
50.6743 2369.00
50.9786 2345.00
51.2828 1607.00
51.5871 1796.00
51.8914 1235.00
52.1956 1203.00
52.4999 1343.00
52.8041 1197.00
53.1084 1187.00
53.4127 1258.00
53.7169 1305.00
54.0212 1353.00
54.3254 2637.00
54.6297 1621.00
54.934 1355.00
55.2382 1711.00
55.5425 2584.00
55.8467 2607.00
56.151 2445.00
56.4553 1520.00
56.7595 1253.00
57.0638 1290.00
57.368 1960.00
57.6723 1586.00
57.9766 1459.00
58.2808 1689.00
58.5851 2090.00
58.8893 1463.00
59.1936 1720.00
59.4979 1264.00
59.8021 1511.00
60.1064 2512.00
60.4106 1875.00
60.7149 1365.00
61.0192 1236.00
61.3234 1272.00
61.6277 1859.00
61.932 1532.00
62.2362 1966.00
62.5405 1392.00
62.8447 1477.00
63.149 2103.00
63.4533 1395.00
63.7575 1217.00
64.0618 1399.00
64.366 1698.00
64.6703 1373.00
64.9745 1220.00
65.2788 1251.00
65.5831 1535.00
65.8873 1827.00
66.1916 1564.00
66.4959 1157.00
66.8001 1121.00
67.1044 1084.00
67.4086 1057.00
67.7129 1119.00
68.0172 1069.00
68.3214 1059.00
68.6257 1126.00
68.9299 1154.00
69.2342 1361.00
69.5385 1162.00
69.8427 1489.00
70.147 1554.00
70.4512 1162.00
70.7555 1079.00
71.0598 1182.00
71.364 1523.00
71.6683 1436.00
71.9725 1334.00
72.2768 1267.00
72.5811 1203.00
72.8853 1238.00
73.1896 1158.00
73.4938 1141.00
73.7981 1133.00
74.1024 1072.00
74.4066 1185.00
74.7109 1907.00
75.0151 1377.00
75.3194 1507.00
75.6237 1309.00
75.9279 1092.00
76.2322 1111.00
76.5364 1172.00
76.8407 1298.00
77.145 1242.00
77.4492 1135.00
77.7535 1190.00
78.0577 1126.00
78.362 1163.00
78.6663 1211.00
78.9705 1183.00
79.2748 1215.00
79.579 1254.00
79.8833 1264.00
80.1876 1250.00
80.4918 1073.00
80.7961 1072.00
81.1003 1101.00
81.4046 1110.00
81.7089 1299.00
82.0131 1309.00
82.3174 1139.00
82.6217 1202.00
82.9259 1243.00
83.2302 1277.00
83.5344 1340.00
83.8387 1245.00
84.143 1341.00
84.4472 1235.00
84.7515 1092.00
85.0557 1217.00
85.36 1160.00
85.6643 1288.00
85.9685 1191.00
86.2728 1075.00
86.577 1133.00
86.8813 1025.00
87.1856 1073.00
87.4898 1141.00
87.7941 1228.00
88.0983 1165.00
88.4026 1344.00
88.7069 1490.00
89.0111 1214.00
89.3154 1122.00
89.6196 1216.00
89.9239 1325.00
90.2282 1277.00
90.5324 1078.00
90.8367 1099.00
91.1409 1094.00
91.4452 1126.00
91.7495 1053.00
92.0537 1005.00
92.358 1000.00
92.6622 935.00
92.9665 994.00
93.2708 940.00
93.575 1080.00
93.8793 1139.00
94.1835 1089.00
94.4878 1092.00
94.7921 1054.00
95.0963 1139.00
95.4006 1372.00
95.7048 1217.00
96.0091 1094.00
96.3134 1279.00
96.6176 1488.00
96.9219 1351.00
97.2261 1359.00
97.5304 1227.00
97.8347 1149.00
98.1389 1229.00
98.4432 1169.00
98.7474 1187.00
99.0517 1278.00
99.356 1529.00
99.6602 1709.00
99.9645 1324.00
100.095 1306.00

File: PG_2135-1.xy
9.903433 2653.00
10.2077 2520.00
10.512 2424.00
10.8162 2286.00
11.1205 2234.00
11.4247 2198.00
11.729 2118.00
12.0333 1975.00
12.3375 1902.00
12.6418 1932.00
12.946 1859.00
13.2503 1767.00
13.5546 1772.00
13.8588 1739.00
14.1631 1755.00
14.4673 1690.00
14.7716 1719.00
15.0759 1759.00
15.3801 1982.00
15.6844 3199.00
15.9886 9891.00
16.2929 2105.00
16.5972 1687.00
16.9014 1679.00
17.2057 1548.00
17.5099 1491.00
17.8142 1437.00
18.1185 1440.00
18.4227 1346.00
18.727 1290.00
19.0312 1292.00
19.3355 1265.00
19.6398 1257.00
19.944 1272.00
20.2483 1223.00
20.5525 1181.00
20.8568 1205.00
21.1611 1118.00
21.4653 1084.00
21.7696 1185.00
22.0738 1102.00
22.3781 1017.00
22.6824 1055.00
22.9866 1064.00
23.2909 1079.00
23.5951 997.00
23.8994 962.00
24.2037 982.00
24.5079 1003.00
24.8122 939.00
25.1164 952.00
25.4207 918.00
25.725 925.00
26.0292 878.00
26.3335 957.00
26.6378 981.00
26.942 1094.00
27.2463 1615.00
27.5505 7789.00
27.8548 2777.00
28.1591 6533.00
28.4633 4811.00
28.7676 1324.00
29.0718 926.00
29.3761 892.00
29.6804 828.00
29.9846 862.00
30.2889 863.00
30.5931 892.00
30.8974 770.00
31.2017 782.00
31.5059 875.00
31.8102 1944.00
32.1144 1317.00
32.4187 686.00
32.723 669.00
33.0272 692.00
33.3315 714.00
33.6357 640.00
33.94 614.00
34.2443 597.00
34.5485 760.00
34.8528 793.00
35.157 662.00
35.4613 747.00
35.7656 648.00
36.0698 791.00
36.3741 1280.00
36.6783 637.00
36.9826 558.00
37.2869 604.00
37.5911 584.00
37.8954 574.00
38.1996 788.00
38.5039 779.00
38.8082 678.00
39.1124 775.00
39.4167 1381.00
39.7209 6622.00
40.0252 2744.00
40.3295 1040.00
40.6337 625.00
40.938 584.00
41.2422 599.00
41.5465 689.00
41.8508 690.00
42.155 747.00
42.4593 1505.00
42.7635 1073.00
43.0678 588.00
43.3721 524.00
43.6763 493.00
43.9806 462.00
44.2849 514.00
44.5891 485.00
44.8934 533.00
45.1976 469.00
45.5019 453.00
45.8062 469.00
46.1104 439.00
46.4147 516.00
46.7189 538.00
47.0232 615.00
47.3275 1597.00
47.6317 1028.00
47.936 756.00
48.2402 1350.00
48.5445 3408.00
48.8488 5104.00
49.153 3339.00
49.4573 1001.00
49.7615 716.00
50.0658 882.00
50.3701 1060.00
50.6743 534.00
50.9786 428.00
51.2828 435.00
51.5871 419.00
51.8914 394.00
52.1956 453.00
52.4999 378.00
52.8041 401.00
53.1084 415.00
53.4127 398.00
53.7169 415.00
54.0212 415.00
54.3254 422.00
54.6297 407.00
54.934 512.00
55.2382 649.00
55.5425 1980.00
55.8467 1033.00
56.151 611.00
56.4553 973.00
56.7595 890.00
57.0638 473.00
57.368 474.00
57.6723 444.00
57.9766 617.00
58.2808 682.00
58.5851 482.00
58.8893 649.00
59.1936 732.00
59.4979 466.00
59.8021 374.00
60.1064 355.00
60.4106 336.00
60.7149 323.00
61.0192 353.00
61.3234 333.00
61.6277 309.00
61.932 322.00
62.2362 408.00
62.5405 329.00
62.8447 403.00
63.149 420.00
63.4533 371.00
63.7575 502.00
64.0618 912.00
64.366 1486.00
64.6703 739.00
64.9745 518.00
65.2788 703.00
65.5831 654.00
65.8873 435.00
66.1916 512.00
66.4959 464.00
66.8001 353.00
67.1044 312.00
67.4086 309.00
67.7129 379.00
68.0172 294.00
68.3214 343.00
68.6257 343.00
68.9299 343.00
69.2342 381.00
69.5385 502.00
69.8427 1082.00
70.147 1021.00
70.4512 539.00
70.7555 466.00
71.0598 582.00
71.364 570.00
71.6683 361.00
71.9725 353.00
72.2768 328.00
72.5811 322.00
72.8853 432.00
73.1896 444.00
73.4938 378.00
73.7981 345.00
74.1024 325.00
74.4066 287.00
74.7109 311.00
75.0151 327.00
75.3194 303.00
75.6237 386.00
75.9279 558.00
76.2322 763.00
76.5364 855.00
76.8407 788.00
77.145 732.00
77.4492 1215.00
77.7535 1542.00
78.0577 1084.00
78.362 594.00
78.6663 603.00
78.9705 552.00
79.2748 377.00
79.579 347.00
79.8833 309.00
80.1876 339.00
80.4918 350.00
80.7961 313.00
81.1003 309.00
81.4046 293.00
81.7089 316.00
82.0131 364.00
82.3174 481.00
82.6217 629.00
82.9259 479.00
83.2302 338.00
83.5344 289.00
83.8387 316.00
84.143 302.00
84.4472 302.00
84.7515 332.00
85.0557 393.00
85.36 389.00
85.6643 358.00
85.9685 370.00
86.2728 325.00
86.577 310.00
86.8813 269.00
87.1856 304.00
87.4898 293.00
87.7941 303.00
88.0983 305.00
88.4026 371.00
88.7069 535.00
89.0111 784.00
89.3154 574.00
89.6196 435.00
89.9239 432.00
90.2282 487.00
90.5324 621.00
90.8367 565.00
91.1409 427.00
91.4452 433.00
91.7495 439.00
92.0537 349.00
92.358 374.00
92.6622 344.00
92.9665 297.00
93.2708 324.00
93.575 314.00
93.8793 280.00
94.1835 309.00
94.4878 319.00
94.7921 329.00
95.0963 381.00
95.4006 511.00
95.7048 706.00
96.0091 740.00
96.3134 591.00
96.6176 513.00
96.9219 627.00
97.2261 608.00
97.5304 451.00
97.8347 354.00
98.1389 288.00
98.4432 317.00
98.7474 354.00
99.0517 308.00
99.356 339.00
99.6602 312.00
99.9645 291.00
100.095 313.00

File: PG_2138-1.xy
9.903433 2722.00
10.2077 2705.00
10.512 2551.00
10.8162 2524.00
11.1205 2307.00
11.4247 2261.00
11.729 2150.00
12.0333 2234.00
12.3375 2210.00
12.6418 2180.00
12.946 2045.00
13.2503 1955.00
13.5546 1978.00
13.8588 1914.00
14.1631 1773.00
14.4673 1900.00
14.7716 1873.00
15.0759 1836.00
15.3801 1963.00
15.6844 2827.00
15.9886 8419.00
16.2929 2838.00
16.5972 1930.00
16.9014 1805.00
17.2057 1758.00
17.5099 1835.00
17.8142 1650.00
18.1185 1649.00
18.4227 1585.00
18.727 1553.00
19.0312 1499.00
19.3355 1539.00
19.6398 1477.00
19.944 1497.00
20.2483 1524.00
20.5525 1521.00
20.8568 1465.00
21.1611 1420.00
21.4653 1450.00
21.7696 1471.00
22.0738 1445.00
22.3781 1352.00
22.6824 1608.00
22.9866 7657.00
23.2909 1563.00
23.5951 1391.00
23.8994 1336.00
24.2037 1344.00
24.5079 1381.00
24.8122 1321.00
25.1164 1390.00
25.4207 1370.00
25.725 1323.00
26.0292 1421.00
26.3335 1312.00
26.6378 1321.00
26.942 1363.00
27.2463 1764.00
27.5505 5199.00
27.8548 3702.00
28.1591 4099.00
28.4633 7675.00
28.7676 6847.00
29.0718 2140.00
29.3761 3122.00
29.6804 1510.00
29.9846 1217.00
30.2889 1261.00
30.5931 1210.00
30.8974 1185.00
31.2017 1210.00
31.5059 1190.00
31.8102 1740.00
32.1144 1965.00
32.4187 1199.00
32.723 1126.00
33.0272 1150.00
33.3315 1100.00
33.6357 1010.00
33.94 1010.00
34.2443 982.00
34.5485 1016.00
34.8528 1052.00
35.157 1000.00
35.4613 996.00
35.7656 967.00
36.0698 1059.00
36.3741 1674.00
36.6783 1246.00
36.9826 3002.00
37.2869 1466.00
37.5911 1159.00
37.8954 906.00
38.1996 982.00
38.5039 979.00
38.8082 1029.00
39.1124 1090.00
39.4167 1417.00
39.7209 4032.00
40.0252 3782.00
40.3295 1260.00
40.6337 1040.00
40.938 947.00
41.2422 955.00
41.5465 895.00
41.8508 927.00
42.155 1039.00
42.4593 1436.00
42.7635 1601.00
43.0678 1116.00
43.3721 953.00
43.6763 920.00
43.9806 956.00
44.2849 852.00
44.5891 894.00
44.8934 936.00
45.1976 987.00
45.5019 1168.00
45.8062 908.00
46.1104 899.00
46.4147 1444.00
46.7189 1194.00
47.0232 972.00
47.3275 1401.00
47.6317 1543.00
47.936 1108.00
48.2402 1358.00
48.5445 2960.00
48.8488 3914.00
49.153 4217.00
49.4573 1550.00
49.7615 1171.00
50.0658 1554.00
50.3701 1771.00
50.6743 1035.00
50.9786 1119.00
51.2828 1826.00
51.5871 1058.00
51.8914 948.00
52.1956 844.00
52.4999 822.00
52.8041 901.00
53.1084 883.00
53.4127 863.00
53.7169 924.00
54.0212 878.00
54.3254 980.00
54.6297 844.00
54.934 908.00
55.2382 1193.00
55.5425 2632.00
55.8467 2160.00
56.151 1115.00
56.4553 1319.00
56.7595 1906.00
57.0638 1016.00
57.368 907.00
57.6723 912.00
57.9766 941.00
58.2808 1126.00
58.5851 922.00
58.8893 1259.00
59.1936 1302.00
59.4979 945.00
59.8021 809.00
60.1064 865.00
60.4106 971.00
60.7149 812.00
61.0192 831.00
61.3234 836.00
61.6277 836.00
61.932 797.00
62.2362 831.00
62.5405 942.00
62.8447 789.00
63.149 753.00
63.4533 833.00
63.7575 971.00
64.0618 1368.00
64.366 1828.00
64.6703 1231.00
64.9745 905.00
65.2788 1161.00
65.5831 1051.00
65.8873 920.00
66.1916 907.00
66.4959 929.00
66.8001 779.00
67.1044 826.00
67.4086 839.00
67.7129 783.00
68.0172 745.00
68.3214 735.00
68.6257 741.00
68.9299 823.00
69.2342 825.00
69.5385 847.00
69.8427 1247.00
70.147 1431.00
70.4512 1119.00
70.7555 1045.00
71.0598 1009.00
71.364 1233.00
71.6683 1040.00
71.9725 751.00
72.2768 832.00
72.5811 816.00
72.8853 842.00
73.1896 869.00
73.4938 778.00
73.7981 821.00
74.1024 726.00
74.4066 762.00
74.7109 727.00
75.0151 757.00
75.3194 815.00
75.6237 811.00
75.9279 975.00
76.2322 1177.00
76.5364 1194.00
76.8407 1171.00
77.145 1133.00
77.4492 1443.00
77.7535 1749.00
78.0577 1600.00
78.362 1087.00
78.6663 1001.00
78.9705 952.00
79.2748 951.00
79.579 858.00
79.8833 849.00
80.1876 739.00
80.4918 870.00
80.7961 823.00
81.1003 673.00
81.4046 740.00
81.7089 759.00
82.0131 802.00
82.3174 858.00
82.6217 1051.00
82.9259 942.00
83.2302 797.00
83.5344 704.00
83.8387 701.00
84.143 746.00
84.4472 705.00
84.7515 772.00
85.0557 868.00
85.36 829.00
85.6643 788.00
85.9685 827.00
86.2728 818.00
86.577 742.00
86.8813 731.00
87.1856 825.00
87.4898 743.00
87.7941 721.00
88.0983 706.00
88.4026 778.00
88.7069 875.00
89.0111 1071.00
89.3154 1001.00
89.6196 890.00
89.9239 860.00
90.2282 894.00
90.5324 979.00
90.8367 981.00
91.1409 843.00
91.4452 835.00
91.7495 892.00
92.0537 853.00
92.358 780.00
92.6622 775.00
92.9665 688.00
93.2708 739.00
93.575 732.00
93.8793 796.00
94.1835 760.00
94.4878 755.00
94.7921 753.00
95.0963 813.00
95.4006 884.00
95.7048 1040.00
96.0091 1068.00
96.3134 995.00
96.6176 1000.00
96.9219 950.00
97.2261 1062.00
97.5304 849.00
97.8347 849.00
98.1389 782.00
98.4432 780.00
98.7474 775.00
99.0517 798.00
99.356 756.00
99.6602 774.00
99.9645 761.00
100.095 831.00

File: PG_2139-1.xy
9.903433 2754.00
10.2077 2687.00
10.512 2558.00
10.8162 2560.00
11.1205 2408.00
11.4247 2498.00
11.729 2317.00
12.0333 2403.00
12.3375 2221.00
12.6418 2120.00
12.946 2266.00
13.2503 2053.00
13.5546 2078.00
13.8588 2044.00
14.1631 2026.00
14.4673 2056.00
14.7716 2019.00
15.0759 1988.00
15.3801 2147.00
15.6844 2982.00
15.9886 9335.00
16.2929 3008.00
16.5972 2079.00
16.9014 1951.00
17.2057 1900.00
17.5099 1870.00
17.8142 1839.00
18.1185 1834.00
18.4227 1750.00
18.727 1718.00
19.0312 1768.00
19.3355 1665.00
19.6398 1691.00
19.944 1589.00
20.2483 1640.00
20.5525 1599.00
20.8568 1612.00
21.1611 1614.00
21.4653 1603.00
21.7696 1407.00
22.0738 1583.00
22.3781 1589.00
22.6824 1476.00
22.9866 1607.00
23.2909 1520.00
23.5951 1493.00
23.8994 1526.00
24.2037 1475.00
24.5079 1546.00
24.8122 1431.00
25.1164 1491.00
25.4207 1470.00
25.725 1430.00
26.0292 1442.00
26.3335 1487.00
26.6378 1419.00
26.942 1606.00
27.2463 1888.00
27.5505 5743.00
27.8548 4245.00
28.1591 4391.00
28.4633 8522.00
28.7676 2052.00
29.0718 1584.00
29.3761 1450.00
29.6804 1411.00
29.9846 1355.00
30.2889 1280.00
30.5931 1272.00
30.8974 1333.00
31.2017 1366.00
31.5059 1421.00
31.8102 2002.00
32.1144 2275.00
32.4187 1439.00
32.723 1263.00
33.0272 1316.00
33.3315 1205.00
33.6357 1257.00
33.94 1203.00
34.2443 1181.00
34.5485 1248.00
34.8528 1257.00
35.157 1165.00
35.4613 1242.00
35.7656 1204.00
36.0698 1344.00
36.3741 1790.00
36.6783 1302.00
36.9826 1227.00
37.2869 1354.00
37.5911 3196.00
37.8954 1561.00
38.1996 1241.00
38.5039 1215.00
38.8082 1306.00
39.1124 1379.00
39.4167 1638.00
39.7209 5071.00
40.0252 4940.00
40.3295 1686.00
40.6337 1389.00
40.938 1216.00
41.2422 1180.00
41.5465 1143.00
41.8508 1263.00
42.155 1250.00
42.4593 1902.00
42.7635 1963.00
43.0678 1327.00
43.3721 1458.00
43.6763 5794.00
43.9806 1563.00
44.2849 1157.00
44.5891 1192.00
44.8934 1135.00
45.1976 1079.00
45.5019 1146.00
45.8062 1083.00
46.1104 1143.00
46.4147 1171.00
46.7189 1157.00
47.0232 1169.00
47.3275 1676.00
47.6317 1891.00
47.936 1404.00
48.2402 1690.00
48.5445 3674.00
48.8488 4614.00
49.153 5136.00
49.4573 1902.00
49.7615 1380.00
50.0658 1375.00
50.3701 1763.00
50.6743 1241.00
50.9786 1184.00
51.2828 1121.00
51.5871 1112.00
51.8914 1097.00
52.1956 1120.00
52.4999 1118.00
52.8041 1042.00
53.1084 1125.00
53.4127 1088.00
53.7169 1097.00
54.0212 1093.00
54.3254 1072.00
54.6297 1009.00
54.934 1088.00
55.2382 1244.00
55.5425 2178.00
55.8467 1875.00
56.151 1232.00
56.4553 1514.00
56.7595 1721.00
57.0638 1244.00
57.368 1068.00
57.6723 1076.00
57.9766 1246.00
58.2808 1413.00
58.5851 1156.00
58.8893 1270.00
59.1936 1443.00
59.4979 1156.00
59.8021 1035.00
60.1064 1140.00
60.4106 991.00
60.7149 1011.00
61.0192 1006.00
61.3234 1041.00
61.6277 1042.00
61.932 1059.00
62.2362 1010.00
62.5405 1087.00
62.8447 1140.00
63.149 2119.00
63.4533 1822.00
63.7575 1234.00
64.0618 1532.00
64.366 2329.00
64.6703 1564.00
64.9745 1279.00
65.2788 1364.00
65.5831 1456.00
65.8873 1111.00
66.1916 1240.00
66.4959 1239.00
66.8001 1017.00
67.1044 1004.00
67.4086 1044.00
67.7129 1070.00
68.0172 1088.00
68.3214 988.00
68.6257 1032.00
68.9299 1077.00
69.2342 1047.00
69.5385 1125.00
69.8427 1565.00
70.147 1777.00
70.4512 1308.00
70.7555 1108.00
71.0598 1227.00
71.364 1350.00
71.6683 1122.00
71.9725 988.00
72.2768 958.00
72.5811 1051.00
72.8853 1097.00
73.1896 1134.00
73.4938 1121.00
73.7981 1032.00
74.1024 1015.00
74.4066 1011.00
74.7109 998.00
75.0151 983.00
75.3194 1116.00
75.6237 1371.00
75.9279 1534.00
76.2322 1560.00
76.5364 1508.00
76.8407 1492.00
77.145 1441.00
77.4492 1666.00
77.7535 2218.00
78.0577 1843.00
78.362 1384.00
78.6663 1288.00
78.9705 1334.00
79.2748 1145.00
79.579 1302.00
79.8833 1300.00
80.1876 1091.00
80.4918 990.00
80.7961 1059.00
81.1003 1005.00
81.4046 1039.00
81.7089 1000.00
82.0131 1054.00
82.3174 1090.00
82.6217 1424.00
82.9259 1271.00
83.2302 1042.00
83.5344 962.00
83.8387 989.00
84.143 1073.00
84.4472 1014.00
84.7515 1001.00
85.0557 974.00
85.36 1106.00
85.6643 1041.00
85.9685 1041.00
86.2728 1033.00
86.577 990.00
86.8813 982.00
87.1856 1015.00
87.4898 984.00
87.7941 1017.00
88.0983 961.00
88.4026 1064.00
88.7069 1163.00
89.0111 1485.00
89.3154 1303.00
89.6196 1150.00
89.9239 1102.00
90.2282 1229.00
90.5324 1268.00
90.8367 1242.00
91.1409 1122.00
91.4452 1111.00
91.7495 1144.00
92.0537 1146.00
92.358 1044.00
92.6622 1034.00
92.9665 1047.00
93.2708 1024.00
93.575 1003.00
93.8793 991.00
94.1835 986.00
94.4878 958.00
94.7921 992.00
95.0963 1054.00
95.4006 1313.00
95.7048 1474.00
96.0091 1463.00
96.3134 1372.00
96.6176 1259.00
96.9219 1317.00
97.2261 1272.00
97.5304 1167.00
97.8347 1120.00
98.1389 1036.00
98.4432 1003.00
98.7474 1071.00
99.0517 1051.00
99.356 1053.00
99.6602 1031.00
99.9645 994.00
100.095 954.00