Folder: alab-pipeline/data/xrd_creation/results (part 6)

File: Na_14.xy
9.903433 2762.00
10.2077 2583.00
10.512 2463.00
10.8162 2398.00
11.1205 2254.00
11.4247 2111.00
11.729 2125.00
12.0333 2075.00
12.3375 2001.00
12.6418 1844.00
12.946 1785.00
13.2503 1738.00
13.5546 1629.00
13.8588 1562.00
14.1631 1501.00
14.4673 1571.00
14.7716 1394.00
15.0759 1451.00
15.3801 1405.00
15.6844 1326.00
15.9886 1312.00
16.2929 1284.00
16.5972 1272.00
16.9014 1236.00
17.2057 1205.00
17.5099 1158.00
17.8142 1155.00
18.1185 1178.00
18.4227 1098.00
18.727 1014.00
19.0312 1039.00
19.3355 1060.00
19.6398 931.00
19.944 1002.00
20.2483 993.00
20.5525 922.00
20.8568 954.00
21.1611 896.00
21.4653 885.00
21.7696 879.00
22.0738 843.00
22.3781 841.00
22.6824 813.00
22.9866 865.00
23.2909 798.00
23.5951 756.00
23.8994 807.00
24.2037 790.00
24.5079 911.00
24.8122 739.00
25.1164 708.00
25.4207 729.00
25.725 958.00
26.0292 776.00
26.3335 725.00
26.6378 709.00
26.942 649.00
27.2463 704.00
27.5505 687.00
27.8548 653.00
28.1591 730.00
28.4633 669.00
28.7676 629.00
29.0718 689.00
29.3761 607.00
29.6804 591.00
29.9846 541.00
30.2889 615.00
30.5931 605.00
30.8974 531.00
31.2017 628.00
31.5059 485.00
31.8102 514.00
32.1144 536.00
32.4187 572.00
32.723 594.00
33.0272 512.00
33.3315 505.00
33.6357 508.00
33.94 523.00
34.2443 511.00
34.5485 449.00
34.8528 542.00
35.157 486.00
35.4613 465.00
35.7656 443.00
36.0698 389.00
36.3741 443.00
36.6783 405.00
36.9826 431.00
37.2869 390.00
37.5911 412.00
37.8954 416.00
38.1996 369.00
38.5039 410.00
38.8082 384.00
39.1124 394.00
39.4167 402.00
39.7209 368.00
40.0252 373.00
40.3295 372.00
40.6337 365.00
40.938 380.00
41.2422 354.00
41.5465 372.00
41.8508 356.00
42.155 370.00
42.4593 338.00
42.7635 321.00
43.0678 366.00
43.3721 364.00
43.6763 356.00
43.9806 360.00
44.2849 377.00
44.5891 346.00
44.8934 329.00
45.1976 290.00
45.5019 313.00
45.8062 306.00
46.1104 276.00
46.4147 345.00
46.7189 317.00
47.0232 297.00
47.3275 295.00
47.6317 313.00
47.936 330.00
48.2402 297.00
48.5445 320.00
48.8488 307.00
49.153 328.00
49.4573 262.00
49.7615 295.00
50.0658 300.00
50.3701 319.00
50.6743 286.00
50.9786 250.00
51.2828 269.00
51.5871 296.00
51.8914 296.00
52.1956 263.00
52.4999 276.00
52.8041 248.00
53.1084 257.00
53.4127 233.00
53.7169 250.00
54.0212 276.00
54.3254 248.00
54.6297 248.00
54.934 262.00
55.2382 243.00
55.5425 273.00
55.8467 225.00
56.151 260.00
56.4553 240.00
56.7595 194.00
57.0638 237.00
57.368 237.00
57.6723 219.00
57.9766 249.00
58.2808 236.00
58.5851 257.00
58.8893 226.00
59.1936 222.00
59.4979 196.00
59.8021 226.00
60.1064 218.00
60.4106 196.00
60.7149 214.00
61.0192 202.00
61.3234 208.00
61.6277 218.00
61.932 221.00
62.2362 211.00
62.5405 229.00
62.8447 232.00
63.149 216.00
63.4533 213.00
63.7575 207.00
64.0618 238.00
64.366 189.00
64.6703 198.00
64.9745 200.00
65.2788 222.00
65.5831 210.00
65.8873 197.00
66.1916 201.00
66.4959 230.00
66.8001 183.00
67.1044 207.00
67.4086 197.00
67.7129 217.00
68.0172 208.00
68.3214 205.00
68.6257 170.00
68.9299 182.00
69.2342 240.00
69.5385 212.00
69.8427 214.00
70.147 192.00
70.4512 209.00
70.7555 230.00
71.0598 197.00
71.364 209.00
71.6683 179.00
71.9725 183.00
72.2768 212.00
72.5811 207.00
72.8853 211.00
73.1896 218.00
73.4938 219.00
73.7981 214.00
74.1024 166.00
74.4066 198.00
74.7109 203.00
75.0151 209.00
75.3194 200.00
75.6237 212.00
75.9279 214.00
76.2322 241.00
76.5364 217.00
76.8407 219.00
77.145 195.00
77.4492 218.00
77.7535 204.00
78.0577 206.00
78.362 212.00
78.6663 233.00
78.9705 191.00
79.2748 202.00
79.579 189.00
79.8833 218.00
80.1876 213.00
80.4918 212.00
80.7961 233.00
81.1003 216.00
81.4046 206.00
81.7089 220.00
82.0131 214.00
82.3174 211.00
82.6217 218.00
82.9259 226.00
83.2302 229.00
83.5344 211.00
83.8387 198.00
84.143 209.00
84.4472 218.00
84.7515 235.00
85.0557 192.00
85.36 247.00
85.6643 216.00
85.9685 192.00
86.2728 197.00
86.577 204.00
86.8813 212.00
87.1856 226.00
87.4898 202.00
87.7941 196.00
88.0983 220.00
88.4026 195.00
88.7069 182.00
89.0111 194.00
89.3154 214.00
89.6196 231.00
89.9239 175.00
90.2282 194.00
90.5324 206.00
90.8367 184.00
91.1409 184.00
91.4452 205.00
91.7495 188.00
92.0537 169.00
92.358 206.00
92.6622 187.00
92.9665 150.00
93.2708 184.00
93.575 201.00
93.8793 176.00
94.1835 173.00
94.4878 161.00
94.7921 193.00
95.0963 162.00
95.4006 181.00
95.7048 185.00
96.0091 163.00
96.3134 193.00
96.6176 191.00
96.9219 170.00
97.2261 175.00
97.5304 182.00
97.8347 197.00
98.1389 196.00
98.4432 169.00
98.7474 191.00
99.0517 177.00
99.356 186.00
99.6602 201.00
99.9645 185.00
100.095 164.00

File: Na_15.xy
9.903433 2648.00
10.2077 2642.00
10.512 2563.00
10.8162 2468.00
11.1205 2337.00
11.4247 2228.00
11.729 2179.00
12.0333 2120.00
12.3375 2087.00
12.6418 2007.00
12.946 2012.00
13.2503 1982.00
13.5546 1964.00
13.8588 1810.00
14.1631 1814.00
14.4673 1888.00
14.7716 1839.00
15.0759 1755.00
15.3801 1614.00
15.6844 1721.00
15.9886 1674.00
16.2929 1658.00
16.5972 1625.00
16.9014 1650.00
17.2057 1625.00
17.5099 1608.00
17.8142 1644.00
18.1185 1534.00
18.4227 1552.00
18.727 1399.00
19.0312 1468.00
19.3355 1412.00
19.6398 1369.00
19.944 1307.00
20.2483 1384.00
20.5525 1329.00
20.8568 1301.00
21.1611 1415.00
21.4653 1423.00
21.7696 5098.00
22.0738 1355.00
22.3781 1275.00
22.6824 1319.00
22.9866 1205.00
23.2909 1209.00
23.5951 1122.00
23.8994 1167.00
24.2037 1111.00
24.5079 1051.00
24.8122 1072.00
25.1164 1059.00
25.4207 1101.00
25.725 974.00
26.0292 1013.00
26.3335 1012.00
26.6378 974.00
26.942 969.00
27.2463 899.00
27.5505 1024.00
27.8548 1120.00
28.1591 904.00
28.4633 938.00
28.7676 922.00
29.0718 860.00
29.3761 938.00
29.6804 1007.00
29.9846 1099.00
30.2889 1419.00
30.5931 2854.00
30.8974 48077.00
31.2017 2457.00
31.5059 1186.00
31.8102 1238.00
32.1144 2815.00
32.4187 927.00
32.723 930.00
33.0272 859.00
33.3315 1237.00
33.6357 846.00
33.94 860.00
34.2443 777.00
34.5485 831.00
34.8528 799.00
35.157 988.00
35.4613 1342.00
35.7656 15153.00
36.0698 1279.00
36.3741 869.00
36.6783 744.00
36.9826 710.00
37.2869 681.00
37.5911 763.00
37.8954 1723.00
38.1996 1002.00
38.5039 729.00
38.8082 657.00
39.1124 627.00
39.4167 660.00
39.7209 620.00
40.0252 900.00
40.3295 622.00
40.6337 649.00
40.938 592.00
41.2422 633.00
41.5465 607.00
41.8508 703.00
42.155 2779.00
42.4593 688.00
42.7635 598.00
43.0678 609.00
43.3721 562.00
43.6763 581.00
43.9806 699.00
44.2849 656.00
44.5891 582.00
44.8934 609.00
45.1976 599.00
45.5019 759.00
45.8062 2433.00
46.1104 2574.00
46.4147 631.00
46.7189 600.00
47.0232 532.00
47.3275 551.00
47.6317 560.00
47.936 527.00
48.2402 524.00
48.5445 568.00
48.8488 489.00
49.153 546.00
49.4573 873.00
49.7615 822.00
50.0658 596.00
50.3701 643.00
50.6743 699.00
50.9786 1184.00
51.2828 16424.00
51.5871 1760.00
51.8914 723.00
52.1956 648.00
52.4999 568.00
52.8041 657.00
53.1084 1089.00
53.4127 522.00
53.7169 542.00
54.0212 500.00
54.3254 571.00
54.6297 719.00
54.934 517.00
55.2382 500.00
55.5425 520.00
55.8467 581.00
56.151 1165.00
56.4553 1138.00
56.7595 1156.00
57.0638 519.00
57.368 532.00
57.6723 592.00
57.9766 784.00
58.2808 538.00
58.5851 518.00
58.8893 545.00
59.1936 624.00
59.4979 1330.00
59.8021 559.00
60.1064 538.00
60.4106 749.00
60.7149 1480.00
61.0192 5536.00
61.3234 956.00
61.6277 629.00
61.932 601.00
62.2362 750.00
62.5405 1480.00
62.8447 596.00
63.149 509.00
63.4533 547.00
63.7575 689.00
64.0618 1505.00
64.366 537.00
64.6703 492.00
64.9745 448.00
65.2788 636.00
65.5831 901.00
65.8873 483.00
66.1916 490.00
66.4959 779.00
66.8001 843.00
67.1044 598.00
67.4086 435.00
67.7129 441.00
68.0172 531.00
68.3214 1380.00
68.6257 529.00
68.9299 483.00
69.2342 441.00
69.5385 509.00
69.8427 682.00
70.147 487.00
70.4512 419.00
70.7555 420.00
71.0598 405.00
71.364 436.00
71.6683 389.00
71.9725 389.00
72.2768 390.00
72.5811 422.00
72.8853 415.00
73.1896 476.00
73.4938 476.00
73.7981 664.00
74.1024 950.00
74.4066 446.00
74.7109 425.00
75.0151 533.00
75.3194 1410.00
75.6237 853.00
75.9279 511.00
76.2322 496.00
76.5364 806.00
76.8407 1036.00
77.145 457.00
77.4492 465.00
77.7535 485.00
78.0577 905.00
78.362 486.00
78.6663 439.00
78.9705 429.00
79.2748 742.00
79.579 845.00
79.8833 430.00
80.1876 407.00
80.4918 453.00
80.7961 610.00
81.1003 537.00
81.4046 443.00
81.7089 480.00
82.0131 1367.00
82.3174 977.00
82.6217 421.00
82.9259 515.00
83.2302 870.00
83.5344 1098.00
83.8387 637.00
84.143 665.00
84.4472 620.00
84.7515 485.00
85.0557 436.00
85.36 461.00
85.6643 463.00
85.9685 1180.00
86.2728 1162.00
86.577 482.00
86.8813 413.00
87.1856 437.00
87.4898 520.00
87.7941 408.00
88.0983 432.00
88.4026 395.00
88.7069 719.00
89.0111 570.00
89.3154 446.00
89.6196 408.00
89.9239 640.00
90.2282 654.00
90.5324 444.00
90.8367 349.00
91.1409 429.00
91.4452 414.00
91.7495 440.00
92.0537 397.00
92.358 417.00
92.6622 1084.00
92.9665 727.00
93.2708 404.00
93.575 394.00
93.8793 355.00
94.1835 378.00
94.4878 401.00
94.7921 365.00
95.0963 451.00
95.4006 863.00
95.7048 647.00
96.0091 451.00
96.3134 474.00
96.6176 1428.00
96.9219 934.00
97.2261 497.00
97.5304 454.00
97.8347 558.00
98.1389 636.00
98.4432 536.00
98.7474 431.00
99.0517 422.00
99.356 908.00
99.6602 616.00
99.9645 395.00
100.095 419.00

File: Na_16.xy
9.903433 2660.00
10.2077 2538.00
10.512 2419.00
10.8162 2272.00
11.1205 2341.00
11.4247 2238.00
11.729 2181.00
12.0333 2106.00
12.3375 1961.00
12.6418 1985.00
12.946 1921.00
13.2503 1872.00
13.5546 1730.00
13.8588 1830.00
14.1631 1693.00
14.4673 1761.00
14.7716 1645.00
15.0759 1625.00
15.3801 1639.00
15.6844 1508.00
15.9886 1484.00
16.2929 1539.00
16.5972 1497.00
16.9014 1527.00
17.2057 1448.00
17.5099 1403.00
17.8142 1419.00
18.1185 1390.00
18.4227 1345.00
18.727 1362.00
19.0312 1376.00
19.3355 1271.00
19.6398 1260.00
19.944 1233.00
20.2483 1249.00
20.5525 1179.00
20.8568 1261.00
21.1611 1281.00
21.4653 1710.00
21.7696 2372.00
22.0738 1192.00
22.3781 1105.00
22.6824 1149.00
22.9866 1089.00
23.2909 1037.00
23.5951 1030.00
23.8994 1006.00
24.2037 965.00
24.5079 974.00
24.8122 990.00
25.1164 956.00
25.4207 925.00
25.725 942.00
26.0292 928.00
26.3335 883.00
26.6378 942.00
26.942 858.00
27.2463 851.00
27.5505 951.00
27.8548 913.00
28.1591 856.00
28.4633 808.00
28.7676 850.00
29.0718 831.00
29.3761 786.00
29.6804 858.00
29.9846 952.00
30.2889 1356.00
30.5931 6233.00
30.8974 13333.00
31.2017 1323.00
31.5059 1018.00
31.8102 1648.00
32.1144 1201.00
32.4187 797.00
32.723 735.00
33.0272 725.00
33.3315 845.00
33.6357 722.00
33.94 664.00
34.2443 625.00
34.5485 661.00
34.8528 686.00
35.157 746.00
35.4613 2119.00
35.7656 4757.00
36.0698 834.00
36.3741 655.00
36.6783 627.00
36.9826 586.00
37.2869 594.00
37.5911 678.00
37.8954 1275.00
38.1996 637.00
38.5039 601.00
38.8082 588.00
39.1124 548.00
39.4167 599.00
39.7209 590.00
40.0252 737.00
40.3295 544.00
40.6337 527.00
40.938 522.00
41.2422 506.00
41.5465 563.00
41.8508 740.00
42.155 1166.00
42.4593 523.00
42.7635 498.00
43.0678 478.00
43.3721 474.00
43.6763 486.00
43.9806 645.00
44.2849 522.00
44.5891 484.00
44.8934 513.00
45.1976 505.00
45.5019 971.00
45.8062 1902.00
46.1104 1011.00
46.4147 498.00
46.7189 511.00
47.0232 515.00
47.3275 437.00
47.6317 502.00
47.936 461.00
48.2402 481.00
48.5445 435.00
48.8488 471.00
49.153 516.00
49.4573 764.00
49.7615 570.00
50.0658 435.00
50.3701 518.00
50.6743 618.00
50.9786 1801.00
51.2828 6907.00
51.5871 949.00
51.8914 555.00
52.1956 479.00
52.4999 448.00
52.8041 611.00
53.1084 610.00
53.4127 466.00
53.7169 408.00
54.0212 452.00
54.3254 458.00
54.6297 523.00
54.934 402.00
55.2382 412.00
55.5425 434.00
55.8467 493.00
56.151 1143.00
56.4553 643.00
56.7595 661.00
57.0638 475.00
57.368 435.00
57.6723 511.00
57.9766 500.00
58.2808 364.00
58.5851 387.00
58.8893 442.00
59.1936 771.00
59.4979 858.00
59.8021 449.00
60.1064 489.00
60.4106 614.00
60.7149 2320.00
61.0192 2877.00
61.3234 609.00
61.6277 451.00
61.932 466.00
62.2362 825.00
62.5405 913.00
62.8447 458.00
63.149 428.00
63.4533 455.00
63.7575 814.00
64.0618 832.00
64.366 417.00
64.6703 399.00
64.9745 424.00
65.2788 579.00
65.5831 488.00
65.8873 402.00
66.1916 456.00
66.4959 490.00
66.8001 552.00
67.1044 393.00
67.4086 395.00
67.7129 375.00
68.0172 504.00
68.3214 737.00
68.6257 402.00
68.9299 344.00
69.2342 406.00
69.5385 488.00
69.8427 509.00
70.147 363.00
70.4512 344.00
70.7555 378.00
71.0598 327.00
71.364 337.00
71.6683 373.00
71.9725 331.00
72.2768 361.00
72.5811 344.00
72.8853 339.00
73.1896 358.00
73.4938 405.00
73.7981 611.00
74.1024 558.00
74.4066 378.00
74.7109 414.00
75.0151 568.00
75.3194 887.00
75.6237 610.00
75.9279 372.00
76.2322 403.00
76.5364 777.00
76.8407 690.00
77.145 347.00
77.4492 350.00
77.7535 498.00
78.0577 565.00
78.362 347.00
78.6663 298.00
78.9705 355.00
79.2748 633.00
79.579 520.00
79.8833 338.00
80.1876 321.00
80.4918 441.00
80.7961 437.00
81.1003 364.00
81.4046 355.00
81.7089 460.00
82.0131 807.00
82.3174 549.00
82.6217 395.00
82.9259 456.00
83.2302 980.00
83.5344 892.00
83.8387 456.00
84.143 487.00
84.4472 439.00
84.7515 327.00
85.0557 368.00
85.36 402.00
85.6643 411.00
85.9685 1056.00
86.2728 786.00
86.577 380.00
86.8813 359.00
87.1856 429.00
87.4898 368.00
87.7941 336.00
88.0983 347.00
88.4026 370.00
88.7069 499.00
89.0111 410.00
89.3154 346.00
89.6196 371.00
89.9239 658.00
90.2282 528.00
90.5324 295.00
90.8367 316.00
91.1409 345.00
91.4452 320.00
91.7495 327.00
92.0537 351.00
92.358 366.00
92.6622 715.00
92.9665 529.00
93.2708 352.00
93.575 330.00
93.8793 339.00
94.1835 309.00
94.4878 353.00
94.7921 309.00
95.0963 459.00
95.4006 546.00
95.7048 439.00
96.0091 400.00
96.3134 429.00
96.6176 997.00
96.9219 692.00
97.2261 385.00
97.5304 398.00
97.8347 526.00
98.1389 512.00
98.4432 421.00
98.7474 350.00
99.0517 439.00
99.356 544.00
99.6602 467.00
99.9645 354.00
100.095 348.00

File: Na_17.xy
9.903433 2680.00
10.2077 2520.00
10.512 2534.00
10.8162 2422.00
11.1205 2404.00
11.4247 2261.00
11.729 2429.00
12.0333 3935.00
12.3375 9223.00
12.6418 2163.00
12.946 1882.00
13.2503 1957.00
13.5546 1838.00
13.8588 1728.00
14.1631 1648.00
14.4673 1721.00
14.7716 1660.00
15.0759 1654.00
15.3801 1697.00
15.6844 1599.00
15.9886 1607.00
16.2929 1492.00
16.5972 1537.00
16.9014 1465.00
17.2057 1496.00
17.5099 1524.00
17.8142 1419.00
18.1185 1437.00
18.4227 1338.00
18.727 1329.00
19.0312 1337.00
19.3355 1264.00
19.6398 1346.00
19.944 1267.00
20.2483 1176.00
20.5525 1223.00
20.8568 1206.00
21.1611 1211.00
21.4653 1145.00
21.7696 1176.00
22.0738 1118.00
22.3781 1120.00
22.6824 1176.00
22.9866 1058.00
23.2909 1098.00
23.5951 1197.00
23.8994 1170.00
24.2037 1619.00
24.5079 3063.00
24.8122 1082.00
25.1164 1085.00
25.4207 1163.00
25.725 1341.00
26.0292 9274.00
26.3335 1679.00
26.6378 1099.00
26.942 1039.00
27.2463 1003.00
27.5505 1873.00
27.8548 959.00
28.1591 881.00
28.4633 926.00
28.7676 892.00
29.0718 912.00
29.3761 855.00
29.6804 869.00
29.9846 878.00
30.2889 1083.00
30.5931 907.00
30.8974 975.00
31.2017 945.00
31.5059 1057.00
31.8102 4084.00
32.1144 1864.00
32.4187 1213.00
32.723 9620.00
33.0272 1201.00
33.3315 1360.00
33.6357 10865.00
33.94 1785.00
34.2443 864.00
34.5485 912.00
34.8528 981.00
35.157 990.00
35.4613 903.00
35.7656 722.00
36.0698 768.00
36.3741 768.00
36.6783 1459.00
36.9826 1375.00
37.2869 641.00
37.5911 667.00
37.8954 648.00
38.1996 836.00
38.5039 677.00
38.8082 655.00
39.1124 585.00
39.4167 577.00
39.7209 598.00
40.0252 597.00
40.3295 660.00
40.6337 612.00
40.938 1017.00
41.2422 2793.00
41.5465 690.00
41.8508 703.00
42.155 542.00
42.4593 617.00
42.7635 572.00
43.0678 558.00
43.3721 583.00
43.6763 624.00
43.9806 583.00
44.2849 577.00
44.5891 556.00
44.8934 571.00
45.1976 729.00
45.5019 1511.00
45.8062 3699.00
46.1104 671.00
46.4147 694.00
46.7189 1500.00
47.0232 2188.00
47.3275 642.00
47.6317 518.00
47.936 588.00
48.2402 626.00
48.5445 1554.00
48.8488 606.00
49.153 537.00
49.4573 635.00
49.7615 1506.00
50.0658 2635.00
50.3701 589.00
50.6743 546.00
50.9786 522.00
51.2828 526.00
51.5871 552.00
51.8914 543.00
52.1956 586.00
52.4999 559.00
52.8041 589.00
53.1084 579.00
53.4127 1448.00
53.7169 658.00
54.0212 918.00
54.3254 4165.00
54.6297 795.00
54.934 725.00
55.2382 1990.00
55.5425 2045.00
55.8467 612.00
56.151 558.00
56.4553 666.00
56.7595 1456.00
57.0638 639.00
57.368 559.00
57.6723 526.00
57.9766 531.00
58.2808 566.00
58.5851 964.00
58.8893 3630.00
59.1936 735.00
59.4979 546.00
59.8021 517.00
60.1064 535.00
60.4106 610.00
60.7149 1292.00
61.0192 1166.00
61.3234 501.00
61.6277 449.00
61.932 441.00
62.2362 497.00
62.5405 445.00
62.8447 515.00
63.149 605.00
63.4533 666.00
63.7575 456.00
64.0618 439.00
64.366 444.00
64.6703 419.00
64.9745 420.00
65.2788 412.00
65.5831 397.00
65.8873 463.00
66.1916 498.00
66.4959 719.00
66.8001 419.00
67.1044 438.00
67.4086 456.00
67.7129 450.00
68.0172 704.00
68.3214 1766.00
68.6257 561.00
68.9299 473.00
69.2342 443.00
69.5385 530.00
69.8427 544.00
70.147 441.00
70.4512 590.00
70.7555 537.00
71.0598 427.00
71.364 415.00
71.6683 405.00
71.9725 440.00
72.2768 449.00
72.5811 472.00
72.8853 775.00
73.1896 691.00
73.4938 614.00
73.7981 611.00
74.1024 525.00
74.4066 886.00
74.7109 589.00
75.0151 779.00
75.3194 1765.00
75.6237 1213.00
75.9279 558.00
76.2322 485.00
76.5364 481.00
76.8407 481.00
77.145 472.00
77.4492 544.00
77.7535 1268.00
78.0577 1116.00
78.362 849.00
78.6663 494.00
78.9705 626.00
79.2748 457.00
79.579 460.00
79.8833 560.00
80.1876 652.00
80.4918 447.00
80.7961 453.00
81.1003 452.00
81.4046 392.00
81.7089 467.00
82.0131 559.00
82.3174 577.00
82.6217 656.00
82.9259 634.00
83.2302 445.00
83.5344 505.00
83.8387 519.00
84.143 1515.00
84.4472 808.00
84.7515 420.00
85.0557 405.00
85.36 433.00
85.6643 417.00
85.9685 444.00
86.2728 434.00
86.577 853.00
86.8813 1382.00
87.1856 937.00
87.4898 478.00
87.7941 407.00
88.0983 419.00
88.4026 435.00
88.7069 544.00
89.0111 1241.00
89.3154 857.00
89.6196 454.00
89.9239 449.00
90.2282 428.00
90.5324 455.00
90.8367 403.00
91.1409 432.00
91.4452 410.00
91.7495 413.00
92.0537 437.00
92.358 638.00
92.6622 613.00
92.9665 504.00
93.2708 755.00
93.575 662.00
93.8793 476.00
94.1835 406.00
94.4878 452.00
94.7921 441.00
95.0963 450.00
95.4006 485.00
95.7048 580.00
96.0091 1030.00
96.3134 1230.00
96.6176 770.00
96.9219 453.00
97.2261 437.00
97.5304 385.00
97.8347 678.00
98.1389 618.00
98.4432 489.00
98.7474 950.00
99.0517 646.00
99.356 472.00
99.6602 444.00
99.9645 431.00
100.095 520.00

File: Na_18.xy
9.903433 3033.00
10.2077 2879.00
10.512 2836.00
10.8162 2703.00
11.1205 2618.00
11.4247 2591.00
11.729 2505.00
12.0333 2347.00
12.3375 2377.00
12.6418 2241.00
12.946 2224.00
13.2503 2077.00
13.5546 2120.00
13.8588 2014.00
14.1631 1996.00
14.4673 2008.00
14.7716 1957.00
15.0759 1938.00
15.3801 1829.00
15.6844 1815.00
15.9886 1756.00
16.2929 1800.00
16.5972 1802.00
16.9014 1727.00
17.2057 1727.00
17.5099 1749.00
17.8142 1614.00
18.1185 1688.00
18.4227 1554.00
18.727 1620.00
19.0312 1595.00
19.3355 1543.00
19.6398 1608.00
19.944 1733.00
20.2483 1502.00
20.5525 1540.00
20.8568 1607.00
21.1611 1530.00
21.4653 1475.00
21.7696 1567.00
22.0738 1518.00
22.3781 1571.00
22.6824 1677.00
22.9866 1919.00
23.2909 1856.00
23.5951 1946.00
23.8994 2332.00
24.2037 2026.00
24.5079 2235.00
24.8122 2485.00
25.1164 2838.00
25.4207 3173.00
25.725 3614.00
26.0292 4250.00
26.3335 4616.00
26.6378 2853.00
26.942 2296.00
27.2463 2038.00
27.5505 2467.00
27.8548 3290.00
28.1591 1499.00
28.4633 1290.00
28.7676 1254.00
29.0718 1244.00
29.3761 1420.00
29.6804 1381.00
29.9846 2921.00
30.2889 8962.00
30.5931 2888.00
30.8974 1559.00
31.2017 1368.00
31.5059 1333.00
31.8102 1892.00
32.1144 1342.00
32.4187 1115.00
32.723 1114.00
33.0272 2374.00
33.3315 3106.00
33.6357 1235.00
33.94 1451.00
34.2443 3669.00
34.5485 6378.00
34.8528 4505.00
35.157 3858.00
35.4613 8513.00
35.7656 1583.00
36.0698 1171.00
36.3741 1085.00
36.6783 1138.00
36.9826 1258.00
37.2869 1211.00
37.5911 1677.00
37.8954 4515.00
38.1996 11101.00
38.5039 2850.00
38.8082 1695.00
39.1124 1146.00
39.4167 1134.00
39.7209 1565.00
40.0252 4523.00
40.3295 3583.00
40.6337 1134.00
40.938 1560.00
41.2422 3928.00
41.5465 5151.00
41.8508 3289.00
42.155 1210.00
42.4593 1506.00
42.7635 1702.00
43.0678 1419.00
43.3721 1291.00
43.6763 1178.00
43.9806 1172.00
44.2849 1221.00
44.5891 1978.00
44.8934 1578.00
45.1976 1101.00
45.5019 1360.00
45.8062 1179.00
46.1104 1037.00
46.4147 2309.00
46.7189 3704.00
47.0232 1501.00
47.3275 1463.00
47.6317 866.00
47.936 1066.00
48.2402 2557.00
48.5445 3510.00
48.8488 1108.00
49.153 902.00
49.4573 1068.00
49.7615 765.00
50.0658 796.00
50.3701 775.00
50.6743 849.00
50.9786 1187.00
51.2828 979.00
51.5871 759.00
51.8914 740.00
52.1956 782.00
52.4999 781.00
52.8041 840.00
53.1084 876.00
53.4127 1461.00
53.7169 2302.00
54.0212 1280.00
54.3254 914.00
54.6297 1741.00
54.934 1662.00
55.2382 894.00
55.5425 1125.00
55.8467 859.00
56.151 961.00
56.4553 1546.00
56.7595 1083.00
57.0638 979.00
57.368 1022.00
57.6723 741.00
57.9766 706.00
58.2808 905.00
58.5851 1439.00
58.8893 1272.00
59.1936 1495.00
59.4979 861.00
59.8021 670.00
60.1064 654.00
60.4106 780.00
60.7149 1206.00
61.0192 941.00
61.3234 613.00
61.6277 601.00
61.932 978.00
62.2362 1100.00
62.5405 1086.00
62.8447 1571.00
63.149 776.00
63.4533 671.00
63.7575 887.00
64.0618 1202.00
64.366 768.00
64.6703 534.00
64.9745 562.00
65.2788 544.00
65.5831 512.00
65.8873 585.00
66.1916 576.00
66.4959 452.00
66.8001 471.00
67.1044 419.00
67.4086 783.00
67.7129 804.00
68.0172 534.00
68.3214 505.00
68.6257 477.00
68.9299 481.00
69.2342 480.00
69.5385 527.00
69.8427 552.00
70.147 611.00
70.4512 519.00
70.7555 483.00
71.0598 437.00
71.364 438.00
71.6683 547.00
71.9725 673.00
72.2768 781.00
72.5811 702.00
72.8853 521.00
73.1896 515.00
73.4938 658.00
73.7981 573.00
74.1024 413.00
74.4066 589.00
74.7109 982.00
75.0151 523.00
75.3194 493.00
75.6237 494.00
75.9279 488.00
76.2322 566.00
76.5364 478.00
76.8407 483.00
77.145 478.00
77.4492 490.00
77.7535 525.00
78.0577 553.00
78.362 534.00
78.6663 512.00
78.9705 561.00
79.2748 644.00
79.579 746.00
79.8833 677.00
80.1876 859.00
80.4918 1063.00
80.7961 703.00
81.1003 471.00
81.4046 514.00
81.7089 496.00
82.0131 504.00
82.3174 521.00
82.6217 511.00
82.9259 530.00
83.2302 543.00
83.5344 603.00
83.8387 507.00
84.143 640.00
84.4472 585.00
84.7515 539.00
85.0557 511.00
85.36 522.00
85.6643 551.00
85.9685 507.00
86.2728 457.00
86.577 452.00
86.8813 426.00
87.1856 435.00
87.4898 475.00
87.7941 508.00
88.0983 492.00
88.4026 461.00
88.7069 442.00
89.0111 404.00
89.3154 533.00
89.6196 530.00
89.9239 550.00
90.2282 569.00
90.5324 491.00
90.8367 450.00
91.1409 468.00
91.4452 478.00
91.7495 463.00
92.0537 453.00
92.358 445.00
92.6622 459.00
92.9665 453.00
93.2708 679.00
93.575 677.00
93.8793 651.00
94.1835 521.00
94.4878 443.00
94.7921 430.00
95.0963 438.00
95.4006 470.00
95.7048 455.00
96.0091 533.00
96.3134 428.00
96.6176 422.00
96.9219 371.00
97.2261 388.00
97.5304 382.00
97.8347 391.00
98.1389 437.00
98.4432 460.00
98.7474 497.00
99.0517 512.00
99.356 619.00
99.6602 494.00
99.9645 413.00
100.095 448.00