Folder: alab-pipeline/data/xrd_creation/results (part 35)

File: Na_-12.xy
9.903433 2699.00
10.2077 2438.00
10.512 2378.00
10.8162 2373.00
11.1205 2176.00
11.4247 2052.00
11.729 1955.00
12.0333 1863.00
12.3375 1795.00
12.6418 1711.00
12.946 1648.00
13.2503 1624.00
13.5546 1520.00
13.8588 1551.00
14.1631 1444.00
14.4673 1467.00
14.7716 1391.00
15.0759 1345.00
15.3801 1312.00
15.6844 1267.00
15.9886 1237.00
16.2929 1263.00
16.5972 1206.00
16.9014 1223.00
17.2057 1177.00
17.5099 1141.00
17.8142 1064.00
18.1185 1038.00
18.4227 1062.00
18.727 1031.00
19.0312 1030.00
19.3355 991.00
19.6398 932.00
19.944 1026.00
20.2483 894.00
20.5525 877.00
20.8568 866.00
21.1611 860.00
21.4653 840.00
21.7696 842.00
22.0738 794.00
22.3781 804.00
22.6824 840.00
22.9866 758.00
23.2909 759.00
23.5951 719.00
23.8994 719.00
24.2037 712.00
24.5079 688.00
24.8122 699.00
25.1164 676.00
25.4207 657.00
25.725 649.00
26.0292 605.00
26.3335 675.00
26.6378 604.00
26.942 607.00
27.2463 625.00
27.5505 563.00
27.8548 592.00
28.1591 583.00
28.4633 619.00
28.7676 560.00
29.0718 579.00
29.3761 565.00
29.6804 553.00
29.9846 524.00
30.2889 555.00
30.5931 478.00
30.8974 471.00
31.2017 512.00
31.5059 525.00
31.8102 476.00
32.1144 460.00
32.4187 473.00
32.723 470.00
33.0272 439.00
33.3315 471.00
33.6357 448.00
33.94 443.00
34.2443 436.00
34.5485 446.00
34.8528 420.00
35.157 384.00
35.4613 384.00
35.7656 410.00
36.0698 378.00
36.3741 369.00
36.6783 362.00
36.9826 385.00
37.2869 349.00
37.5911 360.00
37.8954 342.00
38.1996 362.00
38.5039 339.00
38.8082 354.00
39.1124 363.00
39.4167 340.00
39.7209 337.00
40.0252 321.00
40.3295 302.00
40.6337 331.00
40.938 301.00
41.2422 293.00
41.5465 321.00
41.8508 336.00
42.155 311.00
42.4593 308.00
42.7635 312.00
43.0678 317.00
43.3721 330.00
43.6763 294.00
43.9806 249.00
44.2849 283.00
44.5891 234.00
44.8934 290.00
45.1976 275.00
45.5019 232.00
45.8062 266.00
46.1104 268.00
46.4147 265.00
46.7189 269.00
47.0232 294.00
47.3275 256.00
47.6317 243.00
47.936 299.00
48.2402 244.00
48.5445 262.00
48.8488 259.00
49.153 257.00
49.4573 261.00
49.7615 259.00
50.0658 242.00
50.3701 267.00
50.6743 233.00
50.9786 249.00
51.2828 272.00
51.5871 241.00
51.8914 248.00
52.1956 216.00
52.4999 218.00
52.8041 245.00
53.1084 262.00
53.4127 218.00
53.7169 257.00
54.0212 240.00
54.3254 225.00
54.6297 250.00
54.934 215.00
55.2382 214.00
55.5425 194.00
55.8467 226.00
56.151 192.00
56.4553 181.00
56.7595 211.00
57.0638 222.00
57.368 168.00
57.6723 197.00
57.9766 203.00
58.2808 201.00
58.5851 197.00
58.8893 192.00
59.1936 192.00
59.4979 216.00
59.8021 204.00
60.1064 177.00
60.4106 202.00
60.7149 211.00
61.0192 191.00
61.3234 182.00
61.6277 184.00
61.932 187.00
62.2362 171.00
62.5405 201.00
62.8447 165.00
63.149 187.00
63.4533 203.00
63.7575 164.00
64.0618 189.00
64.366 168.00
64.6703 189.00
64.9745 204.00
65.2788 182.00
65.5831 161.00
65.8873 173.00
66.1916 164.00
66.4959 197.00
66.8001 165.00
67.1044 177.00
67.4086 169.00
67.7129 179.00
68.0172 161.00
68.3214 157.00
68.6257 180.00
68.9299 209.00
69.2342 199.00
69.5385 172.00
69.8427 163.00
70.147 168.00
70.4512 177.00
70.7555 178.00
71.0598 164.00
71.364 201.00
71.6683 165.00
71.9725 179.00
72.2768 187.00
72.5811 172.00
72.8853 180.00
73.1896 169.00
73.4938 176.00
73.7981 193.00
74.1024 204.00
74.4066 212.00
74.7109 159.00
75.0151 190.00
75.3194 197.00
75.6237 197.00
75.9279 205.00
76.2322 207.00
76.5364 195.00
76.8407 230.00
77.145 184.00
77.4492 198.00
77.7535 197.00
78.0577 196.00
78.362 230.00
78.6663 205.00
78.9705 224.00
79.2748 200.00
79.579 196.00
79.8833 188.00
80.1876 229.00
80.4918 206.00
80.7961 218.00
81.1003 238.00
81.4046 256.00
81.7089 263.00
82.0131 216.00
82.3174 226.00
82.6217 207.00
82.9259 218.00
83.2302 192.00
83.5344 221.00
83.8387 187.00
84.143 218.00
84.4472 200.00
84.7515 206.00
85.0557 161.00
85.36 236.00
85.6643 206.00
85.9685 178.00
86.2728 203.00
86.577 182.00
86.8813 201.00
87.1856 187.00
87.4898 176.00
87.7941 204.00
88.0983 193.00
88.4026 172.00
88.7069 155.00
89.0111 194.00
89.3154 176.00
89.6196 189.00
89.9239 193.00
90.2282 185.00
90.5324 184.00
90.8367 171.00
91.1409 160.00
91.4452 182.00
91.7495 147.00
92.0537 170.00
92.358 157.00
92.6622 179.00
92.9665 178.00
93.2708 181.00
93.575 216.00
93.8793 176.00
94.1835 157.00
94.4878 182.00
94.7921 176.00
95.0963 170.00
95.4006 140.00
95.7048 177.00
96.0091 152.00
96.3134 165.00
96.6176 169.00
96.9219 170.00
97.2261 182.00
97.5304 169.00
97.8347 165.00
98.1389 173.00
98.4432 190.00
98.7474 197.00
99.0517 190.00
99.356 178.00
99.6602 191.00
99.9645 166.00
100.095 182.00

File: NSC_1.xy
10.0094 2399.00
10.3137 2257.00
10.618 2216.00
10.9222 2050.00
11.2265 2000.00
11.5307 2034.00
11.835 2314.00
12.1393 1941.00
12.4435 1805.00
12.7478 1701.00
13.052 1658.00
13.3563 1710.00
13.6606 1942.00
13.9648 2385.00
14.2691 1508.00
14.5733 1470.00
14.8776 1439.00
15.1819 1456.00
15.4861 1434.00
15.7904 1392.00
16.0946 1379.00
16.3989 1350.00
16.7032 1319.00
17.0074 1287.00
17.3117 1323.00
17.6159 1249.00
17.9202 1269.00
18.2245 1233.00
18.5287 1199.00
18.833 1381.00
19.1372 2517.00
19.4415 5615.00
19.7458 2390.00
20.05 6500.00
20.3543 1423.00
20.6585 1145.00
20.9628 1198.00
21.2671 1110.00
21.5713 1256.00
21.8756 1247.00
22.1798 1161.00
22.4841 1240.00
22.7884 1492.00
23.0926 2330.00
23.3969 1525.00
23.7011 1038.00
24.0054 1040.00
24.3097 984.00
24.6139 1075.00
24.9182 990.00
25.2224 869.00
25.5267 901.00
25.831 934.00
26.1352 901.00
26.4395 1223.00
26.7438 933.00
27.048 884.00
27.3523 889.00
27.6565 1062.00
27.9608 4492.00
28.2651 1625.00
28.5693 899.00
28.8736 774.00
29.1778 802.00
29.4821 758.00
29.7864 959.00
30.0906 1144.00
30.3949 1001.00
30.6991 1817.00
31.0034 6819.00
31.3077 1213.00
31.6119 1403.00
31.9162 898.00
32.2204 715.00
32.5247 726.00
32.829 770.00
33.1332 750.00
33.4375 1051.00
33.7417 1434.00
34.046 1093.00
34.3503 1125.00
34.6545 3197.00
34.9588 3307.00
35.263 1616.00
35.5673 922.00
35.8716 734.00
36.1758 727.00
36.4801 679.00
36.7843 610.00
37.0886 661.00
37.3929 657.00
37.6971 688.00
38.0014 698.00
38.3056 630.00
38.6099 602.00
38.9142 677.00
39.2184 884.00
39.5227 838.00
39.8269 649.00
40.1312 616.00
40.4355 770.00
40.7397 1121.00
41.044 1129.00
41.3482 1236.00
41.6525 781.00
41.9568 653.00
42.261 773.00
42.5653 1489.00
42.8695 878.00
43.1738 797.00
43.4781 601.00
43.7823 611.00
44.0866 682.00
44.3909 1053.00
44.6951 1158.00
44.9994 666.00
45.3036 1436.00
45.6079 1476.00
45.9122 918.00
46.2164 1407.00
46.5207 1163.00
46.8249 707.00
47.1292 835.00
47.4335 2102.00
47.7377 1237.00
48.042 862.00
48.3462 710.00
48.6505 654.00
48.9548 602.00
49.259 593.00
49.5633 736.00
49.8675 734.00
50.1718 938.00
50.4761 986.00
50.7803 1777.00
51.0846 1742.00
51.3888 782.00
51.6931 1035.00
51.9974 631.00
52.3016 626.00
52.6059 676.00
52.9101 697.00
53.2144 582.00
53.5187 755.00
53.8229 929.00
54.1272 881.00
54.4314 1784.00
54.7357 2352.00
55.04 1294.00
55.3442 775.00
55.6485 688.00
55.9527 700.00
56.257 646.00
56.5613 618.00
56.8655 605.00
57.1698 543.00
57.474 680.00
57.7783 1014.00
58.0826 949.00
58.3868 756.00
58.6911 708.00
58.9953 899.00
59.2996 1521.00
59.6039 1176.00
59.9081 759.00
60.2124 1347.00
60.5166 1455.00
60.8209 918.00
61.1252 648.00
61.4294 726.00
61.7337 1066.00
62.0379 1175.00
62.3422 937.00
62.6465 1075.00
62.9507 1093.00
63.255 1135.00
63.5592 775.00
63.8635 631.00
64.1678 583.00
64.472 637.00
64.7763 714.00
65.0806 654.00
65.3848 723.00
65.6891 1177.00
65.9933 1135.00
66.2976 907.00
66.6019 961.00
66.9061 933.00
67.2104 976.00
67.5146 704.00
67.8189 719.00
68.1232 769.00
68.4274 683.00
68.7317 601.00
69.0359 610.00
69.3402 588.00
69.6445 592.00
69.9487 807.00
70.253 1045.00
70.5572 821.00
70.8615 657.00
71.1658 625.00
71.47 684.00
71.7743 602.00
72.0785 552.00
72.3828 546.00
72.6871 605.00
72.9913 863.00
73.2956 885.00
73.5998 759.00
73.9041 829.00
74.2084 933.00
74.5126 788.00
74.8169 728.00
75.1211 606.00
75.4254 597.00
75.7297 624.00
76.0339 600.00
76.3382 592.00
76.6424 663.00
76.9467 693.00
77.251 760.00
77.5552 851.00
77.8595 912.00
78.1637 855.00
78.468 784.00
78.7723 780.00
79.0765 609.00
79.3808 613.00
79.685 611.00
79.9893 725.00
80.2936 837.00
80.5978 728.00
80.9021 652.00
81.2063 678.00
81.5106 727.00
81.8149 672.00
82.1191 752.00
82.4234 850.00
82.7277 795.00
83.0319 607.00
83.3362 672.00
83.6404 735.00
83.9447 718.00
84.249 745.00
84.5532 717.00
84.8575 693.00
85.1617 638.00
85.466 693.00
85.7703 736.00
86.0745 686.00
86.3788 695.00
86.683 654.00
86.9873 641.00
87.2916 705.00
87.5958 701.00
87.9001 714.00
88.2043 850.00
88.5086 962.00
88.8129 846.00
89.1171 719.00
89.4214 717.00
89.7256 666.00
90.0299 661.00
90.3342 673.00
90.6384 787.00
90.9427 812.00
91.2469 722.00
91.5512 650.00
91.8555 631.00
92.1597 588.00
92.464 661.00
92.7682 716.00
93.0725 822.00
93.3768 763.00
93.681 691.00
93.9853 695.00
94.2895 811.00
94.5938 829.00
94.8981 761.00
95.2023 778.00
95.5066 824.00
95.8108 739.00
96.1151 618.00
96.4194 633.00
96.7236 635.00
97.0279 609.00
97.3321 644.00
97.6364 679.00
97.9407 642.00
98.2449 705.00
98.5492 739.00
98.8534 760.00
99.1577 724.00
99.462 805.00
99.7662 769.00
99.9944 764.00

File: NSC_2.xy
9.903433 2710.00
10.2077 2557.00
10.512 2505.00
10.8162 2441.00
11.1205 2321.00
11.4247 2217.00
11.729 2184.00
12.0333 2156.00
12.3375 2105.00
12.6418 2119.00
12.946 1975.00
13.2503 1882.00
13.5546 1930.00
13.8588 1922.00
14.1631 1920.00
14.4673 2157.00
14.7716 1842.00
15.0759 2127.00
15.3801 3636.00
15.6844 1808.00
15.9886 1818.00
16.2929 1689.00
16.5972 1710.00
16.9014 1661.00
17.2057 1614.00
17.5099 1605.00
17.8142 1790.00
18.1185 1634.00
18.4227 1625.00
18.727 1923.00
19.0312 3169.00
19.3355 1556.00
19.6398 1829.00
19.944 2821.00
20.2483 1651.00
20.5525 2598.00
20.8568 4971.00
21.1611 3766.00
21.4653 1992.00
21.7696 5843.00
22.0738 7742.00
22.3781 2419.00
22.6824 1559.00
22.9866 1546.00
23.2909 1502.00
23.5951 1622.00
23.8994 3347.00
24.2037 1901.00
24.5079 4019.00
24.8122 1848.00
25.1164 2141.00
25.4207 10499.00
25.725 2289.00
26.0292 2568.00
26.3335 8767.00
26.6378 2472.00
26.942 2328.00
27.2463 1394.00
27.5505 1510.00
27.8548 1412.00
28.1591 1453.00
28.4633 2842.00
28.7676 2580.00
29.0718 1448.00
29.3761 1379.00
29.6804 1606.00
29.9846 1409.00
30.2889 1959.00
30.5931 6078.00
30.8974 3090.00
31.2017 1617.00
31.5059 2246.00
31.8102 3238.00
32.1144 1404.00
32.4187 1294.00
32.723 1456.00
33.0272 1543.00
33.3315 3373.00
33.6357 5407.00
33.94 1739.00
34.2443 2305.00
34.5485 1584.00
34.8528 1456.00
35.157 1231.00
35.4613 2586.00
35.7656 1674.00
36.0698 2076.00
36.3741 4153.00
36.6783 1603.00
36.9826 1127.00
37.2869 1112.00
37.5911 1125.00
37.8954 2191.00
38.1996 2249.00
38.5039 3950.00
38.8082 1746.00
39.1124 1288.00
39.4167 1066.00
39.7209 2008.00
40.0252 1210.00
40.3295 1141.00
40.6337 1472.00
40.938 1220.00
41.2422 1194.00
41.5465 1137.00
41.8508 1413.00
42.155 2162.00
42.4593 1457.00
42.7635 1058.00
43.0678 1051.00
43.3721 1102.00
43.6763 2505.00
43.9806 1407.00
44.2849 1413.00
44.5891 1088.00
44.8934 1249.00
45.1976 1504.00
45.5019 1455.00
45.8062 1315.00
46.1104 1138.00
46.4147 1801.00
46.7189 1301.00
47.0232 1369.00
47.3275 1119.00
47.6317 1151.00
47.936 1245.00
48.2402 2691.00
48.5445 2208.00
48.8488 1547.00
49.153 1585.00
49.4573 1559.00
49.7615 3607.00
50.0658 1588.00
50.3701 1267.00
50.6743 1206.00
50.9786 1537.00
51.2828 1228.00
51.5871 1728.00
51.8914 2843.00
52.1956 1424.00
52.4999 1130.00
52.8041 1712.00
53.1084 1119.00
53.4127 1181.00
53.7169 1355.00
54.0212 1059.00
54.3254 1197.00
54.6297 1564.00
54.934 2848.00
55.2382 1388.00
55.5425 1266.00
55.8467 1721.00
56.151 1495.00
56.4553 1106.00
56.7595 996.00
57.0638 1015.00
57.368 1115.00
57.6723 1329.00
57.9766 1426.00
58.2808 2157.00
58.5851 2431.00
58.8893 1437.00
59.1936 1670.00
59.4979 1189.00
59.8021 1630.00
60.1064 1898.00
60.4106 2274.00
60.7149 1479.00
61.0192 1078.00
61.3234 1138.00
61.6277 1643.00
61.932 1528.00
62.2362 1245.00
62.5405 1010.00
62.8447 1091.00
63.149 1342.00
63.4533 1062.00
63.7575 1067.00
64.0618 1516.00
64.366 1857.00
64.6703 1577.00
64.9745 1134.00
65.2788 1241.00
65.5831 1236.00
65.8873 1496.00
66.1916 2672.00
66.4959 2284.00
66.8001 1885.00
67.1044 1230.00
67.4086 1695.00
67.7129 1292.00
68.0172 978.00
68.3214 1262.00
68.6257 1631.00
68.9299 1439.00
69.2342 1461.00
69.5385 1428.00
69.8427 1084.00
70.147 962.00
70.4512 1338.00
70.7555 1523.00
71.0598 1079.00
71.364 1014.00
71.6683 914.00
71.9725 982.00
72.2768 919.00
72.5811 979.00
72.8853 1055.00
73.1896 1093.00
73.4938 1023.00
73.7981 1009.00
74.1024 1074.00
74.4066 948.00
74.7109 1035.00
75.0151 1063.00
75.3194 1005.00
75.6237 1084.00
75.9279 1131.00
76.2322 1002.00
76.5364 956.00
76.8407 1055.00
77.145 1355.00
77.4492 1369.00
77.7535 1329.00
78.0577 1165.00
78.362 972.00
78.6663 994.00
78.9705 1098.00
79.2748 1187.00
79.579 1075.00
79.8833 1026.00
80.1876 1102.00
80.4918 1038.00
80.7961 911.00
81.1003 887.00
81.4046 874.00
81.7089 931.00
82.0131 985.00
82.3174 1064.00
82.6217 982.00
82.9259 970.00
83.2302 910.00
83.5344 931.00
83.8387 986.00
84.143 1038.00
84.4472 984.00
84.7515 1029.00
85.0557 1096.00
85.36 1020.00
85.6643 942.00
85.9685 961.00
86.2728 940.00
86.577 994.00
86.8813 974.00
87.1856 1056.00
87.4898 1017.00
87.7941 992.00
88.0983 888.00
88.4026 900.00
88.7069 1048.00
89.0111 1043.00
89.3154 988.00
89.6196 937.00
89.9239 1003.00
90.2282 934.00
90.5324 892.00
90.8367 967.00
91.1409 1017.00
91.4452 1151.00
91.7495 1146.00
92.0537 1223.00
92.358 1190.00
92.6622 1335.00
92.9665 1220.00
93.2708 1027.00
93.575 1001.00
93.8793 913.00
94.1835 917.00
94.4878 861.00
94.7921 920.00
95.0963 852.00
95.4006 1100.00
95.7048 1076.00
96.0091 998.00
96.3134 994.00
96.6176 991.00
96.9219 939.00
97.2261 996.00
97.5304 927.00
97.8347 978.00
98.1389 1018.00
98.4432 1001.00
98.7474 983.00
99.0517 937.00
99.356 1010.00
99.6602 1137.00
99.9645 1138.00
100.095 1108.00

File: NSC_3.xy
9.903433 2892.00
10.2077 2707.00
10.512 2628.00
10.8162 2641.00
11.1205 2511.00
11.4247 2473.00
11.729 2280.00
12.0333 2346.00
12.3375 2192.00
12.6418 2227.00
12.946 2213.00
13.2503 2080.00
13.5546 2114.00
13.8588 2201.00
14.1631 2480.00
14.4673 3005.00
14.7716 2146.00
15.0759 2506.00
15.3801 2315.00
15.6844 2064.00
15.9886 1974.00
16.2929 1948.00
16.5972 1822.00
16.9014 1832.00
17.2057 1887.00
17.5099 1968.00
17.8142 1918.00
18.1185 1745.00
18.4227 1841.00
18.727 2243.00
19.0312 2576.00
19.3355 1904.00
19.6398 2698.00
19.944 4957.00
20.2483 2333.00
20.5525 4564.00
20.8568 5586.00
21.1611 2571.00
21.4653 2236.00
21.7696 6390.00
22.0738 4953.00
22.3781 1998.00
22.6824 1796.00
22.9866 1766.00
23.2909 1844.00
23.5951 2547.00
23.8994 6385.00
24.2037 2630.00
24.5079 3087.00
24.8122 2171.00
25.1164 2799.00
25.4207 4530.00
25.725 1653.00
26.0292 1805.00
26.3335 2510.00
26.6378 2343.00
26.942 1909.00
27.2463 1470.00
27.5505 1546.00
27.8548 1470.00
28.1591 1697.00
28.4633 4569.00
28.7676 3962.00
29.0718 1809.00
29.3761 1511.00
29.6804 1585.00
29.9846 1648.00
30.2889 2315.00
30.5931 2868.00
30.8974 3078.00
31.2017 2025.00
31.5059 4255.00
31.8102 5143.00
32.1144 1944.00
32.4187 1503.00
32.723 1611.00
33.0272 1789.00
33.3315 3691.00
33.6357 2268.00
33.94 1862.00
34.2443 1781.00
34.5485 1654.00
34.8528 1623.00
35.157 1529.00
35.4613 2465.00
35.7656 2365.00
36.0698 2762.00
36.3741 3731.00
36.6783 1536.00
36.9826 1276.00
37.2869 1283.00
37.5911 1343.00
37.8954 1689.00
38.1996 1868.00
38.5039 1997.00
38.8082 1305.00
39.1124 1188.00
39.4167 1168.00
39.7209 1556.00
40.0252 1419.00
40.3295 1308.00
40.6337 1365.00
40.938 1431.00
41.2422 1365.00
41.5465 1520.00
41.8508 1658.00
42.155 1469.00
42.4593 1400.00
42.7635 1139.00
43.0678 1258.00
43.3721 1521.00
43.6763 1517.00
43.9806 1431.00
44.2849 1402.00
44.5891 1339.00
44.8934 1376.00
45.1976 1791.00
45.5019 1914.00
45.8062 1518.00
46.1104 1513.00
46.4147 1719.00
46.7189 1567.00
47.0232 1542.00
47.3275 1301.00
47.6317 1233.00
47.936 1534.00
48.2402 2339.00
48.5445 2359.00
48.8488 1582.00
49.153 1560.00
49.4573 2094.00
49.7615 2585.00
50.0658 1323.00
50.3701 1720.00
50.6743 1418.00
50.9786 1634.00
51.2828 1592.00
51.5871 2353.00
51.8914 2046.00
52.1956 1491.00
52.4999 1315.00
52.8041 1273.00
53.1084 1105.00
53.4127 1183.00
53.7169 1134.00
54.0212 1218.00
54.3254 1613.00
54.6297 2125.00
54.934 2198.00
55.2382 1414.00
55.5425 1863.00
55.8467 2215.00
56.151 2007.00
56.4553 1538.00
56.7595 1269.00
57.0638 1225.00
57.368 1313.00
57.6723 1329.00
57.9766 1408.00
58.2808 2436.00
58.5851 1845.00
58.8893 1362.00
59.1936 1461.00
59.4979 1418.00
59.8021 1608.00
60.1064 1913.00
60.4106 1923.00
60.7149 1528.00
61.0192 1293.00
61.3234 1493.00
61.6277 1742.00
61.932 1624.00
62.2362 1490.00
62.5405 1432.00
62.8447 1454.00
63.149 1552.00
63.4533 1260.00
63.7575 1322.00
64.0618 1768.00
64.366 1868.00
64.6703 1415.00
64.9745 1319.00
65.2788 1326.00
65.5831 1406.00
65.8873 1689.00
66.1916 1721.00
66.4959 1468.00
66.8001 1327.00
67.1044 1169.00
67.4086 1420.00
67.7129 1219.00
68.0172 1264.00
68.3214 1513.00
68.6257 1566.00
68.9299 1358.00
69.2342 1349.00
69.5385 1270.00
69.8427 1233.00
70.147 1208.00
70.4512 1368.00
70.7555 1190.00
71.0598 1143.00
71.364 1149.00
71.6683 1181.00
71.9725 1204.00
72.2768 1089.00
72.5811 1191.00
72.8853 1231.00
73.1896 1135.00
73.4938 1094.00
73.7981 1058.00
74.1024 1185.00
74.4066 1176.00
74.7109 1196.00
75.0151 1110.00
75.3194 1218.00
75.6237 1363.00
75.9279 1306.00
76.2322 1193.00
76.5364 1181.00
76.8407 1171.00
77.145 1213.00
77.4492 1216.00
77.7535 1151.00
78.0577 1066.00
78.362 1093.00
78.6663 1112.00
78.9705 1229.00
79.2748 1280.00
79.579 1227.00
79.8833 1220.00
80.1876 1140.00
80.4918 1024.00
80.7961 1131.00
81.1003 1064.00
81.4046 1136.00
81.7089 1239.00
82.0131 1209.00
82.3174 1141.00
82.6217 1102.00
82.9259 1115.00
83.2302 1147.00
83.5344 1161.00
83.8387 1255.00
84.143 1197.00
84.4472 1183.00
84.7515 1179.00
85.0557 1226.00
85.36 1126.00
85.6643 1217.00
85.9685 1127.00
86.2728 1128.00
86.577 1146.00
86.8813 1198.00
87.1856 1154.00
87.4898 1141.00
87.7941 1088.00
88.0983 1095.00
88.4026 1124.00
88.7069 1214.00
89.0111 1208.00
89.3154 1125.00
89.6196 1078.00
89.9239 1066.00
90.2282 1173.00
90.5324 1177.00
90.8367 1127.00
91.1409 1179.00
91.4452 1101.00
91.7495 1258.00
92.0537 1295.00
92.358 1233.00
92.6622 1224.00
92.9665 1256.00
93.2708 1093.00
93.575 1108.00
93.8793 1161.00
94.1835 1108.00
94.4878 1079.00
94.7921 1091.00
95.0963 1069.00
95.4006 1162.00
95.7048 1159.00
96.0091 1117.00
96.3134 1168.00
96.6176 1210.00
96.9219 1127.00
97.2261 1112.00
97.5304 1122.00
97.8347 1161.00
98.1389 1097.00
98.4432 1128.00
98.7474 1020.00
99.0517 1182.00
99.356 1169.00
99.6602 1193.00
99.9645 1253.00
100.095 1188.00

File: NSC_4.xy
9.903433 2878.00
10.2077 2843.00
10.512 2782.00
10.8162 2631.00
11.1205 2624.00
11.4247 2567.00
11.729 2462.00
12.0333 2302.00
12.3375 2281.00
12.6418 2189.00
12.946 2182.00
13.2503 2144.00
13.5546 2185.00
13.8588 2205.00
14.1631 2920.00
14.4673 2586.00
14.7716 2135.00
15.0759 2169.00
15.3801 2120.00
15.6844 1944.00
15.9886 1961.00
16.2929 1948.00
16.5972 1952.00
16.9014 1956.00
17.2057 1975.00
17.5099 1961.00
17.8142 2047.00
18.1185 1914.00
18.4227 1905.00
18.727 2133.00
19.0312 2043.00
19.3355 2244.00
19.6398 4637.00
19.944 3938.00
20.2483 3335.00
20.5525 8436.00
20.8568 2762.00
21.1611 1979.00
21.4653 2163.00
21.7696 4858.00
22.0738 2283.00
22.3781 1851.00
22.6824 1813.00
22.9866 1858.00
23.2909 2238.00
23.5951 5820.00
23.8994 4664.00
24.2037 2481.00
24.5079 2231.00
24.8122 1874.00
25.1164 2020.00
25.4207 2065.00
25.725 1700.00
26.0292 1659.00
26.3335 1760.00
26.6378 2314.00
26.942 1657.00
27.2463 1588.00
27.5505 1687.00
27.8548 1694.00
28.1591 2250.00
28.4633 6222.00
28.7676 3225.00
29.0718 1805.00
29.3761 1526.00
29.6804 1522.00
29.9846 1606.00
30.2889 1867.00
30.5931 1845.00
30.8974 2810.00
31.2017 2972.00
31.5059 8291.00
31.8102 3990.00
32.1144 1840.00
32.4187 1593.00
32.723 1476.00
33.0272 1532.00
33.3315 1973.00
33.6357 1526.00
33.94 1820.00
34.2443 1802.00
34.5485 1611.00
34.8528 1743.00
35.157 2364.00
35.4613 3298.00
35.7656 4052.00
36.0698 2300.00
36.3741 2785.00
36.6783 1479.00
36.9826 1395.00
37.2869 1356.00
37.5911 1316.00
37.8954 1457.00
38.1996 1405.00
38.5039 1445.00
38.8082 1376.00
39.1124 1291.00
39.4167 1272.00
39.7209 1749.00
40.0252 1633.00
40.3295 1396.00
40.6337 1330.00
40.938 1566.00
41.2422 1530.00
41.5465 1998.00
41.8508 1659.00
42.155 1524.00
42.4593 1446.00
42.7635 1318.00
43.0678 1593.00
43.3721 2023.00
43.6763 1498.00
43.9806 1551.00
44.2849 1403.00
44.5891 1332.00
44.8934 1763.00
45.1976 2514.00
45.5019 1925.00
45.8062 1590.00
46.1104 1879.00
46.4147 1951.00
46.7189 1831.00
47.0232 1809.00
47.3275 1406.00
47.6317 1397.00
47.936 1839.00
48.2402 3350.00
48.5445 2294.00
48.8488 1645.00
49.153 1453.00
49.4573 1797.00
49.7615 1825.00
50.0658 1371.00
50.3701 1598.00
50.6743 1504.00
50.9786 1614.00
51.2828 1896.00
51.5871 2722.00
51.8914 2024.00
52.1956 1605.00
52.4999 1324.00
52.8041 1379.00
53.1084 1237.00
53.4127 1233.00
53.7169 1237.00
54.0212 1269.00
54.3254 1804.00
54.6297 2042.00
54.934 1746.00
55.2382 1962.00
55.5425 2761.00
55.8467 2827.00
56.151 1987.00
56.4553 1467.00
56.7595 1359.00
57.0638 1369.00
57.368 1431.00
57.6723 1430.00
57.9766 1419.00
58.2808 2259.00
58.5851 1869.00
58.8893 1411.00
59.1936 1248.00
59.4979 1319.00
59.8021 1479.00
60.1064 2122.00
60.4106 1824.00
60.7149 1527.00
61.0192 1554.00
61.3234 2023.00
61.6277 1871.00
61.932 1574.00
62.2362 1634.00
62.5405 1615.00
62.8447 1630.00
63.149 1518.00
63.4533 1427.00
63.7575 1685.00
64.0618 1979.00
64.366 1656.00
64.6703 1408.00
64.9745 1335.00
65.2788 1431.00
65.5831 1435.00
65.8873 1446.00
66.1916 1610.00
66.4959 1596.00
66.8001 1405.00
67.1044 1368.00
67.4086 1537.00
67.7129 1483.00
68.0172 1477.00
68.3214 1524.00
68.6257 1395.00
68.9299 1361.00
69.2342 1360.00
69.5385 1279.00
69.8427 1187.00
70.147 1186.00
70.4512 1294.00
70.7555 1234.00
71.0598 1368.00
71.364 1572.00
71.6683 1413.00
71.9725 1239.00
72.2768 1239.00
72.5811 1250.00
72.8853 1230.00
73.1896 1147.00
73.4938 1274.00
73.7981 1317.00
74.1024 1415.00
74.4066 1368.00
74.7109 1291.00
75.0151 1372.00
75.3194 1567.00
75.6237 1559.00
75.9279 1451.00
76.2322 1201.00
76.5364 1244.00
76.8407 1300.00
77.145 1294.00
77.4492 1307.00
77.7535 1247.00
78.0577 1226.00
78.362 1113.00
78.6663 1250.00
78.9705 1415.00
79.2748 1513.00
79.579 1284.00
79.8833 1285.00
80.1876 1221.00
80.4918 1108.00
80.7961 1164.00
81.1003 1348.00
81.4046 1324.00
81.7089 1268.00
82.0131 1205.00
82.3174 1118.00
82.6217 1163.00
82.9259 1202.00
83.2302 1180.00
83.5344 1272.00
83.8387 1405.00
84.143 1396.00
84.4472 1232.00
84.7515 1263.00
85.0557 1379.00
85.36 1250.00
85.6643 1269.00
85.9685 1303.00
86.2728 1225.00
86.577 1272.00
86.8813 1214.00
87.1856 1188.00
87.4898 1104.00
87.7941 1147.00
88.0983 1180.00
88.4026 1243.00
88.7069 1215.00
89.0111 1248.00
89.3154 1340.00
89.6196 1351.00
89.9239 1420.00
90.2282 1406.00
90.5324 1260.00
90.8367 1243.00
91.1409 1152.00
91.4452 1231.00
91.7495 1281.00
92.0537 1301.00
92.358 1224.00
92.6622 1189.00
92.9665 1214.00
93.2708 1116.00
93.575 1107.00
93.8793 1236.00
94.1835 1271.00
94.4878 1251.00
94.7921 1278.00
95.0963 1255.00
95.4006 1308.00
95.7048 1287.00
96.0091 1260.00
96.3134 1320.00
96.6176 1326.00
96.9219 1322.00
97.2261 1262.00
97.5304 1196.00
97.8347 1229.00
98.1389 1142.00
98.4432 1165.00
98.7474 1138.00
99.0517 1209.00
99.356 1191.00
99.6602 1308.00
99.9645 1271.00
100.095 1291.00