Folder: alab-pipeline/data/xrd_creation/results (part 8)

File: Na_31.xy
9.903433 2776.00
10.2077 2472.00
10.512 2339.00
10.8162 2380.00
11.1205 2188.00
11.4247 2092.00
11.729 2058.00
12.0333 1899.00
12.3375 1820.00
12.6418 1786.00
12.946 1683.00
13.2503 1590.00
13.5546 1636.00
13.8588 1494.00
14.1631 1524.00
14.4673 1505.00
14.7716 1414.00
15.0759 1414.00
15.3801 1419.00
15.6844 1320.00
15.9886 1290.00
16.2929 1236.00
16.5972 1303.00
16.9014 1155.00
17.2057 1246.00
17.5099 1223.00
17.8142 1127.00
18.1185 1090.00
18.4227 1129.00
18.727 1037.00
19.0312 1051.00
19.3355 1038.00
19.6398 1069.00
19.944 989.00
20.2483 955.00
20.5525 945.00
20.8568 975.00
21.1611 973.00
21.4653 893.00
21.7696 860.00
22.0738 863.00
22.3781 879.00
22.6824 846.00
22.9866 830.00
23.2909 874.00
23.5951 806.00
23.8994 756.00
24.2037 795.00
24.5079 812.00
24.8122 777.00
25.1164 764.00
25.4207 768.00
25.725 767.00
26.0292 742.00
26.3335 994.00
26.6378 687.00
26.942 677.00
27.2463 686.00
27.5505 779.00
27.8548 683.00
28.1591 706.00
28.4633 713.00
28.7676 939.00
29.0718 728.00
29.3761 646.00
29.6804 625.00
29.9846 661.00
30.2889 640.00
30.5931 560.00
30.8974 511.00
31.2017 574.00
31.5059 604.00
31.8102 580.00
32.1144 567.00
32.4187 555.00
32.723 586.00
33.0272 542.00
33.3315 614.00
33.6357 807.00
33.94 530.00
34.2443 496.00
34.5485 473.00
34.8528 460.00
35.157 490.00
35.4613 468.00
35.7656 470.00
36.0698 484.00
36.3741 432.00
36.6783 468.00
36.9826 463.00
37.2869 443.00
37.5911 412.00
37.8954 482.00
38.1996 433.00
38.5039 402.00
38.8082 397.00
39.1124 375.00
39.4167 371.00
39.7209 401.00
40.0252 401.00
40.3295 353.00
40.6337 406.00
40.938 391.00
41.2422 333.00
41.5465 347.00
41.8508 371.00
42.155 328.00
42.4593 350.00
42.7635 377.00
43.0678 375.00
43.3721 337.00
43.6763 334.00
43.9806 355.00
44.2849 339.00
44.5891 295.00
44.8934 329.00
45.1976 337.00
45.5019 336.00
45.8062 351.00
46.1104 303.00
46.4147 319.00
46.7189 316.00
47.0232 303.00
47.3275 317.00
47.6317 325.00
47.936 324.00
48.2402 397.00
48.5445 309.00
48.8488 303.00
49.153 311.00
49.4573 328.00
49.7615 307.00
50.0658 288.00
50.3701 319.00
50.6743 290.00
50.9786 311.00
51.2828 319.00
51.5871 416.00
51.8914 341.00
52.1956 310.00
52.4999 263.00
52.8041 264.00
53.1084 250.00
53.4127 274.00
53.7169 234.00
54.0212 291.00
54.3254 290.00
54.6297 332.00
54.934 284.00
55.2382 247.00
55.5425 264.00
55.8467 282.00
56.151 271.00
56.4553 245.00
56.7595 270.00
57.0638 289.00
57.368 296.00
57.6723 268.00
57.9766 231.00
58.2808 222.00
58.5851 209.00
58.8893 229.00
59.1936 228.00
59.4979 258.00
59.8021 242.00
60.1064 246.00
60.4106 224.00
60.7149 237.00
61.0192 231.00
61.3234 214.00
61.6277 239.00
61.932 264.00
62.2362 236.00
62.5405 232.00
62.8447 230.00
63.149 229.00
63.4533 202.00
63.7575 226.00
64.0618 185.00
64.366 214.00
64.6703 233.00
64.9745 213.00
65.2788 209.00
65.5831 185.00
65.8873 230.00
66.1916 248.00
66.4959 204.00
66.8001 207.00
67.1044 227.00
67.4086 197.00
67.7129 169.00
68.0172 208.00
68.3214 184.00
68.6257 191.00
68.9299 201.00
69.2342 192.00
69.5385 227.00
69.8427 214.00
70.147 204.00
70.4512 218.00
70.7555 218.00
71.0598 227.00
71.364 225.00
71.6683 247.00
71.9725 193.00
72.2768 217.00
72.5811 214.00
72.8853 206.00
73.1896 189.00
73.4938 213.00
73.7981 224.00
74.1024 212.00
74.4066 230.00
74.7109 209.00
75.0151 208.00
75.3194 206.00
75.6237 180.00
75.9279 246.00
76.2322 264.00
76.5364 227.00
76.8407 198.00
77.145 259.00
77.4492 257.00
77.7535 258.00
78.0577 260.00
78.362 242.00
78.6663 282.00
78.9705 244.00
79.2748 246.00
79.579 225.00
79.8833 275.00
80.1876 249.00
80.4918 294.00
80.7961 235.00
81.1003 270.00
81.4046 236.00
81.7089 242.00
82.0131 223.00
82.3174 223.00
82.6217 230.00
82.9259 264.00
83.2302 222.00
83.5344 222.00
83.8387 232.00
84.143 198.00
84.4472 231.00
84.7515 225.00
85.0557 194.00
85.36 208.00
85.6643 217.00
85.9685 192.00
86.2728 217.00
86.577 213.00
86.8813 184.00
87.1856 197.00
87.4898 186.00
87.7941 193.00
88.0983 180.00
88.4026 218.00
88.7069 210.00
89.0111 204.00
89.3154 186.00
89.6196 189.00
89.9239 219.00
90.2282 199.00
90.5324 171.00
90.8367 217.00
91.1409 191.00
91.4452 207.00
91.7495 175.00
92.0537 199.00
92.358 179.00
92.6622 178.00
92.9665 193.00
93.2708 189.00
93.575 221.00
93.8793 175.00
94.1835 203.00
94.4878 171.00
94.7921 218.00
95.0963 193.00
95.4006 161.00
95.7048 172.00
96.0091 185.00
96.3134 172.00
96.6176 199.00
96.9219 179.00
97.2261 172.00
97.5304 179.00
97.8347 177.00
98.1389 197.00
98.4432 190.00
98.7474 203.00
99.0517 181.00
99.356 191.00
99.6602 175.00
99.9645 199.00
100.095 181.00

File: Na_32.xy
9.903433 2470.00
10.2077 2489.00
10.512 2319.00
10.8162 2293.00
11.1205 2215.00
11.4247 2070.00
11.729 1900.00
12.0333 1991.00
12.3375 1813.00
12.6418 1818.00
12.946 1564.00
13.2503 1551.00
13.5546 1522.00
13.8588 1473.00
14.1631 1448.00
14.4673 1339.00
14.7716 1399.00
15.0759 1345.00
15.3801 1290.00
15.6844 1275.00
15.9886 1245.00
16.2929 1243.00
16.5972 1197.00
16.9014 1129.00
17.2057 1163.00
17.5099 1156.00
17.8142 1109.00
18.1185 1094.00
18.4227 1011.00
18.727 1010.00
19.0312 972.00
19.3355 967.00
19.6398 916.00
19.944 927.00
20.2483 900.00
20.5525 917.00
20.8568 860.00
21.1611 820.00
21.4653 819.00
21.7696 822.00
22.0738 827.00
22.3781 835.00
22.6824 778.00
22.9866 732.00
23.2909 723.00
23.5951 752.00
23.8994 761.00
24.2037 729.00
24.5079 726.00
24.8122 720.00
25.1164 687.00
25.4207 712.00
25.725 626.00
26.0292 648.00
26.3335 569.00
26.6378 669.00
26.942 608.00
27.2463 607.00
27.5505 574.00
27.8548 617.00
28.1591 615.00
28.4633 618.00
28.7676 576.00
29.0718 557.00
29.3761 568.00
29.6804 522.00
29.9846 592.00
30.2889 523.00
30.5931 493.00
30.8974 533.00
31.2017 519.00
31.5059 497.00
31.8102 495.00
32.1144 489.00
32.4187 474.00
32.723 491.00
33.0272 456.00
33.3315 405.00
33.6357 479.00
33.94 435.00
34.2443 408.00
34.5485 403.00
34.8528 416.00
35.157 430.00
35.4613 440.00
35.7656 417.00
36.0698 449.00
36.3741 366.00
36.6783 387.00
36.9826 352.00
37.2869 383.00
37.5911 385.00
37.8954 337.00
38.1996 399.00
38.5039 370.00
38.8082 304.00
39.1124 338.00
39.4167 359.00
39.7209 351.00
40.0252 314.00
40.3295 327.00
40.6337 346.00
40.938 306.00
41.2422 320.00
41.5465 333.00
41.8508 352.00
42.155 294.00
42.4593 301.00
42.7635 280.00
43.0678 323.00
43.3721 286.00
43.6763 305.00
43.9806 297.00
44.2849 265.00
44.5891 282.00
44.8934 290.00
45.1976 261.00
45.5019 258.00
45.8062 276.00
46.1104 313.00
46.4147 266.00
46.7189 274.00
47.0232 280.00
47.3275 263.00
47.6317 299.00
47.936 287.00
48.2402 271.00
48.5445 248.00
48.8488 277.00
49.153 244.00
49.4573 271.00
49.7615 271.00
50.0658 292.00
50.3701 262.00
50.6743 247.00
50.9786 275.00
51.2828 263.00
51.5871 220.00
51.8914 245.00
52.1956 224.00
52.4999 271.00
52.8041 215.00
53.1084 206.00
53.4127 202.00
53.7169 207.00
54.0212 227.00
54.3254 249.00
54.6297 260.00
54.934 214.00
55.2382 203.00
55.5425 210.00
55.8467 227.00
56.151 218.00
56.4553 208.00
56.7595 200.00
57.0638 201.00
57.368 198.00
57.6723 206.00
57.9766 179.00
58.2808 202.00
58.5851 219.00
58.8893 170.00
59.1936 197.00
59.4979 217.00
59.8021 190.00
60.1064 202.00
60.4106 213.00
60.7149 203.00
61.0192 196.00
61.3234 186.00
61.6277 210.00
61.932 177.00
62.2362 167.00
62.5405 184.00
62.8447 172.00
63.149 194.00
63.4533 183.00
63.7575 192.00
64.0618 199.00
64.366 175.00
64.6703 198.00
64.9745 174.00
65.2788 183.00
65.5831 177.00
65.8873 162.00
66.1916 175.00
66.4959 187.00
66.8001 218.00
67.1044 187.00
67.4086 172.00
67.7129 176.00
68.0172 174.00
68.3214 193.00
68.6257 204.00
68.9299 175.00
69.2342 189.00
69.5385 181.00
69.8427 191.00
70.147 204.00
70.4512 178.00
70.7555 187.00
71.0598 198.00
71.364 171.00
71.6683 177.00
71.9725 185.00
72.2768 159.00
72.5811 156.00
72.8853 187.00
73.1896 185.00
73.4938 182.00
73.7981 182.00
74.1024 186.00
74.4066 197.00
74.7109 182.00
75.0151 188.00
75.3194 194.00
75.6237 203.00
75.9279 168.00
76.2322 185.00
76.5364 226.00
76.8407 194.00
77.145 181.00
77.4492 201.00
77.7535 208.00
78.0577 213.00
78.362 206.00
78.6663 219.00
78.9705 224.00
79.2748 212.00
79.579 208.00
79.8833 229.00
80.1876 221.00
80.4918 231.00
80.7961 224.00
81.1003 215.00
81.4046 203.00
81.7089 209.00
82.0131 191.00
82.3174 226.00
82.6217 196.00
82.9259 227.00
83.2302 209.00
83.5344 207.00
83.8387 209.00
84.143 208.00
84.4472 194.00
84.7515 239.00
85.0557 188.00
85.36 192.00
85.6643 190.00
85.9685 201.00
86.2728 163.00
86.577 181.00
86.8813 197.00
87.1856 176.00
87.4898 182.00
87.7941 182.00
88.0983 194.00
88.4026 200.00
88.7069 194.00
89.0111 186.00
89.3154 186.00
89.6196 174.00
89.9239 155.00
90.2282 169.00
90.5324 161.00
90.8367 179.00
91.1409 176.00
91.4452 172.00
91.7495 168.00
92.0537 182.00
92.358 183.00
92.6622 162.00
92.9665 162.00
93.2708 185.00
93.575 170.00
93.8793 165.00
94.1835 163.00
94.4878 183.00
94.7921 151.00
95.0963 163.00
95.4006 181.00
95.7048 156.00
96.0091 185.00
96.3134 189.00
96.6176 195.00
96.9219 171.00
97.2261 172.00
97.5304 190.00
97.8347 185.00
98.1389 184.00
98.4432 155.00
98.7474 181.00
99.0517 172.00
99.356 166.00
99.6602 182.00
99.9645 143.00
100.095 181.00

File: Na_33.xy
9.903433 2639.00
10.2077 2533.00
10.512 2385.00
10.8162 2263.00
11.1205 2170.00
11.4247 2077.00
11.729 1960.00
12.0333 1952.00
12.3375 1754.00
12.6418 1729.00
12.946 1684.00
13.2503 1599.00
13.5546 1579.00
13.8588 1485.00
14.1631 1421.00
14.4673 1475.00
14.7716 1366.00
15.0759 1385.00
15.3801 1308.00
15.6844 1286.00
15.9886 1282.00
16.2929 1279.00
16.5972 1209.00
16.9014 1115.00
17.2057 1213.00
17.5099 1155.00
17.8142 1036.00
18.1185 1114.00
18.4227 1053.00
18.727 1020.00
19.0312 1105.00
19.3355 1020.00
19.6398 959.00
19.944 918.00
20.2483 958.00
20.5525 955.00
20.8568 919.00
21.1611 874.00
21.4653 845.00
21.7696 884.00
22.0738 861.00
22.3781 798.00
22.6824 837.00
22.9866 787.00
23.2909 780.00
23.5951 822.00
23.8994 821.00
24.2037 780.00
24.5079 740.00
24.8122 681.00
25.1164 729.00
25.4207 770.00
25.725 779.00
26.0292 699.00
26.3335 652.00
26.6378 686.00
26.942 627.00
27.2463 672.00
27.5505 651.00
27.8548 629.00
28.1591 651.00
28.4633 591.00
28.7676 596.00
29.0718 587.00
29.3761 613.00
29.6804 591.00
29.9846 568.00
30.2889 585.00
30.5931 536.00
30.8974 515.00
31.2017 539.00
31.5059 572.00
31.8102 496.00
32.1144 516.00
32.4187 534.00
32.723 578.00
33.0272 476.00
33.3315 627.00
33.6357 537.00
33.94 446.00
34.2443 408.00
34.5485 419.00
34.8528 423.00
35.157 463.00
35.4613 426.00
35.7656 396.00
36.0698 424.00
36.3741 383.00
36.6783 444.00
36.9826 405.00
37.2869 391.00
37.5911 369.00
37.8954 335.00
38.1996 388.00
38.5039 320.00
38.8082 420.00
39.1124 372.00
39.4167 398.00
39.7209 355.00
40.0252 373.00
40.3295 309.00
40.6337 375.00
40.938 357.00
41.2422 295.00
41.5465 366.00
41.8508 299.00
42.155 333.00
42.4593 322.00
42.7635 333.00
43.0678 332.00
43.3721 356.00
43.6763 325.00
43.9806 353.00
44.2849 303.00
44.5891 241.00
44.8934 293.00
45.1976 284.00
45.5019 286.00
45.8062 291.00
46.1104 279.00
46.4147 298.00
46.7189 297.00
47.0232 286.00
47.3275 266.00
47.6317 319.00
47.936 270.00
48.2402 270.00
48.5445 311.00
48.8488 258.00
49.153 287.00
49.4573 296.00
49.7615 275.00
50.0658 275.00
50.3701 269.00
50.6743 262.00
50.9786 275.00
51.2828 235.00
51.5871 245.00
51.8914 271.00
52.1956 303.00
52.4999 257.00
52.8041 258.00
53.1084 238.00
53.4127 276.00
53.7169 283.00
54.0212 250.00
54.3254 270.00
54.6297 258.00
54.934 264.00
55.2382 272.00
55.5425 240.00
55.8467 277.00
56.151 225.00
56.4553 226.00
56.7595 220.00
57.0638 214.00
57.368 221.00
57.6723 201.00
57.9766 221.00
58.2808 213.00
58.5851 233.00
58.8893 208.00
59.1936 199.00
59.4979 207.00
59.8021 185.00
60.1064 195.00
60.4106 234.00
60.7149 212.00
61.0192 194.00
61.3234 187.00
61.6277 185.00
61.932 221.00
62.2362 216.00
62.5405 197.00
62.8447 222.00
63.149 219.00
63.4533 215.00
63.7575 213.00
64.0618 193.00
64.366 196.00
64.6703 208.00
64.9745 203.00
65.2788 209.00
65.5831 192.00
65.8873 203.00
66.1916 204.00
66.4959 172.00
66.8001 216.00
67.1044 189.00
67.4086 193.00
67.7129 178.00
68.0172 167.00
68.3214 204.00
68.6257 184.00
68.9299 190.00
69.2342 192.00
69.5385 194.00
69.8427 189.00
70.147 230.00
70.4512 208.00
70.7555 202.00
71.0598 193.00
71.364 189.00
71.6683 207.00
71.9725 204.00
72.2768 205.00
72.5811 221.00
72.8853 207.00
73.1896 216.00
73.4938 210.00
73.7981 203.00
74.1024 157.00
74.4066 205.00
74.7109 211.00
75.0151 200.00
75.3194 230.00
75.6237 185.00
75.9279 214.00
76.2322 207.00
76.5364 197.00
76.8407 190.00
77.145 213.00
77.4492 239.00
77.7535 187.00
78.0577 209.00
78.362 197.00
78.6663 214.00
78.9705 207.00
79.2748 194.00
79.579 247.00
79.8833 221.00
80.1876 231.00
80.4918 244.00
80.7961 231.00
81.1003 208.00
81.4046 243.00
81.7089 224.00
82.0131 221.00
82.3174 230.00
82.6217 222.00
82.9259 273.00
83.2302 205.00
83.5344 216.00
83.8387 220.00
84.143 229.00
84.4472 234.00
84.7515 205.00
85.0557 229.00
85.36 204.00
85.6643 245.00
85.9685 206.00
86.2728 227.00
86.577 216.00
86.8813 224.00
87.1856 201.00
87.4898 212.00
87.7941 206.00
88.0983 198.00
88.4026 185.00
88.7069 225.00
89.0111 202.00
89.3154 178.00
89.6196 200.00
89.9239 197.00
90.2282 201.00
90.5324 161.00
90.8367 207.00
91.1409 212.00
91.4452 176.00
91.7495 205.00
92.0537 181.00
92.358 184.00
92.6622 186.00
92.9665 204.00
93.2708 198.00
93.575 169.00
93.8793 207.00
94.1835 193.00
94.4878 195.00
94.7921 170.00
95.0963 182.00
95.4006 174.00
95.7048 194.00
96.0091 187.00
96.3134 195.00
96.6176 204.00
96.9219 178.00
97.2261 190.00
97.5304 186.00
97.8347 184.00
98.1389 181.00
98.4432 169.00
98.7474 194.00
99.0517 199.00
99.356 182.00
99.6602 174.00
99.9645 181.00
100.095 192.00

File: Na_34.xy
9.903433 3285.00
10.2077 3184.00
10.512 2963.00
10.8162 2965.00
11.1205 2959.00
11.4247 2784.00
11.729 2681.00
12.0333 2815.00
12.3375 2666.00
12.6418 2642.00
12.946 2562.00
13.2503 2466.00
13.5546 2495.00
13.8588 2407.00
14.1631 2448.00
14.4673 2452.00
14.7716 2376.00
15.0759 2256.00
15.3801 2297.00
15.6844 2288.00
15.9886 2316.00
16.2929 2226.00
16.5972 2122.00
16.9014 2270.00
17.2057 2185.00
17.5099 2165.00
17.8142 2098.00
18.1185 2125.00
18.4227 2127.00
18.727 2065.00
19.0312 2055.00
19.3355 2003.00
19.6398 1994.00
19.944 2081.00
20.2483 1963.00
20.5525 1981.00
20.8568 1898.00
21.1611 1972.00
21.4653 1902.00
21.7696 1938.00
22.0738 1968.00
22.3781 2093.00
22.6824 2026.00
22.9866 2289.00
23.2909 2123.00
23.5951 2384.00
23.8994 2825.00
24.2037 2459.00
24.5079 2600.00
24.8122 2931.00
25.1164 3109.00
25.4207 3435.00
25.725 3592.00
26.0292 4247.00
26.3335 5075.00
26.6378 2958.00
26.942 2511.00
27.2463 2368.00
27.5505 2514.00
27.8548 4720.00
28.1591 1929.00
28.4633 1835.00
28.7676 1737.00
29.0718 1839.00
29.3761 1901.00
29.6804 1800.00
29.9846 2896.00
30.2889 11063.00
30.5931 3198.00
30.8974 1916.00
31.2017 1914.00
31.5059 1774.00
31.8102 1865.00
32.1144 1834.00
32.4187 1650.00
32.723 1643.00
33.0272 2400.00
33.3315 3897.00
33.6357 1620.00
33.94 2083.00
34.2443 3798.00
34.5485 6121.00
34.8528 5111.00
35.157 3527.00
35.4613 10468.00
35.7656 1770.00
36.0698 1552.00
36.3741 1374.00
36.6783 1521.00
36.9826 1882.00
37.2869 1616.00
37.5911 1984.00
37.8954 4221.00
38.1996 14740.00
38.5039 2992.00
38.8082 2187.00
39.1124 1544.00
39.4167 1538.00
39.7209 1674.00
40.0252 5458.00
40.3295 4935.00
40.6337 1487.00
40.938 1680.00
41.2422 4209.00
41.5465 5293.00
41.8508 3810.00
42.155 1570.00
42.4593 1768.00
42.7635 1928.00
43.0678 1759.00
43.3721 1703.00
43.6763 1514.00
43.9806 1471.00
44.2849 1623.00
44.5891 2371.00
44.8934 1998.00
45.1976 1361.00
45.5019 1333.00
45.8062 1255.00
46.1104 1300.00
46.4147 2417.00
46.7189 4304.00
47.0232 1807.00
47.3275 1984.00
47.6317 1237.00
47.936 1345.00
48.2402 2693.00
48.5445 4075.00
48.8488 1149.00
49.153 1059.00
49.4573 1419.00
49.7615 1089.00
50.0658 1002.00
50.3701 958.00
50.6743 1090.00
50.9786 1429.00
51.2828 1172.00
51.5871 1009.00
51.8914 913.00
52.1956 971.00
52.4999 1066.00
52.8041 1231.00
53.1084 1165.00
53.4127 1546.00
53.7169 2742.00
54.0212 1558.00
54.3254 1159.00
54.6297 1986.00
54.934 2138.00
55.2382 1053.00
55.5425 1377.00
55.8467 1070.00
56.151 1103.00
56.4553 1852.00
56.7595 1166.00
57.0638 1198.00
57.368 1301.00
57.6723 852.00
57.9766 928.00
58.2808 1108.00
58.5851 1669.00
58.8893 1532.00
59.1936 1805.00
59.4979 1021.00
59.8021 864.00
60.1064 754.00
60.4106 912.00
60.7149 1398.00
61.0192 1170.00
61.3234 746.00
61.6277 764.00
61.932 1115.00
62.2362 1352.00
62.5405 1246.00
62.8447 2032.00
63.149 946.00
63.4533 766.00
63.7575 961.00
64.0618 1416.00
64.366 892.00
64.6703 676.00
64.9745 727.00
65.2788 727.00
65.5831 678.00
65.8873 699.00
66.1916 715.00
66.4959 638.00
66.8001 585.00
67.1044 652.00
67.4086 953.00
67.7129 1037.00
68.0172 709.00
68.3214 635.00
68.6257 556.00
68.9299 606.00
69.2342 582.00
69.5385 643.00
69.8427 669.00
70.147 846.00
70.4512 624.00
70.7555 545.00
71.0598 567.00
71.364 578.00
71.6683 652.00
71.9725 833.00
72.2768 886.00
72.5811 764.00
72.8853 560.00
73.1896 684.00
73.4938 867.00
73.7981 729.00
74.1024 603.00
74.4066 701.00
74.7109 1072.00
75.0151 637.00
75.3194 520.00
75.6237 608.00
75.9279 594.00
76.2322 666.00
76.5364 650.00
76.8407 587.00
77.145 533.00
77.4492 576.00
77.7535 629.00
78.0577 711.00
78.362 674.00
78.6663 616.00
78.9705 696.00
79.2748 775.00
79.579 857.00
79.8833 820.00
80.1876 987.00
80.4918 1370.00
80.7961 941.00
81.1003 627.00
81.4046 581.00
81.7089 646.00
82.0131 649.00
82.3174 632.00
82.6217 653.00
82.9259 632.00
83.2302 588.00
83.5344 766.00
83.8387 670.00
84.143 631.00
84.4472 653.00
84.7515 634.00
85.0557 679.00
85.36 627.00
85.6643 617.00
85.9685 617.00
86.2728 634.00
86.577 556.00
86.8813 533.00
87.1856 535.00
87.4898 588.00
87.7941 644.00
88.0983 568.00
88.4026 564.00
88.7069 495.00
89.0111 531.00
89.3154 659.00
89.6196 663.00
89.9239 649.00
90.2282 668.00
90.5324 607.00
90.8367 539.00
91.1409 561.00
91.4452 600.00
91.7495 568.00
92.0537 560.00
92.358 487.00
92.6622 469.00
92.9665 535.00
93.2708 779.00
93.575 718.00
93.8793 748.00
94.1835 674.00
94.4878 520.00
94.7921 543.00
95.0963 534.00
95.4006 592.00
95.7048 600.00
96.0091 543.00
96.3134 568.00
96.6176 521.00
96.9219 530.00
97.2261 493.00
97.5304 524.00
97.8347 480.00
98.1389 550.00
98.4432 585.00
98.7474 577.00
99.0517 633.00
99.356 798.00
99.6602 619.00
99.9645 524.00
100.095 552.00

File: Na_35.xy
9.903433 2561.00
10.2077 2408.00
10.512 2368.00
10.8162 2243.00
11.1205 2261.00
11.4247 2060.00
11.729 1984.00
12.0333 1902.00
12.3375 1901.00
12.6418 1775.00
12.946 1674.00
13.2503 1601.00
13.5546 1512.00
13.8588 1477.00
14.1631 1518.00
14.4673 1455.00
14.7716 1377.00
15.0759 1371.00
15.3801 1346.00
15.6844 1351.00
15.9886 1302.00
16.2929 1192.00
16.5972 1241.00
16.9014 1216.00
17.2057 1193.00
17.5099 1228.00
17.8142 1111.00
18.1185 1108.00
18.4227 1052.00
18.727 1103.00
19.0312 944.00
19.3355 1021.00
19.6398 952.00
19.944 931.00
20.2483 935.00
20.5525 930.00
20.8568 845.00
21.1611 829.00
21.4653 858.00
21.7696 866.00
22.0738 878.00
22.3781 867.00
22.6824 803.00
22.9866 772.00
23.2909 802.00
23.5951 767.00
23.8994 738.00
24.2037 700.00
24.5079 770.00
24.8122 765.00
25.1164 757.00
25.4207 681.00
25.725 735.00
26.0292 679.00
26.3335 632.00
26.6378 648.00
26.942 586.00
27.2463 699.00
27.5505 616.00
27.8548 624.00
28.1591 679.00
28.4633 644.00
28.7676 606.00
29.0718 643.00
29.3761 601.00
29.6804 596.00
29.9846 585.00
30.2889 579.00
30.5931 591.00
30.8974 514.00
31.2017 570.00
31.5059 604.00
31.8102 558.00
32.1144 529.00
32.4187 510.00
32.723 543.00
33.0272 500.00
33.3315 476.00
33.6357 458.00
33.94 507.00
34.2443 464.00
34.5485 435.00
34.8528 425.00
35.157 456.00
35.4613 406.00
35.7656 385.00
36.0698 427.00
36.3741 415.00
36.6783 429.00
36.9826 424.00
37.2869 418.00
37.5911 408.00
37.8954 400.00
38.1996 368.00
38.5039 325.00
38.8082 351.00
39.1124 364.00
39.4167 338.00
39.7209 329.00
40.0252 395.00
40.3295 357.00
40.6337 340.00
40.938 364.00
41.2422 359.00
41.5465 347.00
41.8508 337.00
42.155 330.00
42.4593 317.00
42.7635 310.00
43.0678 314.00
43.3721 313.00
43.6763 286.00
43.9806 323.00
44.2849 304.00
44.5891 282.00
44.8934 309.00
45.1976 296.00
45.5019 340.00
45.8062 303.00
46.1104 303.00
46.4147 312.00
46.7189 311.00
47.0232 279.00
47.3275 292.00
47.6317 275.00
47.936 303.00
48.2402 302.00
48.5445 357.00
48.8488 323.00
49.153 303.00
49.4573 276.00
49.7615 262.00
50.0658 269.00
50.3701 286.00
50.6743 246.00
50.9786 241.00
51.2828 260.00
51.5871 265.00
51.8914 242.00
52.1956 267.00
52.4999 261.00
52.8041 261.00
53.1084 236.00
53.4127 223.00
53.7169 237.00
54.0212 256.00
54.3254 246.00
54.6297 238.00
54.934 262.00
55.2382 257.00
55.5425 202.00
55.8467 248.00
56.151 241.00
56.4553 237.00
56.7595 226.00
57.0638 221.00
57.368 272.00
57.6723 248.00
57.9766 241.00
58.2808 203.00
58.5851 198.00
58.8893 239.00
59.1936 249.00
59.4979 194.00
59.8021 213.00
60.1064 208.00
60.4106 201.00
60.7149 262.00
61.0192 195.00
61.3234 186.00
61.6277 179.00
61.932 175.00
62.2362 192.00
62.5405 184.00
62.8447 194.00
63.149 208.00
63.4533 195.00
63.7575 217.00
64.0618 206.00
64.366 182.00
64.6703 172.00
64.9745 205.00
65.2788 178.00
65.5831 167.00
65.8873 199.00
66.1916 195.00
66.4959 168.00
66.8001 196.00
67.1044 193.00
67.4086 177.00
67.7129 195.00
68.0172 185.00
68.3214 184.00
68.6257 209.00
68.9299 220.00
69.2342 168.00
69.5385 186.00
69.8427 202.00
70.147 202.00
70.4512 219.00
70.7555 185.00
71.0598 214.00
71.364 215.00
71.6683 228.00
71.9725 212.00
72.2768 187.00
72.5811 180.00
72.8853 184.00
73.1896 207.00
73.4938 186.00
73.7981 211.00
74.1024 206.00
74.4066 205.00
74.7109 205.00
75.0151 194.00
75.3194 204.00
75.6237 224.00
75.9279 199.00
76.2322 186.00
76.5364 217.00
76.8407 221.00
77.145 231.00
77.4492 198.00
77.7535 186.00
78.0577 209.00
78.362 208.00
78.6663 221.00
78.9705 227.00
79.2748 210.00
79.579 216.00
79.8833 231.00
80.1876 214.00
80.4918 232.00
80.7961 218.00
81.1003 209.00
81.4046 242.00
81.7089 290.00
82.0131 226.00
82.3174 204.00
82.6217 231.00
82.9259 216.00
83.2302 222.00
83.5344 226.00
83.8387 198.00
84.143 202.00
84.4472 218.00
84.7515 260.00
85.0557 220.00
85.36 207.00
85.6643 209.00
85.9685 192.00
86.2728 209.00
86.577 227.00
86.8813 203.00
87.1856 196.00
87.4898 225.00
87.7941 225.00
88.0983 199.00
88.4026 172.00
88.7069 202.00
89.0111 189.00
89.3154 211.00
89.6196 193.00
89.9239 193.00
90.2282 223.00
90.5324 211.00
90.8367 191.00
91.1409 207.00
91.4452 187.00
91.7495 205.00
92.0537 195.00
92.358 199.00
92.6622 188.00
92.9665 178.00
93.2708 176.00
93.575 205.00
93.8793 211.00
94.1835 179.00
94.4878 184.00
94.7921 195.00
95.0963 182.00
95.4006 199.00
95.7048 204.00
96.0091 186.00
96.3134 191.00
96.6176 174.00
96.9219 174.00
97.2261 185.00
97.5304 217.00
97.8347 162.00
98.1389 183.00
98.4432 205.00
98.7474 210.00
99.0517 187.00
99.356 166.00
99.6602 171.00
99.9645 162.00
100.095 188.00