Folder: alab-pipeline/data/xrd_creation/results (part 73)

File: NSC_207.xy
9.903433 3098.00
10.2077 2872.00
10.512 2804.00
10.8162 2777.00
11.1205 2768.00
11.4247 2780.00
11.729 2657.00
12.0333 2625.00
12.3375 2554.00
12.6418 2413.00
12.946 2398.00
13.2503 2436.00
13.5546 2318.00
13.8588 2324.00
14.1631 2278.00
14.4673 2218.00
14.7716 2149.00
15.0759 2219.00
15.3801 2237.00
15.6844 2042.00
15.9886 2139.00
16.2929 2076.00
16.5972 2180.00
16.9014 2112.00
17.2057 2136.00
17.5099 2116.00
17.8142 3314.00
18.1185 2092.00
18.4227 2065.00
18.727 1966.00
19.0312 2084.00
19.3355 1992.00
19.6398 2013.00
19.944 1968.00
20.2483 2513.00
20.5525 2242.00
20.8568 2116.00
21.1611 2108.00
21.4653 1993.00
21.7696 1847.00
22.0738 1855.00
22.3781 1843.00
22.6824 1876.00
22.9866 1847.00
23.2909 1881.00
23.5951 1801.00
23.8994 1881.00
24.2037 2559.00
24.5079 5532.00
24.8122 4210.00
25.1164 2152.00
25.4207 1793.00
25.725 1765.00
26.0292 1692.00
26.3335 1666.00
26.6378 2073.00
26.942 1791.00
27.2463 1725.00
27.5505 1810.00
27.8548 2152.00
28.1591 2979.00
28.4633 13889.00
28.7676 11046.00
29.0718 2711.00
29.3761 2044.00
29.6804 1816.00
29.9846 1780.00
30.2889 1797.00
30.5931 1746.00
30.8974 1793.00
31.2017 2088.00
31.5059 2972.00
31.8102 11665.00
32.1144 6692.00
32.4187 2244.00
32.723 1872.00
33.0272 2277.00
33.3315 2080.00
33.6357 1902.00
33.94 1827.00
34.2443 2484.00
34.5485 6554.00
34.8528 5912.00
35.157 2286.00
35.4613 2259.00
35.7656 5752.00
36.0698 2145.00
36.3741 2725.00
36.6783 1529.00
36.9826 1355.00
37.2869 1350.00
37.5911 1347.00
37.8954 1346.00
38.1996 1378.00
38.5039 1385.00
38.8082 1955.00
39.1124 2857.00
39.4167 1532.00
39.7209 1351.00
40.0252 1336.00
40.3295 1461.00
40.6337 1451.00
40.938 2084.00
41.2422 3768.00
41.5465 2361.00
41.8508 2291.00
42.155 1424.00
42.4593 1257.00
42.7635 1174.00
43.0678 1228.00
43.3721 1132.00
43.6763 1112.00
43.9806 1277.00
44.2849 1231.00
44.5891 1174.00
44.8934 1388.00
45.1976 1844.00
45.5019 1856.00
45.8062 1843.00
46.1104 2236.00
46.4147 1253.00
46.7189 1153.00
47.0232 1139.00
47.3275 1169.00
47.6317 1331.00
47.936 1209.00
48.2402 1162.00
48.5445 1278.00
48.8488 1223.00
49.153 1472.00
49.4573 2303.00
49.7615 3987.00
50.0658 2286.00
50.3701 3084.00
50.6743 5472.00
50.9786 3036.00
51.2828 2660.00
51.5871 1725.00
51.8914 1824.00
52.1956 1182.00
52.4999 1144.00
52.8041 1124.00
53.1084 1083.00
53.4127 1087.00
53.7169 1206.00
54.0212 1291.00
54.3254 1846.00
54.6297 2771.00
54.934 1996.00
55.2382 1605.00
55.5425 2018.00
55.8467 3486.00
56.151 3911.00
56.4553 2681.00
56.7595 1929.00
57.0638 1315.00
57.368 1640.00
57.6723 2054.00
57.9766 2100.00
58.2808 1647.00
58.5851 2308.00
58.8893 1945.00
59.1936 1449.00
59.4979 1343.00
59.8021 1417.00
60.1064 1866.00
60.4106 3075.00
60.7149 2459.00
61.0192 1391.00
61.3234 1271.00
61.6277 1567.00
61.932 2202.00
62.2362 2156.00
62.5405 2410.00
62.8447 1842.00
63.149 2037.00
63.4533 2541.00
63.7575 1795.00
64.0618 1097.00
64.366 1164.00
64.6703 1415.00
64.9745 1580.00
65.2788 1284.00
65.5831 1444.00
65.8873 1698.00
66.1916 2108.00
66.4959 2213.00
66.8001 1395.00
67.1044 1106.00
67.4086 981.00
67.7129 976.00
68.0172 1010.00
68.3214 1036.00
68.6257 930.00
68.9299 980.00
69.2342 1186.00
69.5385 1223.00
69.8427 1364.00
70.147 1120.00
70.4512 1184.00
70.7555 1047.00
71.0598 1054.00
71.364 1297.00
71.6683 1585.00
71.9725 1873.00
72.2768 1349.00
72.5811 1298.00
72.8853 1477.00
73.1896 1248.00
73.4938 1194.00
73.7981 984.00
74.1024 1049.00
74.4066 1036.00
74.7109 1027.00
75.0151 1083.00
75.3194 1423.00
75.6237 1476.00
75.9279 1664.00
76.2322 1173.00
76.5364 1193.00
76.8407 1151.00
77.145 1412.00
77.4492 1287.00
77.7535 1181.00
78.0577 1263.00
78.362 1229.00
78.6663 1141.00
78.9705 1206.00
79.2748 1129.00
79.579 1357.00
79.8833 1108.00
80.1876 978.00
80.4918 982.00
80.7961 1005.00
81.1003 995.00
81.4046 1122.00
81.7089 1148.00
82.0131 1192.00
82.3174 1438.00
82.6217 1276.00
82.9259 1258.00
83.2302 1245.00
83.5344 1440.00
83.8387 1568.00
84.143 1542.00
84.4472 1404.00
84.7515 1533.00
85.0557 1471.00
85.36 1149.00
85.6643 1205.00
85.9685 1226.00
86.2728 1096.00
86.577 1100.00
86.8813 1181.00
87.1856 1110.00
87.4898 1036.00
87.7941 1126.00
88.0983 1136.00
88.4026 1387.00
88.7069 1342.00
89.0111 1463.00
89.3154 1531.00
89.6196 1341.00
89.9239 1298.00
90.2282 1342.00
90.5324 1403.00
90.8367 1429.00
91.1409 1043.00
91.4452 1125.00
91.7495 1129.00
92.0537 1065.00
92.358 1058.00
92.6622 1011.00
92.9665 996.00
93.2708 950.00
93.575 934.00
93.8793 1029.00
94.1835 1072.00
94.4878 1034.00
94.7921 1206.00
95.0963 1126.00
95.4006 1188.00
95.7048 1263.00
96.0091 1351.00
96.3134 1315.00
96.6176 1253.00
96.9219 1349.00
97.2261 1436.00
97.5304 1596.00
97.8347 1628.00
98.1389 1280.00
98.4432 1175.00
98.7474 1226.00
99.0517 1382.00
99.356 1317.00
99.6602 1471.00
99.9645 1308.00
100.095 1346.00

File: NSC_208.xy
9.903433 2955.00
10.2077 2977.00
10.512 2813.00
10.8162 2764.00
11.1205 2732.00
11.4247 2647.00
11.729 2602.00
12.0333 2454.00
12.3375 2447.00
12.6418 2455.00
12.946 2370.00
13.2503 2366.00
13.5546 2292.00
13.8588 2158.00
14.1631 2175.00
14.4673 2195.00
14.7716 2203.00
15.0759 2255.00
15.3801 2062.00
15.6844 2137.00
15.9886 2094.00
16.2929 2017.00
16.5972 2001.00
16.9014 2072.00
17.2057 2054.00
17.5099 2127.00
17.8142 2959.00
18.1185 2124.00
18.4227 1987.00
18.727 1977.00
19.0312 1987.00
19.3355 1967.00
19.6398 1936.00
19.944 1930.00
20.2483 2292.00
20.5525 2391.00
20.8568 2246.00
21.1611 2259.00
21.4653 1978.00
21.7696 1901.00
22.0738 1990.00
22.3781 1944.00
22.6824 1956.00
22.9866 2000.00
23.2909 1839.00
23.5951 1953.00
23.8994 2009.00
24.2037 2599.00
24.5079 4752.00
24.8122 3746.00
25.1164 2103.00
25.4207 1789.00
25.725 1711.00
26.0292 1720.00
26.3335 1752.00
26.6378 1936.00
26.942 1728.00
27.2463 1756.00
27.5505 1782.00
27.8548 2061.00
28.1591 2874.00
28.4633 13314.00
28.7676 9345.00
29.0718 2443.00
29.3761 2093.00
29.6804 1820.00
29.9846 1778.00
30.2889 1800.00
30.5931 1808.00
30.8974 1867.00
31.2017 2156.00
31.5059 3267.00
31.8102 11363.00
32.1144 5880.00
32.4187 2091.00
32.723 1808.00
33.0272 2026.00
33.3315 2031.00
33.6357 1977.00
33.94 1867.00
34.2443 2626.00
34.5485 5982.00
34.8528 5122.00
35.157 2166.00
35.4613 2447.00
35.7656 4470.00
36.0698 1952.00
36.3741 2407.00
36.6783 1507.00
36.9826 1469.00
37.2869 1421.00
37.5911 1369.00
37.8954 1321.00
38.1996 1471.00
38.5039 1395.00
38.8082 1952.00
39.1124 2539.00
39.4167 1504.00
39.7209 1435.00
40.0252 1331.00
40.3295 1550.00
40.6337 1485.00
40.938 2130.00
41.2422 3156.00
41.5465 2247.00
41.8508 2120.00
42.155 1373.00
42.4593 1323.00
42.7635 1307.00
43.0678 1243.00
43.3721 1304.00
43.6763 1195.00
43.9806 1270.00
44.2849 1270.00
44.5891 1241.00
44.8934 1406.00
45.1976 1708.00
45.5019 1721.00
45.8062 1784.00
46.1104 1911.00
46.4147 1244.00
46.7189 1208.00
47.0232 1161.00
47.3275 1281.00
47.6317 1269.00
47.936 1243.00
48.2402 1228.00
48.5445 1376.00
48.8488 1225.00
49.153 1498.00
49.4573 2431.00
49.7615 3341.00
50.0658 2080.00
50.3701 3115.00
50.6743 4508.00
50.9786 2819.00
51.2828 2332.00
51.5871 1780.00
51.8914 1679.00
52.1956 1245.00
52.4999 1271.00
52.8041 1454.00
53.1084 1263.00
53.4127 1179.00
53.7169 1144.00
54.0212 1320.00
54.3254 2033.00
54.6297 2319.00
54.934 1867.00
55.2382 1428.00
55.5425 2020.00
55.8467 3050.00
56.151 3413.00
56.4553 2294.00
56.7595 1636.00
57.0638 1235.00
57.368 1653.00
57.6723 1891.00
57.9766 1839.00
58.2808 1676.00
58.5851 2154.00
58.8893 1750.00
59.1936 1299.00
59.4979 1337.00
59.8021 1310.00
60.1064 1926.00
60.4106 2538.00
60.7149 2112.00
61.0192 1384.00
61.3234 1282.00
61.6277 1659.00
61.932 1945.00
62.2362 2097.00
62.5405 2166.00
62.8447 1755.00
63.149 1976.00
63.4533 2048.00
63.7575 1560.00
64.0618 1174.00
64.366 1301.00
64.6703 1364.00
64.9745 1516.00
65.2788 1168.00
65.5831 1407.00
65.8873 1707.00
66.1916 1889.00
66.4959 1915.00
66.8001 1221.00
67.1044 1069.00
67.4086 996.00
67.7129 1038.00
68.0172 975.00
68.3214 1031.00
68.6257 952.00
68.9299 970.00
69.2342 1160.00
69.5385 1251.00
69.8427 1235.00
70.147 1136.00
70.4512 1137.00
70.7555 1077.00
71.0598 982.00
71.364 1249.00
71.6683 1450.00
71.9725 1640.00
72.2768 1269.00
72.5811 1262.00
72.8853 1296.00
73.1896 1229.00
73.4938 1127.00
73.7981 1027.00
74.1024 954.00
74.4066 980.00
74.7109 1050.00
75.0151 1058.00
75.3194 1437.00
75.6237 1407.00
75.9279 1493.00
76.2322 1100.00
76.5364 1108.00
76.8407 1092.00
77.145 1211.00
77.4492 1136.00
77.7535 1146.00
78.0577 1224.00
78.362 1145.00
78.6663 1080.00
78.9705 1237.00
79.2748 1134.00
79.579 1260.00
79.8833 1139.00
80.1876 992.00
80.4918 1005.00
80.7961 1043.00
81.1003 1009.00
81.4046 1066.00
81.7089 1075.00
82.0131 1176.00
82.3174 1220.00
82.6217 1225.00
82.9259 1168.00
83.2302 1217.00
83.5344 1334.00
83.8387 1352.00
84.143 1363.00
84.4472 1361.00
84.7515 1362.00
85.0557 1280.00
85.36 1071.00
85.6643 1093.00
85.9685 1122.00
86.2728 1000.00
86.577 1080.00
86.8813 1122.00
87.1856 992.00
87.4898 1024.00
87.7941 1070.00
88.0983 1115.00
88.4026 1252.00
88.7069 1302.00
89.0111 1415.00
89.3154 1313.00
89.6196 1257.00
89.9239 1165.00
90.2282 1196.00
90.5324 1206.00
90.8367 1159.00
91.1409 1017.00
91.4452 1047.00
91.7495 940.00
92.0537 1055.00
92.358 1025.00
92.6622 926.00
92.9665 863.00
93.2708 929.00
93.575 939.00
93.8793 1039.00
94.1835 1030.00
94.4878 1064.00
94.7921 1096.00
95.0963 1004.00
95.4006 1104.00
95.7048 1193.00
96.0091 1265.00
96.3134 1164.00
96.6176 1240.00
96.9219 1291.00
97.2261 1319.00
97.5304 1441.00
97.8347 1376.00
98.1389 1240.00
98.4432 1071.00
98.7474 1180.00
99.0517 1254.00
99.356 1270.00
99.6602 1319.00
99.9645 1241.00
100.095 1254.00

File: NSC_209.xy
9.903433 2920.00
10.2077 3084.00
10.512 2800.00
10.8162 2805.00
11.1205 2620.00
11.4247 2621.00
11.729 2607.00
12.0333 2519.00
12.3375 2361.00
12.6418 2430.00
12.946 2300.00
13.2503 2232.00
13.5546 2289.00
13.8588 2220.00
14.1631 2292.00
14.4673 2255.00
14.7716 2097.00
15.0759 2143.00
15.3801 2216.00
15.6844 2142.00
15.9886 2154.00
16.2929 2143.00
16.5972 1985.00
16.9014 2083.00
17.2057 2153.00
17.5099 2216.00
17.8142 3046.00
18.1185 2097.00
18.4227 2032.00
18.727 1874.00
19.0312 2026.00
19.3355 2007.00
19.6398 2010.00
19.944 2027.00
20.2483 2328.00
20.5525 2319.00
20.8568 2203.00
21.1611 2373.00
21.4653 2043.00
21.7696 1892.00
22.0738 1895.00
22.3781 1955.00
22.6824 1821.00
22.9866 1873.00
23.2909 1927.00
23.5951 1873.00
23.8994 1991.00
24.2037 2524.00
24.5079 5311.00
24.8122 3903.00
25.1164 2159.00
25.4207 1923.00
25.725 1813.00
26.0292 1773.00
26.3335 1731.00
26.6378 1872.00
26.942 1712.00
27.2463 1733.00
27.5505 1802.00
27.8548 2102.00
28.1591 2939.00
28.4633 13321.00
28.7676 10856.00
29.0718 2675.00
29.3761 2053.00
29.6804 1877.00
29.9846 1778.00
30.2889 1773.00
30.5931 1817.00
30.8974 1888.00
31.2017 2144.00
31.5059 3193.00
31.8102 11596.00
32.1144 6687.00
32.4187 2145.00
32.723 1843.00
33.0272 2066.00
33.3315 2040.00
33.6357 2042.00
33.94 1832.00
34.2443 2544.00
34.5485 6291.00
34.8528 5725.00
35.157 2233.00
35.4613 2357.00
35.7656 5137.00
36.0698 2073.00
36.3741 2569.00
36.6783 1543.00
36.9826 1421.00
37.2869 1330.00
37.5911 1373.00
37.8954 1378.00
38.1996 1393.00
38.5039 1372.00
38.8082 1971.00
39.1124 2821.00
39.4167 1416.00
39.7209 1469.00
40.0252 1363.00
40.3295 1440.00
40.6337 1474.00
40.938 2069.00
41.2422 3452.00
41.5465 2381.00
41.8508 2296.00
42.155 1416.00
42.4593 1275.00
42.7635 1264.00
43.0678 1242.00
43.3721 1247.00
43.6763 1225.00
43.9806 1225.00
44.2849 1173.00
44.5891 1204.00
44.8934 1383.00
45.1976 1857.00
45.5019 1729.00
45.8062 1815.00
46.1104 2168.00
46.4147 1322.00
46.7189 1150.00
47.0232 1181.00
47.3275 1240.00
47.6317 1243.00
47.936 1136.00
48.2402 1131.00
48.5445 1306.00
48.8488 1125.00
49.153 1494.00
49.4573 2355.00
49.7615 3601.00
50.0658 2212.00
50.3701 2932.00
50.6743 4939.00
50.9786 3014.00
51.2828 2553.00
51.5871 1776.00
51.8914 1834.00
52.1956 1246.00
52.4999 1275.00
52.8041 1289.00
53.1084 1173.00
53.4127 1099.00
53.7169 1242.00
54.0212 1367.00
54.3254 1968.00
54.6297 2495.00
54.934 2013.00
55.2382 1560.00
55.5425 1933.00
55.8467 3230.00
56.151 3853.00
56.4553 2492.00
56.7595 1864.00
57.0638 1255.00
57.368 1675.00
57.6723 1927.00
57.9766 1931.00
58.2808 1641.00
58.5851 2253.00
58.8893 1829.00
59.1936 1367.00
59.4979 1298.00
59.8021 1395.00
60.1064 1964.00
60.4106 2778.00
60.7149 2440.00
61.0192 1444.00
61.3234 1366.00
61.6277 1615.00
61.932 2074.00
62.2362 2220.00
62.5405 2311.00
62.8447 1795.00
63.149 1971.00
63.4533 2286.00
63.7575 1746.00
64.0618 1205.00
64.366 1273.00
64.6703 1526.00
64.9745 1572.00
65.2788 1203.00
65.5831 1427.00
65.8873 1723.00
66.1916 1981.00
66.4959 2069.00
66.8001 1303.00
67.1044 1052.00
67.4086 1066.00
67.7129 1000.00
68.0172 1005.00
68.3214 985.00
68.6257 960.00
68.9299 1043.00
69.2342 1173.00
69.5385 1284.00
69.8427 1297.00
70.147 1129.00
70.4512 1177.00
70.7555 1131.00
71.0598 1088.00
71.364 1349.00
71.6683 1539.00
71.9725 1953.00
72.2768 1330.00
72.5811 1233.00
72.8853 1352.00
73.1896 1230.00
73.4938 1125.00
73.7981 1045.00
74.1024 1104.00
74.4066 969.00
74.7109 1083.00
75.0151 1200.00
75.3194 1495.00
75.6237 1389.00
75.9279 1544.00
76.2322 1149.00
76.5364 1063.00
76.8407 1130.00
77.145 1217.00
77.4492 1217.00
77.7535 1188.00
78.0577 1272.00
78.362 1198.00
78.6663 1161.00
78.9705 1167.00
79.2748 1185.00
79.579 1293.00
79.8833 1251.00
80.1876 1077.00
80.4918 1047.00
80.7961 1022.00
81.1003 1009.00
81.4046 1107.00
81.7089 1051.00
82.0131 1131.00
82.3174 1320.00
82.6217 1232.00
82.9259 1223.00
83.2302 1307.00
83.5344 1456.00
83.8387 1370.00
84.143 1544.00
84.4472 1284.00
84.7515 1449.00
85.0557 1387.00
85.36 1209.00
85.6643 1216.00
85.9685 1128.00
86.2728 1010.00
86.577 1080.00
86.8813 1193.00
87.1856 1038.00
87.4898 1039.00
87.7941 1109.00
88.0983 1133.00
88.4026 1397.00
88.7069 1358.00
89.0111 1433.00
89.3154 1430.00
89.6196 1263.00
89.9239 1221.00
90.2282 1277.00
90.5324 1331.00
90.8367 1288.00
91.1409 1084.00
91.4452 1041.00
91.7495 1014.00
92.0537 1045.00
92.358 1038.00
92.6622 982.00
92.9665 923.00
93.2708 976.00
93.575 922.00
93.8793 1010.00
94.1835 1066.00
94.4878 1014.00
94.7921 1151.00
95.0963 1104.00
95.4006 1151.00
95.7048 1270.00
96.0091 1321.00
96.3134 1289.00
96.6176 1253.00
96.9219 1369.00
97.2261 1400.00
97.5304 1563.00
97.8347 1450.00
98.1389 1308.00
98.4432 1132.00
98.7474 1153.00
99.0517 1324.00
99.356 1212.00
99.6602 1393.00
99.9645 1347.00
100.095 1402.00

File: NSC_210.xy
9.903433 3107.00
10.2077 2977.00
10.512 2948.00
10.8162 2815.00
11.1205 2852.00
11.4247 2673.00
11.729 2597.00
12.0333 2540.00
12.3375 2491.00
12.6418 2538.00
12.946 2466.00
13.2503 2475.00
13.5546 2308.00
13.8588 2362.00
14.1631 2295.00
14.4673 2161.00
14.7716 2224.00
15.0759 2273.00
15.3801 2188.00
15.6844 2231.00
15.9886 2142.00
16.2929 2171.00
16.5972 2104.00
16.9014 2074.00
17.2057 2127.00
17.5099 2255.00
17.8142 2698.00
18.1185 2071.00
18.4227 2044.00
18.727 2026.00
19.0312 2041.00
19.3355 2088.00
19.6398 2063.00
19.944 1934.00
20.2483 2599.00
20.5525 2475.00
20.8568 2317.00
21.1611 2307.00
21.4653 1985.00
21.7696 2437.00
22.0738 2036.00
22.3781 1972.00
22.6824 1899.00
22.9866 1908.00
23.2909 1882.00
23.5951 1978.00
23.8994 2039.00
24.2037 2593.00
24.5079 3804.00
24.8122 3306.00
25.1164 2022.00
25.4207 2135.00
25.725 2590.00
26.0292 1825.00
26.3335 1794.00
26.6378 2007.00
26.942 1789.00
27.2463 1754.00
27.5505 1895.00
27.8548 2102.00
28.1591 2732.00
28.4633 12703.00
28.7676 5781.00
29.0718 2310.00
29.3761 1847.00
29.6804 1774.00
29.9846 1780.00
30.2889 1850.00
30.5931 2025.00
30.8974 6240.00
31.2017 2124.00
31.5059 3035.00
31.8102 9827.00
32.1144 4087.00
32.4187 1945.00
32.723 1743.00
33.0272 2170.00
33.3315 2292.00
33.6357 1979.00
33.94 1846.00
34.2443 2572.00
34.5485 5227.00
34.8528 3860.00
35.157 1991.00
35.4613 2492.00
35.7656 4688.00
36.0698 1864.00
36.3741 1929.00
36.6783 1409.00
36.9826 1450.00
37.2869 1449.00
37.5911 1372.00
37.8954 1555.00
38.1996 1756.00
38.5039 1377.00
38.8082 2195.00
39.1124 2091.00
39.4167 1381.00
39.7209 1444.00
40.0252 1325.00
40.3295 1497.00
40.6337 1459.00
40.938 2106.00
41.2422 2475.00
41.5465 2163.00
41.8508 1876.00
42.155 1468.00
42.4593 1258.00
42.7635 1242.00
43.0678 1278.00
43.3721 1221.00
43.6763 1208.00
43.9806 1189.00
44.2849 1228.00
44.5891 1217.00
44.8934 1413.00
45.1976 1837.00
45.5019 1475.00
45.8062 1877.00
46.1104 1751.00
46.4147 1183.00
46.7189 1145.00
47.0232 1056.00
47.3275 1265.00
47.6317 1272.00
47.936 1184.00
48.2402 1555.00
48.5445 1349.00
48.8488 1210.00
49.153 1418.00
49.4573 2463.00
49.7615 2695.00
50.0658 1702.00
50.3701 3082.00
50.6743 3226.00
50.9786 2509.00
51.2828 3170.00
51.5871 1675.00
51.8914 1345.00
52.1956 1188.00
52.4999 1178.00
52.8041 1249.00
53.1084 1137.00
53.4127 1093.00
53.7169 1126.00
54.0212 1407.00
54.3254 2185.00
54.6297 1924.00
54.934 1537.00
55.2382 1510.00
55.5425 2052.00
55.8467 2602.00
56.151 2739.00
56.4553 1922.00
56.7595 1378.00
57.0638 1210.00
57.368 1597.00
57.6723 1605.00
57.9766 1674.00
58.2808 1420.00
58.5851 1699.00
58.8893 1410.00
59.1936 1233.00
59.4979 1224.00
59.8021 1284.00
60.1064 1863.00
60.4106 2070.00
60.7149 1905.00
61.0192 1655.00
61.3234 1243.00
61.6277 1565.00
61.932 1592.00
62.2362 1808.00
62.5405 1883.00
62.8447 1612.00
63.149 1905.00
63.4533 1611.00
63.7575 1334.00
64.0618 1184.00
64.366 1177.00
64.6703 1245.00
64.9745 1242.00
65.2788 1129.00
65.5831 1337.00
65.8873 1603.00
66.1916 1520.00
66.4959 1449.00
66.8001 1062.00
67.1044 967.00
67.4086 895.00
67.7129 951.00
68.0172 946.00
68.3214 977.00
68.6257 923.00
68.9299 936.00
69.2342 1078.00
69.5385 1074.00
69.8427 1127.00
70.147 1000.00
70.4512 1089.00
70.7555 1057.00
71.0598 985.00
71.364 1222.00
71.6683 1223.00
71.9725 1308.00
72.2768 1115.00
72.5811 1075.00
72.8853 1195.00
73.1896 986.00
73.4938 1074.00
73.7981 975.00
74.1024 1013.00
74.4066 964.00
74.7109 998.00
75.0151 1075.00
75.3194 1522.00
75.6237 1195.00
75.9279 1093.00
76.2322 1035.00
76.5364 1069.00
76.8407 1051.00
77.145 1048.00
77.4492 1103.00
77.7535 1007.00
78.0577 1119.00
78.362 1043.00
78.6663 996.00
78.9705 1055.00
79.2748 1040.00
79.579 1140.00
79.8833 979.00
80.1876 863.00
80.4918 868.00
80.7961 939.00
81.1003 942.00
81.4046 948.00
81.7089 1002.00
82.0131 1099.00
82.3174 1138.00
82.6217 1023.00
82.9259 1144.00
83.2302 1241.00
83.5344 1233.00
83.8387 1169.00
84.143 1234.00
84.4472 1144.00
84.7515 1141.00
85.0557 1139.00
85.36 1017.00
85.6643 975.00
85.9685 1001.00
86.2728 1014.00
86.577 928.00
86.8813 1007.00
87.1856 958.00
87.4898 970.00
87.7941 909.00
88.0983 960.00
88.4026 1145.00
88.7069 1181.00
89.0111 1095.00
89.3154 1122.00
89.6196 997.00
89.9239 1087.00
90.2282 1119.00
90.5324 1052.00
90.8367 1000.00
91.1409 894.00
91.4452 903.00
91.7495 862.00
92.0537 839.00
92.358 873.00
92.6622 900.00
92.9665 857.00
93.2708 813.00
93.575 860.00
93.8793 996.00
94.1835 877.00
94.4878 877.00
94.7921 935.00
95.0963 1022.00
95.4006 1102.00
95.7048 1048.00
96.0091 1065.00
96.3134 1042.00
96.6176 1167.00
96.9219 1153.00
97.2261 1172.00
97.5304 1172.00
97.8347 1133.00
98.1389 1081.00
98.4432 1108.00
98.7474 1040.00
99.0517 1154.00
99.356 1096.00
99.6602 1203.00
99.9645 1072.00
100.095 1061.00

File: NSC_211.xy
9.903433 3029.00
10.2077 2854.00
10.512 2713.00
10.8162 2717.00
11.1205 2593.00
11.4247 2641.00
11.729 2562.00
12.0333 2482.00
12.3375 2447.00
12.6418 2384.00
12.946 2402.00
13.2503 2309.00
13.5546 2252.00
13.8588 2216.00
14.1631 2245.00
14.4673 2193.00
14.7716 2164.00
15.0759 2073.00
15.3801 2152.00
15.6844 2088.00
15.9886 2003.00
16.2929 2171.00
16.5972 1963.00
16.9014 1899.00
17.2057 1976.00
17.5099 2020.00
17.8142 2772.00
18.1185 2026.00
18.4227 1903.00
18.727 1873.00
19.0312 1952.00
19.3355 2006.00
19.6398 1830.00
19.944 1955.00
20.2483 2908.00
20.5525 2572.00
20.8568 1952.00
21.1611 2075.00
21.4653 1822.00
21.7696 2303.00
22.0738 1831.00
22.3781 1869.00
22.6824 1796.00
22.9866 1769.00
23.2909 1688.00
23.5951 1788.00
23.8994 1736.00
24.2037 2198.00
24.5079 4174.00
24.8122 3341.00
25.1164 1874.00
25.4207 1849.00
25.725 2069.00
26.0292 1619.00
26.3335 1553.00
26.6378 2029.00
26.942 1676.00
27.2463 1575.00
27.5505 1669.00
27.8548 1856.00
28.1591 2425.00
28.4633 9903.00
28.7676 8182.00
29.0718 2267.00
29.3761 1718.00
29.6804 1598.00
29.9846 1614.00
30.2889 1688.00
30.5931 1876.00
30.8974 7046.00
31.2017 2028.00
31.5059 2726.00
31.8102 8619.00
32.1144 5226.00
32.4187 1950.00
32.723 1728.00
33.0272 2776.00
33.3315 2500.00
33.6357 2187.00
33.94 1635.00
34.2443 2179.00
34.5485 4909.00
34.8528 4567.00
35.157 1979.00
35.4613 2141.00
35.7656 5919.00
36.0698 1875.00
36.3741 2143.00
36.6783 1395.00
36.9826 1312.00
37.2869 1314.00
37.5911 1222.00
37.8954 1300.00
38.1996 1406.00
38.5039 1265.00
38.8082 1994.00
39.1124 2282.00
39.4167 1292.00
39.7209 1194.00
40.0252 1233.00
40.3295 1263.00
40.6337 1271.00
40.938 1696.00
41.2422 2802.00
41.5465 1907.00
41.8508 1841.00
42.155 1411.00
42.4593 1121.00
42.7635 1097.00
43.0678 1164.00
43.3721 1185.00
43.6763 1142.00
43.9806 1274.00
44.2849 1153.00
44.5891 1128.00
44.8934 1121.00
45.1976 1594.00
45.5019 1528.00
45.8062 1583.00
46.1104 1962.00
46.4147 1074.00
46.7189 1001.00
47.0232 1076.00
47.3275 1189.00
47.6317 1294.00
47.936 1084.00
48.2402 1298.00
48.5445 1155.00
48.8488 1063.00
49.153 1312.00
49.4573 1966.00
49.7615 3129.00
50.0658 1789.00
50.3701 2224.00
50.6743 4040.00
50.9786 2449.00
51.2828 3754.00
51.5871 1510.00
51.8914 1542.00
52.1956 1123.00
52.4999 1052.00
52.8041 1136.00
53.1084 1191.00
53.4127 1014.00
53.7169 1019.00
54.0212 1259.00
54.3254 1718.00
54.6297 2225.00
54.934 1654.00
55.2382 1401.00
55.5425 1695.00
55.8467 2612.00
56.151 2971.00
56.4553 2048.00
56.7595 1513.00
57.0638 1195.00
57.368 1332.00
57.6723 1620.00
57.9766 1694.00
58.2808 1348.00
58.5851 1858.00
58.8893 1596.00
59.1936 1269.00
59.4979 1318.00
59.8021 1291.00
60.1064 1528.00
60.4106 2319.00
60.7149 2110.00
61.0192 1741.00
61.3234 1164.00
61.6277 1349.00
61.932 1743.00
62.2362 1826.00
62.5405 2189.00
62.8447 1551.00
63.149 1625.00
63.4533 1881.00
63.7575 1446.00
64.0618 1179.00
64.366 1070.00
64.6703 1237.00
64.9745 1332.00
65.2788 1151.00
65.5831 1298.00
65.8873 1443.00
66.1916 1637.00
66.4959 1659.00
66.8001 1126.00
67.1044 888.00
67.4086 885.00
67.7129 851.00
68.0172 902.00
68.3214 929.00
68.6257 834.00
68.9299 951.00
69.2342 926.00
69.5385 1038.00
69.8427 1165.00
70.147 988.00
70.4512 1058.00
70.7555 954.00
71.0598 918.00
71.364 991.00
71.6683 1272.00
71.9725 1458.00
72.2768 1031.00
72.5811 1031.00
72.8853 1131.00
73.1896 1032.00
73.4938 1041.00
73.7981 946.00
74.1024 899.00
74.4066 877.00
74.7109 851.00
75.0151 958.00
75.3194 1362.00
75.6237 1223.00
75.9279 1333.00
76.2322 1016.00
76.5364 980.00
76.8407 1058.00
77.145 1003.00
77.4492 1025.00
77.7535 1002.00
78.0577 1093.00
78.362 1095.00
78.6663 1002.00
78.9705 1029.00
79.2748 1011.00
79.579 1208.00
79.8833 985.00
80.1876 910.00
80.4918 765.00
80.7961 836.00
81.1003 849.00
81.4046 897.00
81.7089 872.00
82.0131 1079.00
82.3174 1194.00
82.6217 1074.00
82.9259 1050.00
83.2302 1249.00
83.5344 1217.00
83.8387 1221.00
84.143 1239.00
84.4472 1124.00
84.7515 1188.00
85.0557 1249.00
85.36 1016.00
85.6643 1016.00
85.9685 1023.00
86.2728 935.00
86.577 895.00
86.8813 980.00
87.1856 915.00
87.4898 905.00
87.7941 917.00
88.0983 986.00
88.4026 1121.00
88.7069 1139.00
89.0111 1217.00
89.3154 1117.00
89.6196 1076.00
89.9239 1095.00
90.2282 1115.00
90.5324 1038.00
90.8367 1013.00
91.1409 844.00
91.4452 914.00
91.7495 771.00
92.0537 877.00
92.358 939.00
92.6622 969.00
92.9665 857.00
93.2708 815.00
93.575 824.00
93.8793 847.00
94.1835 932.00
94.4878 889.00
94.7921 950.00
95.0963 954.00
95.4006 1002.00
95.7048 1022.00
96.0091 1096.00
96.3134 1031.00
96.6176 1035.00
96.9219 1171.00
97.2261 1179.00
97.5304 1221.00
97.8347 1280.00
98.1389 1055.00
98.4432 990.00
98.7474 979.00
99.0517 1164.00
99.356 1050.00
99.6602 1197.00
99.9645 1117.00
100.095 1128.00