Folder: alab-pipeline/data/xrd_creation/results (part 14)

File: Na_65.xy
9.903433 2778.00
10.2077 2712.00
10.512 2530.00
10.8162 2507.00
11.1205 2417.00
11.4247 2262.00
11.729 2265.00
12.0333 2137.00
12.3375 2105.00
12.6418 2042.00
12.946 1961.00
13.2503 1803.00
13.5546 1941.00
13.8588 1742.00
14.1631 1762.00
14.4673 1765.00
14.7716 1692.00
15.0759 1681.00
15.3801 1686.00
15.6844 1703.00
15.9886 1665.00
16.2929 1671.00
16.5972 1608.00
16.9014 1622.00
17.2057 1569.00
17.5099 1494.00
17.8142 1532.00
18.1185 1549.00
18.4227 1416.00
18.727 1403.00
19.0312 1489.00
19.3355 1451.00
19.6398 1313.00
19.944 1646.00
20.2483 2777.00
20.5525 1496.00
20.8568 1241.00
21.1611 1285.00
21.4653 1209.00
21.7696 1270.00
22.0738 1170.00
22.3781 1117.00
22.6824 1173.00
22.9866 1103.00
23.2909 1183.00
23.5951 1139.00
23.8994 1085.00
24.2037 1146.00
24.5079 1064.00
24.8122 1067.00
25.1164 1017.00
25.4207 1007.00
25.725 1026.00
26.0292 1153.00
26.3335 1603.00
26.6378 5989.00
26.942 7305.00
27.2463 1378.00
27.5505 1101.00
27.8548 986.00
28.1591 933.00
28.4633 822.00
28.7676 895.00
29.0718 803.00
29.3761 861.00
29.6804 834.00
29.9846 859.00
30.2889 862.00
30.5931 794.00
30.8974 811.00
31.2017 788.00
31.5059 762.00
31.8102 744.00
32.1144 808.00
32.4187 829.00
32.723 1210.00
33.0272 2077.00
33.3315 2861.00
33.6357 1543.00
33.94 4837.00
34.2443 5796.00
34.5485 1201.00
34.8528 934.00
35.157 810.00
35.4613 827.00
35.7656 818.00
36.0698 795.00
36.3741 660.00
36.6783 664.00
36.9826 798.00
37.2869 768.00
37.5911 791.00
37.8954 1033.00
38.1996 3644.00
38.5039 937.00
38.8082 1117.00
39.1124 988.00
39.4167 755.00
39.7209 619.00
40.0252 567.00
40.3295 610.00
40.6337 544.00
40.938 533.00
41.2422 534.00
41.5465 484.00
41.8508 497.00
42.155 503.00
42.4593 535.00
42.7635 674.00
43.0678 567.00
43.3721 552.00
43.6763 683.00
43.9806 671.00
44.2849 535.00
44.5891 492.00
44.8934 595.00
45.1976 574.00
45.5019 517.00
45.8062 526.00
46.1104 498.00
46.4147 473.00
46.7189 473.00
47.0232 444.00
47.3275 641.00
47.6317 786.00
47.936 503.00
48.2402 498.00
48.5445 449.00
48.8488 472.00
49.153 483.00
49.4573 436.00
49.7615 440.00
50.0658 422.00
50.3701 466.00
50.6743 492.00
50.9786 517.00
51.2828 561.00
51.5871 906.00
51.8914 5788.00
52.1956 4040.00
52.4999 883.00
52.8041 543.00
53.1084 540.00
53.4127 440.00
53.7169 508.00
54.0212 463.00
54.3254 480.00
54.6297 667.00
54.934 2364.00
55.2382 869.00
55.5425 529.00
55.8467 441.00
56.151 473.00
56.4553 400.00
56.7595 433.00
57.0638 458.00
57.368 474.00
57.6723 570.00
57.9766 1184.00
58.2808 719.00
58.5851 446.00
58.8893 446.00
59.1936 681.00
59.4979 674.00
59.8021 537.00
60.1064 433.00
60.4106 385.00
60.7149 403.00
61.0192 388.00
61.3234 373.00
61.6277 481.00
61.932 1063.00
62.2362 1610.00
62.5405 554.00
62.8447 506.00
63.149 546.00
63.4533 440.00
63.7575 398.00
64.0618 386.00
64.366 429.00
64.6703 713.00
64.9745 2198.00
65.2788 774.00
65.5831 705.00
65.8873 775.00
66.1916 2731.00
66.4959 796.00
66.8001 432.00
67.1044 346.00
67.4086 370.00
67.7129 338.00
68.0172 330.00
68.3214 341.00
68.6257 325.00
68.9299 326.00
69.2342 308.00
69.5385 359.00
69.8427 410.00
70.147 419.00
70.4512 326.00
70.7555 352.00
71.0598 407.00
71.364 929.00
71.6683 904.00
71.9725 396.00
72.2768 338.00
72.5811 337.00
72.8853 358.00
73.1896 371.00
73.4938 300.00
73.7981 295.00
74.1024 285.00
74.4066 278.00
74.7109 320.00
75.0151 307.00
75.3194 308.00
75.6237 337.00
75.9279 310.00
76.2322 295.00
76.5364 298.00
76.8407 324.00
77.145 292.00
77.4492 307.00
77.7535 297.00
78.0577 309.00
78.362 375.00
78.6663 634.00
78.9705 1394.00
79.2748 661.00
79.579 369.00
79.8833 294.00
80.1876 289.00
80.4918 311.00
80.7961 315.00
81.1003 449.00
81.4046 646.00
81.7089 384.00
82.0131 293.00
82.3174 311.00
82.6217 356.00
82.9259 296.00
83.2302 326.00
83.5344 422.00
83.8387 1173.00
84.143 889.00
84.4472 390.00
84.7515 349.00
85.0557 344.00
85.36 326.00
85.6643 314.00
85.9685 273.00
86.2728 314.00
86.577 304.00
86.8813 323.00
87.1856 391.00
87.4898 595.00
87.7941 447.00
88.0983 304.00
88.4026 312.00
88.7069 375.00
89.0111 331.00
89.3154 337.00
89.6196 500.00
89.9239 1388.00
90.2282 922.00
90.5324 428.00
90.8367 640.00
91.1409 1162.00
91.4452 731.00
91.7495 375.00
92.0537 331.00
92.358 349.00
92.6622 325.00
92.9665 353.00
93.2708 474.00
93.575 656.00
93.8793 455.00
94.1835 311.00
94.4878 302.00
94.7921 309.00
95.0963 293.00
95.4006 300.00
95.7048 313.00
96.0091 536.00
96.3134 563.00
96.6176 432.00
96.9219 288.00
97.2261 276.00
97.5304 216.00
97.8347 285.00
98.1389 309.00
98.4432 334.00
98.7474 334.00
99.0517 324.00
99.356 305.00
99.6602 266.00
99.9645 266.00
100.095 266.00

File: Na_66.xy
9.903433 2702.00
10.2077 2642.00
10.512 2567.00
10.8162 2559.00
11.1205 2596.00
11.4247 2323.00
11.729 2206.00
12.0333 2068.00
12.3375 2014.00
12.6418 2048.00
12.946 1947.00
13.2503 1950.00
13.5546 1849.00
13.8588 1868.00
14.1631 2004.00
14.4673 1754.00
14.7716 1732.00
15.0759 1687.00
15.3801 1718.00
15.6844 1630.00
15.9886 1672.00
16.2929 1690.00
16.5972 1544.00
16.9014 1539.00
17.2057 1507.00
17.5099 1534.00
17.8142 1528.00
18.1185 1506.00
18.4227 1462.00
18.727 1392.00
19.0312 1521.00
19.3355 1621.00
19.6398 1528.00
19.944 1438.00
20.2483 1874.00
20.5525 1574.00
20.8568 1841.00
21.1611 1641.00
21.4653 1801.00
21.7696 1765.00
22.0738 2079.00
22.3781 1338.00
22.6824 2579.00
22.9866 1447.00
23.2909 1311.00
23.5951 1607.00
23.8994 2530.00
24.2037 1888.00
24.5079 1933.00
24.8122 1167.00
25.1164 1270.00
25.4207 1236.00
25.725 1295.00
26.0292 1706.00
26.3335 5476.00
26.6378 2316.00
26.942 2013.00
27.2463 2476.00
27.5505 6337.00
27.8548 1934.00
28.1591 1200.00
28.4633 1179.00
28.7676 1130.00
29.0718 1469.00
29.3761 1109.00
29.6804 1150.00
29.9846 1082.00
30.2889 1219.00
30.5931 1490.00
30.8974 2606.00
31.2017 1048.00
31.5059 1291.00
31.8102 1114.00
32.1144 1213.00
32.4187 1393.00
32.723 975.00
33.0272 996.00
33.3315 1022.00
33.6357 1517.00
33.94 1256.00
34.2443 1350.00
34.5485 1088.00
34.8528 1013.00
35.157 896.00
35.4613 1031.00
35.7656 856.00
36.0698 879.00
36.3741 1258.00
36.6783 991.00
36.9826 1158.00
37.2869 1062.00
37.5911 1121.00
37.8954 1192.00
38.1996 1678.00
38.5039 1394.00
38.8082 943.00
39.1124 948.00
39.4167 921.00
39.7209 1055.00
40.0252 921.00
40.3295 791.00
40.6337 852.00
40.938 1260.00
41.2422 865.00
41.5465 951.00
41.8508 705.00
42.155 779.00
42.4593 735.00
42.7635 759.00
43.0678 767.00
43.3721 1021.00
43.6763 869.00
43.9806 924.00
44.2849 1249.00
44.5891 1045.00
44.8934 1070.00
45.1976 1771.00
45.5019 751.00
45.8062 879.00
46.1104 1089.00
46.4147 838.00
46.7189 730.00
47.0232 1198.00
47.3275 905.00
47.6317 783.00
47.936 643.00
48.2402 712.00
48.5445 785.00
48.8488 1030.00
49.153 1016.00
49.4573 847.00
49.7615 786.00
50.0658 651.00
50.3701 682.00
50.6743 709.00
50.9786 711.00
51.2828 792.00
51.5871 844.00
51.8914 981.00
52.1956 997.00
52.4999 930.00
52.8041 830.00
53.1084 844.00
53.4127 941.00
53.7169 735.00
54.0212 840.00
54.3254 701.00
54.6297 729.00
54.934 732.00
55.2382 716.00
55.5425 774.00
55.8467 616.00
56.151 672.00
56.4553 724.00
56.7595 705.00
57.0638 769.00
57.368 889.00
57.6723 813.00
57.9766 813.00
58.2808 833.00
58.5851 865.00
58.8893 742.00
59.1936 648.00
59.4979 651.00
59.8021 716.00
60.1064 672.00
60.4106 578.00
60.7149 605.00
61.0192 872.00
61.3234 803.00
61.6277 710.00
61.932 716.00
62.2362 770.00
62.5405 812.00
62.8447 793.00
63.149 708.00
63.4533 677.00
63.7575 707.00
64.0618 665.00
64.366 628.00
64.6703 696.00
64.9745 900.00
65.2788 679.00
65.5831 605.00
65.8873 621.00
66.1916 663.00
66.4959 669.00
66.8001 618.00
67.1044 611.00
67.4086 613.00
67.7129 628.00
68.0172 628.00
68.3214 584.00
68.6257 525.00
68.9299 568.00
69.2342 553.00
69.5385 585.00
69.8427 513.00
70.147 500.00
70.4512 482.00
70.7555 567.00
71.0598 532.00
71.364 613.00
71.6683 641.00
71.9725 581.00
72.2768 572.00
72.5811 632.00
72.8853 635.00
73.1896 547.00
73.4938 585.00
73.7981 501.00
74.1024 481.00
74.4066 490.00
74.7109 447.00
75.0151 474.00
75.3194 497.00
75.6237 526.00
75.9279 513.00
76.2322 510.00
76.5364 444.00
76.8407 439.00
77.145 438.00
77.4492 434.00
77.7535 425.00
78.0577 459.00
78.362 503.00
78.6663 473.00
78.9705 550.00
79.2748 518.00
79.579 548.00
79.8833 546.00
80.1876 493.00
80.4918 495.00
80.7961 561.00
81.1003 505.00
81.4046 491.00
81.7089 508.00
82.0131 489.00
82.3174 483.00
82.6217 490.00
82.9259 465.00
83.2302 416.00
83.5344 455.00
83.8387 485.00
84.143 480.00
84.4472 463.00
84.7515 436.00
85.0557 457.00
85.36 433.00
85.6643 460.00
85.9685 456.00
86.2728 447.00
86.577 466.00
86.8813 463.00
87.1856 437.00
87.4898 466.00
87.7941 458.00
88.0983 506.00
88.4026 537.00
88.7069 510.00
89.0111 516.00
89.3154 509.00
89.6196 621.00
89.9239 563.00
90.2282 534.00
90.5324 530.00
90.8367 513.00
91.1409 536.00
91.4452 499.00
91.7495 473.00
92.0537 455.00
92.358 457.00
92.6622 486.00
92.9665 431.00
93.2708 441.00
93.575 417.00
93.8793 413.00
94.1835 484.00
94.4878 447.00
94.7921 454.00
95.0963 478.00
95.4006 486.00
95.7048 487.00
96.0091 499.00
96.3134 479.00
96.6176 471.00
96.9219 454.00
97.2261 449.00
97.5304 461.00
97.8347 510.00
98.1389 425.00
98.4432 489.00
98.7474 422.00
99.0517 455.00
99.356 434.00
99.6602 407.00
99.9645 423.00
100.095 429.00

File: Na_67.xy
9.903433 2800.00
10.2077 2844.00
10.512 2691.00
10.8162 2580.00
11.1205 2500.00
11.4247 2613.00
11.729 2847.00
12.0333 2404.00
12.3375 2313.00
12.6418 2196.00
12.946 2106.00
13.2503 2086.00
13.5546 2075.00
13.8588 1934.00
14.1631 1948.00
14.4673 1980.00
14.7716 1906.00
15.0759 1902.00
15.3801 1769.00
15.6844 1815.00
15.9886 1791.00
16.2929 1969.00
16.5972 1859.00
16.9014 1816.00
17.2057 1667.00
17.5099 1677.00
17.8142 1622.00
18.1185 1761.00
18.4227 1683.00
18.727 1595.00
19.0312 1664.00
19.3355 1786.00
19.6398 1564.00
19.944 1617.00
20.2483 3555.00
20.5525 2465.00
20.8568 1487.00
21.1611 1351.00
21.4653 1404.00
21.7696 1348.00
22.0738 1347.00
22.3781 1346.00
22.6824 1250.00
22.9866 1230.00
23.2909 1399.00
23.5951 1310.00
23.8994 1297.00
24.2037 1456.00
24.5079 1449.00
24.8122 1412.00
25.1164 1329.00
25.4207 1344.00
25.725 1466.00
26.0292 1738.00
26.3335 1971.00
26.6378 4353.00
26.942 12367.00
27.2463 2585.00
27.5505 1663.00
27.8548 1647.00
28.1591 1572.00
28.4633 1288.00
28.7676 1210.00
29.0718 1198.00
29.3761 1235.00
29.6804 1442.00
29.9846 2053.00
30.2889 1870.00
30.5931 1335.00
30.8974 1380.00
31.2017 1095.00
31.5059 1225.00
31.8102 1142.00
32.1144 1148.00
32.4187 1329.00
32.723 1648.00
33.0272 4126.00
33.3315 3749.00
33.6357 3111.00
33.94 3144.00
34.2443 8844.00
34.5485 2566.00
34.8528 1757.00
35.157 1262.00
35.4613 1187.00
35.7656 1315.00
36.0698 1287.00
36.3741 1004.00
36.6783 939.00
36.9826 1077.00
37.2869 1126.00
37.5911 1192.00
37.8954 1220.00
38.1996 3280.00
38.5039 1299.00
38.8082 1854.00
39.1124 1074.00
39.4167 1107.00
39.7209 864.00
40.0252 708.00
40.3295 785.00
40.6337 702.00
40.938 713.00
41.2422 688.00
41.5465 689.00
41.8508 717.00
42.155 775.00
42.4593 755.00
42.7635 806.00
43.0678 833.00
43.3721 639.00
43.6763 787.00
43.9806 1102.00
44.2849 739.00
44.5891 609.00
44.8934 728.00
45.1976 1032.00
45.5019 752.00
45.8062 625.00
46.1104 673.00
46.4147 609.00
46.7189 713.00
47.0232 675.00
47.3275 900.00
47.6317 1355.00
47.936 798.00
48.2402 800.00
48.5445 626.00
48.8488 628.00
49.153 637.00
49.4573 643.00
49.7615 645.00
50.0658 731.00
50.3701 729.00
50.6743 779.00
50.9786 957.00
51.2828 924.00
51.5871 1288.00
51.8914 3029.00
52.1956 5990.00
52.4999 1701.00
52.8041 1143.00
53.1084 862.00
53.4127 951.00
53.7169 796.00
54.0212 824.00
54.3254 725.00
54.6297 884.00
54.934 1679.00
55.2382 1249.00
55.5425 773.00
55.8467 678.00
56.151 702.00
56.4553 617.00
56.7595 622.00
57.0638 614.00
57.368 671.00
57.6723 830.00
57.9766 855.00
58.2808 1111.00
58.5851 752.00
58.8893 709.00
59.1936 1079.00
59.4979 1137.00
59.8021 932.00
60.1064 768.00
60.4106 644.00
60.7149 527.00
61.0192 584.00
61.3234 591.00
61.6277 668.00
61.932 859.00
62.2362 1512.00
62.5405 910.00
62.8447 850.00
63.149 869.00
63.4533 797.00
63.7575 713.00
64.0618 706.00
64.366 708.00
64.6703 822.00
64.9745 2398.00
65.2788 965.00
65.5831 1099.00
65.8873 938.00
66.1916 2437.00
66.4959 1032.00
66.8001 635.00
67.1044 542.00
67.4086 552.00
67.7129 529.00
68.0172 516.00
68.3214 488.00
68.6257 459.00
68.9299 449.00
69.2342 430.00
69.5385 518.00
69.8427 603.00
70.147 591.00
70.4512 517.00
70.7555 426.00
71.0598 520.00
71.364 650.00
71.6683 805.00
71.9725 547.00
72.2768 491.00
72.5811 453.00
72.8853 462.00
73.1896 487.00
73.4938 462.00
73.7981 434.00
74.1024 364.00
74.4066 441.00
74.7109 424.00
75.0151 452.00
75.3194 405.00
75.6237 475.00
75.9279 410.00
76.2322 431.00
76.5364 467.00
76.8407 445.00
77.145 402.00
77.4492 428.00
77.7535 461.00
78.0577 468.00
78.362 491.00
78.6663 653.00
78.9705 1629.00
79.2748 817.00
79.579 591.00
79.8833 537.00
80.1876 454.00
80.4918 428.00
80.7961 441.00
81.1003 510.00
81.4046 676.00
81.7089 488.00
82.0131 464.00
82.3174 446.00
82.6217 499.00
82.9259 502.00
83.2302 445.00
83.5344 500.00
83.8387 849.00
84.143 867.00
84.4472 521.00
84.7515 516.00
85.0557 563.00
85.36 463.00
85.6643 422.00
85.9685 423.00
86.2728 422.00
86.577 426.00
86.8813 470.00
87.1856 478.00
87.4898 731.00
87.7941 507.00
88.0983 430.00
88.4026 487.00
88.7069 457.00
89.0111 504.00
89.3154 493.00
89.6196 605.00
89.9239 1135.00
90.2282 890.00
90.5324 586.00
90.8367 758.00
91.1409 1178.00
91.4452 814.00
91.7495 526.00
92.0537 530.00
92.358 464.00
92.6622 458.00
92.9665 488.00
93.2708 519.00
93.575 643.00
93.8793 542.00
94.1835 475.00
94.4878 456.00
94.7921 424.00
95.0963 409.00
95.4006 414.00
95.7048 473.00
96.0091 478.00
96.3134 528.00
96.6176 487.00
96.9219 451.00
97.2261 399.00
97.5304 355.00
97.8347 457.00
98.1389 397.00
98.4432 461.00
98.7474 451.00
99.0517 415.00
99.356 387.00
99.6602 369.00
99.9645 381.00
100.095 369.00

File: Na_68.xy
9.903433 2865.00
10.2077 2735.00
10.512 2709.00
10.8162 2605.00
11.1205 2557.00
11.4247 2648.00
11.729 2888.00
12.0333 2516.00
12.3375 2186.00
12.6418 2159.00
12.946 2116.00
13.2503 2019.00
13.5546 1861.00
13.8588 1997.00
14.1631 1923.00
14.4673 1888.00
14.7716 1800.00
15.0759 1897.00
15.3801 1865.00
15.6844 1790.00
15.9886 1847.00
16.2929 1864.00
16.5972 1827.00
16.9014 1744.00
17.2057 1738.00
17.5099 1618.00
17.8142 1589.00
18.1185 1635.00
18.4227 1686.00
18.727 1529.00
19.0312 1699.00
19.3355 1781.00
19.6398 1471.00
19.944 1588.00
20.2483 3669.00
20.5525 2383.00
20.8568 1475.00
21.1611 1413.00
21.4653 1459.00
21.7696 1390.00
22.0738 1289.00
22.3781 1298.00
22.6824 1332.00
22.9866 1309.00
23.2909 1363.00
23.5951 1328.00
23.8994 1245.00
24.2037 1347.00
24.5079 1501.00
24.8122 1460.00
25.1164 1429.00
25.4207 1365.00
25.725 1377.00
26.0292 1869.00
26.3335 1938.00
26.6378 4144.00
26.942 10753.00
27.2463 2575.00
27.5505 1653.00
27.8548 1705.00
28.1591 1523.00
28.4633 1260.00
28.7676 1228.00
29.0718 1230.00
29.3761 1206.00
29.6804 1489.00
29.9846 2223.00
30.2889 1981.00
30.5931 1318.00
30.8974 1347.00
31.2017 1172.00
31.5059 1250.00
31.8102 1174.00
32.1144 1120.00
32.4187 1315.00
32.723 1642.00
33.0272 4203.00
33.3315 3912.00
33.6357 2853.00
33.94 3106.00
34.2443 7893.00
34.5485 2598.00
34.8528 1814.00
35.157 1268.00
35.4613 1189.00
35.7656 1251.00
36.0698 1488.00
36.3741 1004.00
36.6783 951.00
36.9826 1015.00
37.2869 1029.00
37.5911 1177.00
37.8954 1226.00
38.1996 3206.00
38.5039 1313.00
38.8082 1917.00
39.1124 1125.00
39.4167 1161.00
39.7209 809.00
40.0252 705.00
40.3295 745.00
40.6337 681.00
40.938 689.00
41.2422 696.00
41.5465 698.00
41.8508 700.00
42.155 811.00
42.4593 807.00
42.7635 833.00
43.0678 847.00
43.3721 667.00
43.6763 773.00
43.9806 1038.00
44.2849 743.00
44.5891 609.00
44.8934 752.00
45.1976 919.00
45.5019 706.00
45.8062 641.00
46.1104 678.00
46.4147 657.00
46.7189 622.00
47.0232 672.00
47.3275 855.00
47.6317 1374.00
47.936 789.00
48.2402 671.00
48.5445 643.00
48.8488 633.00
49.153 667.00
49.4573 639.00
49.7615 636.00
50.0658 711.00
50.3701 724.00
50.6743 750.00
50.9786 888.00
51.2828 837.00
51.5871 1296.00
51.8914 3229.00
52.1956 5387.00
52.4999 1733.00
52.8041 1071.00
53.1084 916.00
53.4127 934.00
53.7169 870.00
54.0212 803.00
54.3254 772.00
54.6297 895.00
54.934 1643.00
55.2382 1090.00
55.5425 773.00
55.8467 731.00
56.151 712.00
56.4553 631.00
56.7595 625.00
57.0638 683.00
57.368 655.00
57.6723 755.00
57.9766 815.00
58.2808 942.00
58.5851 801.00
58.8893 808.00
59.1936 1109.00
59.4979 1166.00
59.8021 856.00
60.1064 771.00
60.4106 574.00
60.7149 583.00
61.0192 613.00
61.3234 609.00
61.6277 684.00
61.932 893.00
62.2362 1421.00
62.5405 849.00
62.8447 866.00
63.149 942.00
63.4533 749.00
63.7575 737.00
64.0618 762.00
64.366 711.00
64.6703 795.00
64.9745 2160.00
65.2788 971.00
65.5831 1083.00
65.8873 967.00
66.1916 2356.00
66.4959 1046.00
66.8001 624.00
67.1044 536.00
67.4086 487.00
67.7129 466.00
68.0172 498.00
68.3214 464.00
68.6257 452.00
68.9299 453.00
69.2342 430.00
69.5385 515.00
69.8427 606.00
70.147 553.00
70.4512 514.00
70.7555 481.00
71.0598 470.00
71.364 629.00
71.6683 795.00
71.9725 488.00
72.2768 486.00
72.5811 520.00
72.8853 469.00
73.1896 490.00
73.4938 447.00
73.7981 465.00
74.1024 383.00
74.4066 399.00
74.7109 413.00
75.0151 403.00
75.3194 425.00
75.6237 440.00
75.9279 439.00
76.2322 441.00
76.5364 399.00
76.8407 415.00
77.145 376.00
77.4492 408.00
77.7535 437.00
78.0577 422.00
78.362 468.00
78.6663 648.00
78.9705 1306.00
79.2748 804.00
79.579 614.00
79.8833 451.00
80.1876 441.00
80.4918 439.00
80.7961 487.00
81.1003 488.00
81.4046 643.00
81.7089 491.00
82.0131 428.00
82.3174 434.00
82.6217 458.00
82.9259 457.00
83.2302 467.00
83.5344 511.00
83.8387 814.00
84.143 826.00
84.4472 530.00
84.7515 538.00
85.0557 586.00
85.36 468.00
85.6643 447.00
85.9685 383.00
86.2728 401.00
86.577 450.00
86.8813 459.00
87.1856 449.00
87.4898 644.00
87.7941 542.00
88.0983 462.00
88.4026 464.00
88.7069 494.00
89.0111 462.00
89.3154 510.00
89.6196 597.00
89.9239 1096.00
90.2282 919.00
90.5324 628.00
90.8367 662.00
91.1409 1081.00
91.4452 779.00
91.7495 527.00
92.0537 542.00
92.358 467.00
92.6622 465.00
92.9665 465.00
93.2708 500.00
93.575 592.00
93.8793 531.00
94.1835 468.00
94.4878 429.00
94.7921 413.00
95.0963 422.00
95.4006 407.00
95.7048 436.00
96.0091 487.00
96.3134 517.00
96.6176 486.00
96.9219 420.00
97.2261 389.00
97.5304 395.00
97.8347 392.00
98.1389 458.00
98.4432 452.00
98.7474 462.00
99.0517 443.00
99.356 420.00
99.6602 426.00
99.9645 418.00
100.095 394.00

File: Na_69.xy
9.903433 2550.00
10.2077 2494.00
10.512 2446.00
10.8162 2331.00
11.1205 2230.00
11.4247 2177.00
11.729 2090.00
12.0333 1973.00
12.3375 1887.00
12.6418 1869.00
12.946 1776.00
13.2503 1830.00
13.5546 1635.00
13.8588 1635.00
14.1631 1609.00
14.4673 1522.00
14.7716 1491.00
15.0759 1465.00
15.3801 1421.00
15.6844 1480.00
15.9886 1399.00
16.2929 1390.00
16.5972 1314.00
16.9014 1305.00
17.2057 1318.00
17.5099 1347.00
17.8142 1301.00
18.1185 1187.00
18.4227 1251.00
18.727 1294.00
19.0312 1371.00
19.3355 1341.00
19.6398 1412.00
19.944 2221.00
20.2483 3752.00
20.5525 2318.00
20.8568 1528.00
21.1611 1568.00
21.4653 2242.00
21.7696 2694.00
22.0738 1462.00
22.3781 1244.00
22.6824 1328.00
22.9866 1762.00
23.2909 1853.00
23.5951 1178.00
23.8994 1049.00
24.2037 985.00
24.5079 952.00
24.8122 915.00
25.1164 910.00
25.4207 944.00
25.725 1012.00
26.0292 938.00
26.3335 1133.00
26.6378 1659.00
26.942 1011.00
27.2463 1019.00
27.5505 974.00
27.8548 934.00
28.1591 946.00
28.4633 975.00
28.7676 947.00
29.0718 1112.00
29.3761 3858.00
29.6804 3083.00
29.9846 1187.00
30.2889 1046.00
30.5931 1122.00
30.8974 1008.00
31.2017 1000.00
31.5059 1020.00
31.8102 993.00
32.1144 992.00
32.4187 1372.00
32.723 1881.00
33.0272 2898.00
33.3315 3235.00
33.6357 1283.00
33.94 1218.00
34.2443 894.00
34.5485 822.00
34.8528 808.00
35.157 784.00
35.4613 1112.00
35.7656 1299.00
36.0698 1323.00
36.3741 735.00
36.6783 718.00
36.9826 713.00
37.2869 723.00
37.5911 716.00
37.8954 646.00
38.1996 739.00
38.5039 906.00
38.8082 873.00
39.1124 829.00
39.4167 1317.00
39.7209 895.00
40.0252 569.00
40.3295 592.00
40.6337 574.00
40.938 667.00
41.2422 630.00
41.5465 620.00
41.8508 629.00
42.155 618.00
42.4593 596.00
42.7635 643.00
43.0678 995.00
43.3721 1215.00
43.6763 768.00
43.9806 644.00
44.2849 594.00
44.5891 575.00
44.8934 632.00
45.1976 689.00
45.5019 615.00
45.8062 688.00
46.1104 624.00
46.4147 596.00
46.7189 599.00
47.0232 813.00
47.3275 1281.00
47.6317 1476.00
47.936 754.00
48.2402 614.00
48.5445 1204.00
48.8488 704.00
49.153 428.00
49.4573 478.00
49.7615 466.00
50.0658 483.00
50.3701 424.00
50.6743 419.00
50.9786 444.00
51.2828 447.00
51.5871 514.00
51.8914 529.00
52.1956 586.00
52.4999 527.00
52.8041 459.00
53.1084 488.00
53.4127 476.00
53.7169 495.00
54.0212 470.00
54.3254 429.00
54.6297 464.00
54.934 525.00
55.2382 442.00
55.5425 447.00
55.8467 487.00
56.151 468.00
56.4553 539.00
56.7595 627.00
57.0638 453.00
57.368 710.00
57.6723 612.00
57.9766 501.00
58.2808 489.00
58.5851 453.00
58.8893 561.00
59.1936 691.00
59.4979 702.00
59.8021 608.00
60.1064 466.00
60.4106 467.00
60.7149 618.00
61.0192 561.00
61.3234 516.00
61.6277 472.00
61.932 390.00
62.2362 368.00
62.5405 374.00
62.8447 414.00
63.149 511.00
63.4533 442.00
63.7575 389.00
64.0618 381.00
64.366 381.00
64.6703 553.00
64.9745 505.00
65.2788 453.00
65.5831 582.00
65.8873 485.00
66.1916 412.00
66.4959 368.00
66.8001 301.00
67.1044 300.00
67.4086 337.00
67.7129 318.00
68.0172 302.00
68.3214 342.00
68.6257 310.00
68.9299 325.00
69.2342 390.00
69.5385 453.00
69.8427 394.00
70.147 471.00
70.4512 363.00
70.7555 329.00
71.0598 330.00
71.364 303.00
71.6683 338.00
71.9725 297.00
72.2768 291.00
72.5811 350.00
72.8853 448.00
73.1896 369.00
73.4938 303.00
73.7981 308.00
74.1024 312.00
74.4066 317.00
74.7109 325.00
75.0151 299.00
75.3194 326.00
75.6237 286.00
75.9279 302.00
76.2322 359.00
76.5364 400.00
76.8407 330.00
77.145 380.00
77.4492 361.00
77.7535 321.00
78.0577 320.00
78.362 314.00
78.6663 307.00
78.9705 315.00
79.2748 327.00
79.579 334.00
79.8833 330.00
80.1876 319.00
80.4918 318.00
80.7961 325.00
81.1003 341.00
81.4046 387.00
81.7089 375.00
82.0131 329.00
82.3174 301.00
82.6217 325.00
82.9259 294.00
83.2302 302.00
83.5344 346.00
83.8387 455.00
84.143 378.00
84.4472 310.00
84.7515 399.00
85.0557 360.00
85.36 308.00
85.6643 245.00
85.9685 287.00
86.2728 285.00
86.577 297.00
86.8813 280.00
87.1856 248.00
87.4898 244.00
87.7941 271.00
88.0983 280.00
88.4026 262.00
88.7069 284.00
89.0111 285.00
89.3154 263.00
89.6196 226.00
89.9239 243.00
90.2282 240.00
90.5324 262.00
90.8367 283.00
91.1409 248.00
91.4452 281.00
91.7495 286.00
92.0537 258.00
92.358 300.00
92.6622 291.00
92.9665 289.00
93.2708 272.00
93.575 261.00
93.8793 273.00
94.1835 244.00
94.4878 274.00
94.7921 361.00
95.0963 375.00
95.4006 331.00
95.7048 264.00
96.0091 264.00
96.3134 294.00
96.6176 260.00
96.9219 262.00
97.2261 291.00
97.5304 287.00
97.8347 283.00
98.1389 301.00
98.4432 279.00
98.7474 298.00
99.0517 337.00
99.356 290.00
99.6602 287.00
99.9645 249.00
100.095 247.00