Folder: alab-pipeline/data/xrd_creation/results (part 93)

File: PG_1951-1.xy
9.903433 2467.00
10.2077 2295.00
10.512 2207.00
10.8162 2220.00
11.1205 2218.00
11.4247 2060.00
11.729 1950.00
12.0333 1940.00
12.3375 1722.00
12.6418 1714.00
12.946 1920.00
13.2503 2895.00
13.5546 1596.00
13.8588 1534.00
14.1631 1572.00
14.4673 1556.00
14.7716 1380.00
15.0759 1459.00
15.3801 1393.00
15.6844 1420.00
15.9886 1352.00
16.2929 1282.00
16.5972 1346.00
16.9014 1303.00
17.2057 1341.00
17.5099 1232.00
17.8142 1187.00
18.1185 1215.00
18.4227 1171.00
18.727 1145.00
19.0312 1082.00
19.3355 1083.00
19.6398 1056.00
19.944 1008.00
20.2483 1082.00
20.5525 1040.00
20.8568 995.00
21.1611 989.00
21.4653 1016.00
21.7696 938.00
22.0738 943.00
22.3781 945.00
22.6824 895.00
22.9866 907.00
23.2909 915.00
23.5951 1164.00
23.8994 846.00
24.2037 849.00
24.5079 841.00
24.8122 829.00
25.1164 796.00
25.4207 805.00
25.725 786.00
26.0292 1102.00
26.3335 946.00
26.6378 778.00
26.942 915.00
27.2463 1058.00
27.5505 764.00
27.8548 794.00
28.1591 766.00
28.4633 715.00
28.7676 775.00
29.0718 1128.00
29.3761 739.00
29.6804 800.00
29.9846 1706.00
30.2889 1277.00
30.5931 774.00
30.8974 923.00
31.2017 3010.00
31.5059 1123.00
31.8102 1330.00
32.1144 12975.00
32.4187 2947.00
32.723 4890.00
33.0272 5343.00
33.3315 1074.00
33.6357 848.00
33.94 847.00
34.2443 885.00
34.5485 1255.00
34.8528 16794.00
35.157 1179.00
35.4613 1073.00
35.7656 988.00
36.0698 1173.00
36.3741 2114.00
36.6783 37122.00
36.9826 1860.00
37.2869 854.00
37.5911 792.00
37.8954 697.00
38.1996 742.00
38.5039 1058.00
38.8082 1075.00
39.1124 1711.00
39.4167 1563.00
39.7209 938.00
40.0252 985.00
40.3295 1168.00
40.6337 838.00
40.938 928.00
41.2422 601.00
41.5465 801.00
41.8508 1400.00
42.155 1123.00
42.4593 612.00
42.7635 634.00
43.0678 525.00
43.3721 639.00
43.6763 699.00
43.9806 584.00
44.2849 465.00
44.5891 492.00
44.8934 461.00
45.1976 564.00
45.5019 747.00
45.8062 468.00
46.1104 461.00
46.4147 553.00
46.7189 658.00
47.0232 495.00
47.3275 552.00
47.6317 761.00
47.936 8170.00
48.2402 956.00
48.5445 695.00
48.8488 545.00
49.153 698.00
49.4573 474.00
49.7615 920.00
50.0658 717.00
50.3701 490.00
50.6743 475.00
50.9786 520.00
51.2828 664.00
51.5871 565.00
51.8914 927.00
52.1956 622.00
52.4999 505.00
52.8041 645.00
53.1084 469.00
53.4127 531.00
53.7169 505.00
54.0212 681.00
54.3254 457.00
54.6297 507.00
54.934 512.00
55.2382 403.00
55.5425 510.00
55.8467 630.00
56.151 579.00
56.4553 610.00
56.7595 1276.00
57.0638 6262.00
57.368 852.00
57.6723 694.00
57.9766 602.00
58.2808 581.00
58.5851 469.00
58.8893 404.00
59.1936 430.00
59.4979 404.00
59.8021 417.00
60.1064 544.00
60.4106 405.00
60.7149 474.00
61.0192 586.00
61.3234 518.00
61.6277 439.00
61.932 454.00
62.2362 483.00
62.5405 501.00
62.8447 722.00
63.149 4811.00
63.4533 4124.00
63.7575 536.00
64.0618 407.00
64.366 472.00
64.6703 488.00
64.9745 430.00
65.2788 437.00
65.5831 478.00
65.8873 442.00
66.1916 457.00
66.4959 573.00
66.8001 1379.00
67.1044 595.00
67.4086 598.00
67.7129 610.00
68.0172 863.00
68.3214 8923.00
68.6257 1268.00
68.9299 582.00
69.2342 741.00
69.5385 2117.00
69.8427 704.00
70.147 504.00
70.4512 521.00
70.7555 405.00
71.0598 443.00
71.364 455.00
71.6683 401.00
71.9725 392.00
72.2768 420.00
72.5811 410.00
72.8853 963.00
73.1896 562.00
73.4938 350.00
73.7981 446.00
74.1024 406.00
74.4066 389.00
74.7109 377.00
75.0151 343.00
75.3194 437.00
75.6237 428.00
75.9279 382.00
76.2322 408.00
76.5364 375.00
76.8407 358.00
77.145 519.00
77.4492 810.00
77.7535 441.00
78.0577 347.00
78.362 358.00
78.6663 316.00
78.9705 355.00
79.2748 387.00
79.579 382.00
79.8833 340.00
80.1876 378.00
80.4918 379.00
80.7961 359.00
81.1003 407.00
81.4046 394.00
81.7089 1012.00
82.0131 615.00
82.3174 403.00
82.6217 378.00
82.9259 346.00
83.2302 334.00
83.5344 351.00
83.8387 328.00
84.143 345.00
84.4472 350.00
84.7515 351.00
85.0557 356.00
85.36 332.00
85.6643 315.00
85.9685 340.00
86.2728 345.00
86.577 365.00
86.8813 367.00
87.1856 344.00
87.4898 373.00
87.7941 333.00
88.0983 350.00
88.4026 334.00
88.7069 353.00
89.0111 322.00
89.3154 369.00
89.6196 508.00
89.9239 3033.00
90.2282 1656.00
90.5324 366.00
90.8367 369.00
91.1409 383.00
91.4452 339.00
91.7495 339.00
92.0537 312.00
92.358 293.00
92.6622 383.00
92.9665 591.00
93.2708 516.00
93.575 434.00
93.8793 369.00
94.1835 383.00
94.4878 382.00
94.7921 367.00
95.0963 403.00
95.4006 674.00
95.7048 1245.00
96.0091 841.00
96.3134 378.00
96.6176 385.00
96.9219 366.00
97.2261 310.00
97.5304 304.00
97.8347 324.00
98.1389 346.00
98.4432 369.00
98.7474 598.00
99.0517 633.00
99.356 499.00
99.6602 406.00
99.9645 306.00
100.095 327.00

File: PG_1952-1.xy
9.903433 2918.00
10.2077 2785.00
10.512 2752.00
10.8162 2671.00
11.1205 2690.00
11.4247 2499.00
11.729 2500.00
12.0333 2369.00
12.3375 2417.00
12.6418 2403.00
12.946 2752.00
13.2503 2579.00
13.5546 2412.00
13.8588 2212.00
14.1631 2267.00
14.4673 2264.00
14.7716 2230.00
15.0759 2222.00
15.3801 2235.00
15.6844 2162.00
15.9886 2176.00
16.2929 2114.00
16.5972 2231.00
16.9014 2239.00
17.2057 2225.00
17.5099 2250.00
17.8142 2823.00
18.1185 2183.00
18.4227 2070.00
18.727 1900.00
19.0312 2049.00
19.3355 2005.00
19.6398 1896.00
19.944 1920.00
20.2483 1932.00
20.5525 1819.00
20.8568 1875.00
21.1611 1790.00
21.4653 1798.00
21.7696 1802.00
22.0738 1834.00
22.3781 1806.00
22.6824 1873.00
22.9866 1935.00
23.2909 1942.00
23.5951 1856.00
23.8994 1851.00
24.2037 2516.00
24.5079 3286.00
24.8122 3758.00
25.1164 1850.00
25.4207 1909.00
25.725 1837.00
26.0292 2272.00
26.3335 1734.00
26.6378 1814.00
26.942 1837.00
27.2463 2096.00
27.5505 1896.00
27.8548 2112.00
28.1591 2747.00
28.4633 16614.00
28.7676 3679.00
29.0718 2116.00
29.3761 1856.00
29.6804 1868.00
29.9846 3094.00
30.2889 1953.00
30.5931 1885.00
30.8974 1982.00
31.2017 2331.00
31.5059 3084.00
31.8102 14916.00
32.1144 2941.00
32.4187 4104.00
32.723 3672.00
33.0272 3467.00
33.3315 1694.00
33.6357 1735.00
33.94 1823.00
34.2443 2261.00
34.5485 5378.00
34.8528 2984.00
35.157 1867.00
35.4613 2492.00
35.7656 2886.00
36.0698 1723.00
36.3741 1789.00
36.6783 1530.00
36.9826 1408.00
37.2869 1431.00
37.5911 1476.00
37.8954 1486.00
38.1996 1524.00
38.5039 1655.00
38.8082 2640.00
39.1124 2078.00
39.4167 2000.00
39.7209 1691.00
40.0252 2125.00
40.3295 1731.00
40.6337 1678.00
40.938 2612.00
41.2422 2265.00
41.5465 2907.00
41.8508 2195.00
42.155 1731.00
42.4593 1427.00
42.7635 1404.00
43.0678 1436.00
43.3721 1527.00
43.6763 1544.00
43.9806 1327.00
44.2849 1378.00
44.5891 1431.00
44.8934 1538.00
45.1976 2615.00
45.5019 1634.00
45.8062 2372.00
46.1104 1536.00
46.4147 1407.00
46.7189 1337.00
47.0232 1377.00
47.3275 1298.00
47.6317 1397.00
47.936 1390.00
48.2402 1465.00
48.5445 1402.00
48.8488 1575.00
49.153 1812.00
49.4573 2775.00
49.7615 3003.00
50.0658 1770.00
50.3701 4483.00
50.6743 2604.00
50.9786 3115.00
51.2828 1836.00
51.5871 2278.00
51.8914 1717.00
52.1956 1449.00
52.4999 1320.00
52.8041 1426.00
53.1084 1367.00
53.4127 1426.00
53.7169 1509.00
54.0212 1642.00
54.3254 2679.00
54.6297 2116.00
54.934 1459.00
55.2382 1554.00
55.5425 2480.00
55.8467 3398.00
56.151 2695.00
56.4553 1882.00
56.7595 1445.00
57.0638 1486.00
57.368 2145.00
57.6723 2047.00
57.9766 1571.00
58.2808 2070.00
58.5851 1861.00
58.8893 1335.00
59.1936 1395.00
59.4979 1448.00
59.8021 1561.00
60.1064 2929.00
60.4106 2441.00
60.7149 1549.00
61.0192 1428.00
61.3234 1439.00
61.6277 2218.00
61.932 1722.00
62.2362 2254.00
62.5405 1725.00
62.8447 1534.00
63.149 2778.00
63.4533 1601.00
63.7575 1315.00
64.0618 1329.00
64.366 1577.00
64.6703 1677.00
64.9745 1327.00
65.2788 1369.00
65.5831 1625.00
65.8873 2005.00
66.1916 2130.00
66.4959 1458.00
66.8001 1268.00
67.1044 1235.00
67.4086 1317.00
67.7129 1276.00
68.0172 1201.00
68.3214 1196.00
68.6257 1224.00
68.9299 1282.00
69.2342 1634.00
69.5385 1394.00
69.8427 1387.00
70.147 1431.00
70.4512 1349.00
70.7555 1275.00
71.0598 1361.00
71.364 1825.00
71.6683 1696.00
71.9725 1448.00
72.2768 1534.00
72.5811 1486.00
72.8853 1500.00
73.1896 1265.00
73.4938 1295.00
73.7981 1249.00
74.1024 1259.00
74.4066 1280.00
74.7109 1298.00
75.0151 1478.00
75.3194 1874.00
75.6237 1593.00
75.9279 1369.00
76.2322 1272.00
76.5364 1304.00
76.8407 1390.00
77.145 1349.00
77.4492 1313.00
77.7535 1454.00
78.0577 1275.00
78.362 1405.00
78.6663 1288.00
78.9705 1405.00
79.2748 1405.00
79.579 1237.00
79.8833 1191.00
80.1876 1323.00
80.4918 1272.00
80.7961 1269.00
81.1003 1300.00
81.4046 1289.00
81.7089 1394.00
82.0131 1342.00
82.3174 1311.00
82.6217 1310.00
82.9259 1451.00
83.2302 1475.00
83.5344 1526.00
83.8387 1465.00
84.143 1625.00
84.4472 1496.00
84.7515 1318.00
85.0557 1376.00
85.36 1325.00
85.6643 1222.00
85.9685 1210.00
86.2728 1382.00
86.577 1431.00
86.8813 1286.00
87.1856 1317.00
87.4898 1356.00
87.7941 1454.00
88.0983 1321.00
88.4026 1588.00
88.7069 1725.00
89.0111 1416.00
89.3154 1297.00
89.6196 1400.00
89.9239 1481.00
90.2282 1540.00
90.5324 1307.00
90.8367 1337.00
91.1409 1283.00
91.4452 1283.00
91.7495 1248.00
92.0537 1238.00
92.358 1201.00
92.6622 1164.00
92.9665 1218.00
93.2708 1252.00
93.575 1245.00
93.8793 1274.00
94.1835 1365.00
94.4878 1307.00
94.7921 1358.00
95.0963 1435.00
95.4006 1496.00
95.7048 1374.00
96.0091 1199.00
96.3134 1417.00
96.6176 1591.00
96.9219 1633.00
97.2261 1646.00
97.5304 1432.00
97.8347 1311.00
98.1389 1532.00
98.4432 1366.00
98.7474 1393.00
99.0517 1451.00
99.356 1465.00
99.6602 1662.00
99.9645 1447.00
100.095 1433.00

File: PG_2034-1.xy
9.903433 2628.00
10.2077 2429.00
10.512 2284.00
10.8162 2348.00
11.1205 2228.00
11.4247 1999.00
11.729 1996.00
12.0333 1942.00
12.3375 1840.00
12.6418 1688.00
12.946 1665.00
13.2503 1646.00
13.5546 1557.00
13.8588 1518.00
14.1631 1427.00
14.4673 1455.00
14.7716 1366.00
15.0759 1445.00
15.3801 1313.00
15.6844 1312.00
15.9886 1236.00
16.2929 1362.00
16.5972 1354.00
16.9014 1927.00
17.2057 1254.00
17.5099 1193.00
17.8142 1110.00
18.1185 1066.00
18.4227 1024.00
18.727 1062.00
19.0312 1022.00
19.3355 1067.00
19.6398 1032.00
19.944 1005.00
20.2483 998.00
20.5525 952.00
20.8568 894.00
21.1611 956.00
21.4653 946.00
21.7696 857.00
22.0738 860.00
22.3781 868.00
22.6824 849.00
22.9866 819.00
23.2909 886.00
23.5951 1968.00
23.8994 967.00
24.2037 772.00
24.5079 769.00
24.8122 790.00
25.1164 767.00
25.4207 718.00
25.725 739.00
26.0292 697.00
26.3335 721.00
26.6378 701.00
26.942 662.00
27.2463 671.00
27.5505 683.00
27.8548 711.00
28.1591 647.00
28.4633 659.00
28.7676 591.00
29.0718 699.00
29.3761 977.00
29.6804 1011.00
29.9846 1282.00
30.2889 658.00
30.5931 648.00
30.8974 583.00
31.2017 607.00
31.5059 545.00
31.8102 526.00
32.1144 526.00
32.4187 515.00
32.723 539.00
33.0272 504.00
33.3315 510.00
33.6357 578.00
33.94 635.00
34.2443 545.00
34.5485 580.00
34.8528 452.00
35.157 499.00
35.4613 496.00
35.7656 415.00
36.0698 440.00
36.3741 424.00
36.6783 408.00
36.9826 396.00
37.2869 429.00
37.5911 413.00
37.8954 506.00
38.1996 463.00
38.5039 399.00
38.8082 354.00
39.1124 391.00
39.4167 379.00
39.7209 397.00
40.0252 334.00
40.3295 372.00
40.6337 346.00
40.938 354.00
41.2422 366.00
41.5465 337.00
41.8508 328.00
42.155 330.00
42.4593 335.00
42.7635 329.00
43.0678 325.00
43.3721 344.00
43.6763 317.00
43.9806 309.00
44.2849 309.00
44.5891 326.00
44.8934 349.00
45.1976 387.00
45.5019 456.00
45.8062 612.00
46.1104 357.00
46.4147 366.00
46.7189 322.00
47.0232 295.00
47.3275 287.00
47.6317 268.00
47.936 281.00
48.2402 295.00
48.5445 290.00
48.8488 321.00
49.153 276.00
49.4573 271.00
49.7615 256.00
50.0658 271.00
50.3701 279.00
50.6743 249.00
50.9786 260.00
51.2828 270.00
51.5871 260.00
51.8914 281.00
52.1956 247.00
52.4999 258.00
52.8041 224.00
53.1084 264.00
53.4127 281.00
53.7169 245.00
54.0212 291.00
54.3254 290.00
54.6297 274.00
54.934 275.00
55.2382 241.00
55.5425 266.00
55.8467 214.00
56.151 245.00
56.4553 267.00
56.7595 219.00
57.0638 258.00
57.368 210.00
57.6723 262.00
57.9766 274.00
58.2808 241.00
58.5851 211.00
58.8893 231.00
59.1936 218.00
59.4979 202.00
59.8021 202.00
60.1064 204.00
60.4106 211.00
60.7149 211.00
61.0192 214.00
61.3234 210.00
61.6277 205.00
61.932 223.00
62.2362 195.00
62.5405 187.00
62.8447 209.00
63.149 228.00
63.4533 218.00
63.7575 195.00
64.0618 206.00
64.366 226.00
64.6703 212.00
64.9745 214.00
65.2788 172.00
65.5831 199.00
65.8873 183.00
66.1916 207.00
66.4959 202.00
66.8001 199.00
67.1044 195.00
67.4086 178.00
67.7129 198.00
68.0172 200.00
68.3214 212.00
68.6257 200.00
68.9299 234.00
69.2342 242.00
69.5385 221.00
69.8427 189.00
70.147 178.00
70.4512 198.00
70.7555 199.00
71.0598 196.00
71.364 197.00
71.6683 205.00
71.9725 196.00
72.2768 187.00
72.5811 231.00
72.8853 231.00
73.1896 212.00
73.4938 178.00
73.7981 198.00
74.1024 230.00
74.4066 195.00
74.7109 180.00
75.0151 206.00
75.3194 223.00
75.6237 190.00
75.9279 204.00
76.2322 191.00
76.5364 233.00
76.8407 225.00
77.145 231.00
77.4492 235.00
77.7535 203.00
78.0577 197.00
78.362 220.00
78.6663 234.00
78.9705 224.00
79.2748 191.00
79.579 212.00
79.8833 232.00
80.1876 206.00
80.4918 262.00
80.7961 225.00
81.1003 270.00
81.4046 263.00
81.7089 232.00
82.0131 247.00
82.3174 236.00
82.6217 217.00
82.9259 226.00
83.2302 222.00
83.5344 193.00
83.8387 205.00
84.143 234.00
84.4472 214.00
84.7515 237.00
85.0557 237.00
85.36 233.00
85.6643 206.00
85.9685 212.00
86.2728 207.00
86.577 212.00
86.8813 190.00
87.1856 217.00
87.4898 174.00
87.7941 187.00
88.0983 193.00
88.4026 206.00
88.7069 207.00
89.0111 190.00
89.3154 171.00
89.6196 195.00
89.9239 201.00
90.2282 189.00
90.5324 201.00
90.8367 198.00
91.1409 205.00
91.4452 172.00
91.7495 174.00
92.0537 197.00
92.358 193.00
92.6622 189.00
92.9665 165.00
93.2708 171.00
93.575 207.00
93.8793 180.00
94.1835 202.00
94.4878 191.00
94.7921 180.00
95.0963 193.00
95.4006 173.00
95.7048 195.00
96.0091 180.00
96.3134 208.00
96.6176 198.00
96.9219 179.00
97.2261 173.00
97.5304 171.00
97.8347 185.00
98.1389 202.00
98.4432 201.00
98.7474 190.00
99.0517 200.00
99.356 176.00
99.6602 195.00
99.9645 159.00
100.095 191.00

File: PG_2035-1.xy
9.903433 2727.00
10.2077 2608.00
10.512 2560.00
10.8162 2390.00
11.1205 2374.00
11.4247 2197.00
11.729 2193.00
12.0333 2170.00
12.3375 2080.00
12.6418 1978.00
12.946 1950.00
13.2503 1892.00
13.5546 1897.00
13.8588 1776.00
14.1631 1739.00
14.4673 1771.00
14.7716 1753.00
15.0759 1664.00
15.3801 1673.00
15.6844 1590.00
15.9886 1588.00
16.2929 1530.00
16.5972 1542.00
16.9014 1510.00
17.2057 1549.00
17.5099 1572.00
17.8142 1729.00
18.1185 1845.00
18.4227 1714.00
18.727 1499.00
19.0312 1551.00
19.3355 2186.00
19.6398 1707.00
19.944 1376.00
20.2483 1382.00
20.5525 1329.00
20.8568 1714.00
21.1611 3304.00
21.4653 1642.00
21.7696 1241.00
22.0738 1232.00
22.3781 1277.00
22.6824 1387.00
22.9866 2927.00
23.2909 1236.00
23.5951 1161.00
23.8994 1149.00
24.2037 1062.00
24.5079 1172.00
24.8122 1013.00
25.1164 1378.00
25.4207 1342.00
25.725 1249.00
26.0292 1053.00
26.3335 1044.00
26.6378 1123.00
26.942 1166.00
27.2463 1085.00
27.5505 1299.00
27.8548 3138.00
28.1591 1154.00
28.4633 1018.00
28.7676 1085.00
29.0718 1186.00
29.3761 1144.00
29.6804 1052.00
29.9846 993.00
30.2889 1022.00
30.5931 1006.00
30.8974 1110.00
31.2017 3053.00
31.5059 4793.00
31.8102 6618.00
32.1144 3437.00
32.4187 4654.00
32.723 1494.00
33.0272 1388.00
33.3315 1294.00
33.6357 940.00
33.94 970.00
34.2443 1098.00
34.5485 5690.00
34.8528 1243.00
35.157 1927.00
35.4613 991.00
35.7656 864.00
36.0698 1016.00
36.3741 871.00
36.6783 820.00
36.9826 934.00
37.2869 820.00
37.5911 1022.00
37.8954 1256.00
38.1996 1129.00
38.5039 785.00
38.8082 1181.00
39.1124 1548.00
39.4167 784.00
39.7209 778.00
40.0252 721.00
40.3295 636.00
40.6337 750.00
40.938 1667.00
41.2422 1915.00
41.5465 902.00
41.8508 700.00
42.155 815.00
42.4593 790.00
42.7635 668.00
43.0678 665.00
43.3721 672.00
43.6763 627.00
43.9806 946.00
44.2849 593.00
44.5891 623.00
44.8934 628.00
45.1976 764.00
45.5019 693.00
45.8062 862.00
46.1104 1101.00
46.4147 759.00
46.7189 1573.00
47.0232 815.00
47.3275 555.00
47.6317 501.00
47.936 576.00
48.2402 526.00
48.5445 527.00
48.8488 680.00
49.153 999.00
49.4573 1375.00
49.7615 602.00
50.0658 515.00
50.3701 499.00
50.6743 928.00
50.9786 744.00
51.2828 507.00
51.5871 602.00
51.8914 999.00
52.1956 613.00
52.4999 561.00
52.8041 499.00
53.1084 619.00
53.4127 1010.00
53.7169 1297.00
54.0212 588.00
54.3254 468.00
54.6297 443.00
54.934 616.00
55.2382 1066.00
55.5425 655.00
55.8467 462.00
56.151 527.00
56.4553 780.00
56.7595 671.00
57.0638 564.00
57.368 699.00
57.6723 486.00
57.9766 487.00
58.2808 854.00
58.5851 439.00
58.8893 390.00
59.1936 409.00
59.4979 405.00
59.8021 411.00
60.1064 750.00
60.4106 589.00
60.7149 800.00
61.0192 712.00
61.3234 710.00
61.6277 536.00
61.932 430.00
62.2362 620.00
62.5405 628.00
62.8447 429.00
63.149 447.00
63.4533 353.00
63.7575 417.00
64.0618 947.00
64.366 434.00
64.6703 469.00
64.9745 486.00
65.2788 479.00
65.5831 510.00
65.8873 398.00
66.1916 929.00
66.4959 687.00
66.8001 433.00
67.1044 416.00
67.4086 575.00
67.7129 514.00
68.0172 414.00
68.3214 698.00
68.6257 524.00
68.9299 602.00
69.2342 666.00
69.5385 368.00
69.8427 368.00
70.147 350.00
70.4512 370.00
70.7555 386.00
71.0598 381.00
71.364 438.00
71.6683 345.00
71.9725 436.00
72.2768 419.00
72.5811 351.00
72.8853 338.00
73.1896 362.00
73.4938 407.00
73.7981 404.00
74.1024 344.00
74.4066 348.00
74.7109 485.00
75.0151 344.00
75.3194 329.00
75.6237 318.00
75.9279 395.00
76.2322 423.00
76.5364 562.00
76.8407 490.00
77.145 419.00
77.4492 460.00
77.7535 355.00
78.0577 524.00
78.362 597.00
78.6663 435.00
78.9705 353.00
79.2748 339.00
79.579 341.00
79.8833 328.00
80.1876 355.00
80.4918 428.00
80.7961 352.00
81.1003 373.00
81.4046 383.00
81.7089 339.00
82.0131 329.00
82.3174 356.00
82.6217 677.00
82.9259 469.00
83.2302 351.00
83.5344 362.00
83.8387 374.00
84.143 345.00
84.4472 540.00
84.7515 568.00
85.0557 426.00
85.36 297.00
85.6643 329.00
85.9685 312.00
86.2728 325.00
86.577 317.00
86.8813 337.00
87.1856 323.00
87.4898 277.00
87.7941 309.00
88.0983 305.00
88.4026 393.00
88.7069 375.00
89.0111 286.00
89.3154 290.00
89.6196 341.00
89.9239 438.00
90.2282 368.00
90.5324 487.00
90.8367 481.00
91.1409 379.00
91.4452 349.00
91.7495 360.00
92.0537 303.00
92.358 304.00
92.6622 368.00
92.9665 349.00
93.2708 314.00
93.575 440.00
93.8793 382.00
94.1835 315.00
94.4878 354.00
94.7921 417.00
95.0963 338.00
95.4006 306.00
95.7048 333.00
96.0091 291.00
96.3134 340.00
96.6176 282.00
96.9219 320.00
97.2261 361.00
97.5304 356.00
97.8347 349.00
98.1389 280.00
98.4432 315.00
98.7474 302.00
99.0517 298.00
99.356 296.00
99.6602 288.00
99.9645 284.00
100.095 257.00

File: PG_2038-1.xy
9.903433 3188.00
10.2077 3073.00
10.512 2978.00
10.8162 2893.00
11.1205 2793.00
11.4247 2802.00
11.729 2748.00
12.0333 2659.00
12.3375 2681.00
12.6418 2735.00
12.946 2652.00
13.2503 2553.00
13.5546 2572.00
13.8588 2534.00
14.1631 2520.00
14.4673 2443.00
14.7716 2346.00
15.0759 2435.00
15.3801 2306.00
15.6844 2312.00
15.9886 2273.00
16.2929 2378.00
16.5972 2265.00
16.9014 2212.00
17.2057 2320.00
17.5099 2547.00
17.8142 3711.00
18.1185 2112.00
18.4227 2104.00
18.727 2168.00
19.0312 2090.00
19.3355 2095.00
19.6398 2056.00
19.944 2024.00
20.2483 1938.00
20.5525 1931.00
20.8568 1993.00
21.1611 1919.00
21.4653 1919.00
21.7696 1979.00
22.0738 1998.00
22.3781 2146.00
22.6824 2871.00
22.9866 19933.00
23.2909 2458.00
23.5951 2176.00
23.8994 2323.00
24.2037 14051.00
24.5079 2214.00
24.8122 1967.00
25.1164 1881.00
25.4207 1973.00
25.725 1839.00
26.0292 2087.00
26.3335 1825.00
26.6378 1882.00
26.942 1804.00
27.2463 1869.00
27.5505 1907.00
27.8548 1906.00
28.1591 2209.00
28.4633 3710.00
28.7676 13659.00
29.0718 3677.00
29.3761 5847.00
29.6804 2208.00
29.9846 2819.00
30.2889 1905.00
30.5931 1859.00
30.8974 2715.00
31.2017 4688.00
31.5059 1767.00
31.8102 1678.00
32.1144 1619.00
32.4187 1649.00
32.723 1553.00
33.0272 1823.00
33.3315 1695.00
33.6357 1617.00
33.94 1602.00
34.2443 2330.00
34.5485 1668.00
34.8528 1754.00
35.157 1611.00
35.4613 1710.00
35.7656 1613.00
36.0698 1648.00
36.3741 1672.00
36.6783 2115.00
36.9826 6346.00
37.2869 3157.00
37.5911 1803.00
37.8954 1460.00
38.1996 1395.00
38.5039 2051.00
38.8082 3237.00
39.1124 1428.00
39.4167 1421.00
39.7209 1433.00
40.0252 1363.00
40.3295 1426.00
40.6337 1294.00
40.938 1817.00
41.2422 1424.00
41.5465 1346.00
41.8508 1287.00
42.155 1388.00
42.4593 1403.00
42.7635 1603.00
43.0678 1750.00
43.3721 1444.00
43.6763 1393.00
43.9806 1408.00
44.2849 1326.00
44.5891 1365.00
44.8934 1479.00
45.1976 1548.00
45.5019 2055.00
45.8062 1530.00
46.1104 3002.00
46.4147 3854.00
46.7189 3826.00
47.0232 1831.00
47.3275 1467.00
47.6317 1414.00
47.936 1656.00
48.2402 1459.00
48.5445 1509.00
48.8488 1515.00
49.153 1741.00
49.4573 1631.00
49.7615 1677.00
50.0658 3064.00
50.3701 1941.00
50.6743 1625.00
50.9786 1969.00
51.2828 4005.00
51.5871 1764.00
51.8914 1552.00
52.1956 1355.00
52.4999 1515.00
52.8041 1368.00
53.1084 1457.00
53.4127 1370.00
53.7169 1345.00
54.0212 1475.00
54.3254 1583.00
54.6297 1374.00
54.934 1477.00
55.2382 2397.00
55.5425 4399.00
55.8467 3023.00
56.151 1608.00
56.4553 1730.00
56.7595 2864.00
57.0638 1429.00
57.368 1477.00
57.6723 1419.00
57.9766 1411.00
58.2808 1393.00
58.5851 1599.00
58.8893 2779.00
59.1936 2248.00
59.4979 1370.00
59.8021 1417.00
60.1064 1708.00
60.4106 1583.00
60.7149 1274.00
61.0192 1314.00
61.3234 1506.00
61.6277 1353.00
61.932 1432.00
62.2362 1304.00
62.5405 1488.00
62.8447 1292.00
63.149 1311.00
63.4533 1413.00
63.7575 1735.00
64.0618 2226.00
64.366 1877.00
64.6703 1411.00
64.9745 1384.00
65.2788 1470.00
65.5831 1317.00
65.8873 1294.00
66.1916 1326.00
66.4959 1418.00
66.8001 1397.00
67.1044 1385.00
67.4086 1470.00
67.7129 1392.00
68.0172 1354.00
68.3214 1296.00
68.6257 1364.00
68.9299 1409.00
69.2342 1313.00
69.5385 1250.00
69.8427 1371.00
70.147 1673.00
70.4512 1871.00
70.7555 1633.00
71.0598 1378.00
71.364 2042.00
71.6683 1791.00
71.9725 1349.00
72.2768 1375.00
72.5811 1318.00
72.8853 1187.00
73.1896 1224.00
73.4938 1298.00
73.7981 1260.00
74.1024 1225.00
74.4066 1278.00
74.7109 1960.00
75.0151 1488.00
75.3194 1193.00
75.6237 1252.00
75.9279 1226.00
76.2322 1207.00
76.5364 1278.00
76.8407 1347.00
77.145 1358.00
77.4492 1226.00
77.7535 1357.00
78.0577 1680.00
78.362 1413.00
78.6663 1449.00
78.9705 1387.00
79.2748 1451.00
79.579 1539.00
79.8833 1504.00
80.1876 1712.00
80.4918 1516.00
80.7961 1315.00
81.1003 1222.00
81.4046 1311.00
81.7089 1384.00
82.0131 1413.00
82.3174 1304.00
82.6217 1426.00
82.9259 1283.00
83.2302 1289.00
83.5344 1288.00
83.8387 1263.00
84.143 1244.00
84.4472 1225.00
84.7515 1405.00
85.0557 1379.00
85.36 1244.00
85.6643 1412.00
85.9685 1298.00
86.2728 1255.00
86.577 1205.00
86.8813 1274.00
87.1856 1221.00
87.4898 1275.00
87.7941 1139.00
88.0983 1208.00
88.4026 1194.00
88.7069 1227.00
89.0111 1202.00
89.3154 1256.00
89.6196 1242.00
89.9239 1186.00
90.2282 1178.00
90.5324 1087.00
90.8367 1234.00
91.1409 1310.00
91.4452 1191.00
91.7495 1119.00
92.0537 1091.00
92.358 1248.00
92.6622 1269.00
92.9665 1264.00
93.2708 1249.00
93.575 1321.00
93.8793 1311.00
94.1835 1309.00
94.4878 1388.00
94.7921 1422.00
95.0963 1258.00
95.4006 1314.00
95.7048 1273.00
96.0091 1279.00
96.3134 1288.00
96.6176 1409.00
96.9219 1328.00
97.2261 1204.00
97.5304 1209.00
97.8347 1335.00
98.1389 1355.00
98.4432 1343.00
98.7474 1289.00
99.0517 1264.00
99.356 1479.00
99.6602 1498.00
99.9645 1494.00
100.095 1571.00