Folder: alab-pipeline/data/xrd_creation/results (part 13)

File: Na_56.xy
9.903433 2641.00
10.2077 2499.00
10.512 2381.00
10.8162 2257.00
11.1205 2226.00
11.4247 2085.00
11.729 2076.00
12.0333 1989.00
12.3375 1829.00
12.6418 1800.00
12.946 1761.00
13.2503 1714.00
13.5546 1658.00
13.8588 1580.00
14.1631 1485.00
14.4673 1529.00
14.7716 1513.00
15.0759 1426.00
15.3801 1304.00
15.6844 1380.00
15.9886 1293.00
16.2929 1352.00
16.5972 1181.00
16.9014 1228.00
17.2057 1250.00
17.5099 1148.00
17.8142 1161.00
18.1185 1212.00
18.4227 1155.00
18.727 1131.00
19.0312 1072.00
19.3355 1082.00
19.6398 981.00
19.944 1006.00
20.2483 1023.00
20.5525 963.00
20.8568 997.00
21.1611 934.00
21.4653 992.00
21.7696 937.00
22.0738 931.00
22.3781 912.00
22.6824 917.00
22.9866 862.00
23.2909 802.00
23.5951 756.00
23.8994 833.00
24.2037 761.00
24.5079 779.00
24.8122 770.00
25.1164 717.00
25.4207 762.00
25.725 794.00
26.0292 693.00
26.3335 682.00
26.6378 648.00
26.942 707.00
27.2463 774.00
27.5505 704.00
27.8548 692.00
28.1591 718.00
28.4633 716.00
28.7676 698.00
29.0718 690.00
29.3761 609.00
29.6804 729.00
29.9846 615.00
30.2889 709.00
30.5931 746.00
30.8974 630.00
31.2017 579.00
31.5059 657.00
31.8102 582.00
32.1144 598.00
32.4187 639.00
32.723 589.00
33.0272 599.00
33.3315 512.00
33.6357 566.00
33.94 538.00
34.2443 516.00
34.5485 532.00
34.8528 501.00
35.157 491.00
35.4613 544.00
35.7656 467.00
36.0698 472.00
36.3741 414.00
36.6783 482.00
36.9826 482.00
37.2869 487.00
37.5911 445.00
37.8954 438.00
38.1996 477.00
38.5039 419.00
38.8082 450.00
39.1124 395.00
39.4167 418.00
39.7209 385.00
40.0252 429.00
40.3295 422.00
40.6337 406.00
40.938 382.00
41.2422 391.00
41.5465 345.00
41.8508 407.00
42.155 346.00
42.4593 377.00
42.7635 375.00
43.0678 391.00
43.3721 384.00
43.6763 353.00
43.9806 369.00
44.2849 370.00
44.5891 371.00
44.8934 369.00
45.1976 394.00
45.5019 377.00
45.8062 308.00
46.1104 315.00
46.4147 365.00
46.7189 387.00
47.0232 311.00
47.3275 330.00
47.6317 358.00
47.936 338.00
48.2402 323.00
48.5445 332.00
48.8488 326.00
49.153 376.00
49.4573 325.00
49.7615 355.00
50.0658 305.00
50.3701 294.00
50.6743 348.00
50.9786 390.00
51.2828 320.00
51.5871 339.00
51.8914 312.00
52.1956 282.00
52.4999 318.00
52.8041 319.00
53.1084 282.00
53.4127 317.00
53.7169 304.00
54.0212 299.00
54.3254 296.00
54.6297 279.00
54.934 295.00
55.2382 273.00
55.5425 269.00
55.8467 308.00
56.151 291.00
56.4553 302.00
56.7595 317.00
57.0638 269.00
57.368 288.00
57.6723 248.00
57.9766 293.00
58.2808 293.00
58.5851 265.00
58.8893 265.00
59.1936 272.00
59.4979 272.00
59.8021 240.00
60.1064 234.00
60.4106 288.00
60.7149 278.00
61.0192 272.00
61.3234 257.00
61.6277 267.00
61.932 274.00
62.2362 262.00
62.5405 259.00
62.8447 268.00
63.149 250.00
63.4533 268.00
63.7575 251.00
64.0618 261.00
64.366 266.00
64.6703 237.00
64.9745 259.00
65.2788 233.00
65.5831 224.00
65.8873 235.00
66.1916 221.00
66.4959 247.00
66.8001 236.00
67.1044 263.00
67.4086 263.00
67.7129 235.00
68.0172 230.00
68.3214 267.00
68.6257 231.00
68.9299 224.00
69.2342 245.00
69.5385 239.00
69.8427 233.00
70.147 235.00
70.4512 228.00
70.7555 248.00
71.0598 241.00
71.364 226.00
71.6683 246.00
71.9725 247.00
72.2768 259.00
72.5811 241.00
72.8853 256.00
73.1896 240.00
73.4938 259.00
73.7981 235.00
74.1024 226.00
74.4066 237.00
74.7109 235.00
75.0151 256.00
75.3194 294.00
75.6237 264.00
75.9279 264.00
76.2322 224.00
76.5364 250.00
76.8407 239.00
77.145 247.00
77.4492 273.00
77.7535 235.00
78.0577 249.00
78.362 244.00
78.6663 263.00
78.9705 226.00
79.2748 273.00
79.579 279.00
79.8833 262.00
80.1876 246.00
80.4918 301.00
80.7961 257.00
81.1003 257.00
81.4046 267.00
81.7089 256.00
82.0131 248.00
82.3174 271.00
82.6217 298.00
82.9259 250.00
83.2302 264.00
83.5344 270.00
83.8387 261.00
84.143 256.00
84.4472 281.00
84.7515 271.00
85.0557 237.00
85.36 287.00
85.6643 240.00
85.9685 242.00
86.2728 246.00
86.577 244.00
86.8813 218.00
87.1856 257.00
87.4898 261.00
87.7941 212.00
88.0983 243.00
88.4026 272.00
88.7069 240.00
89.0111 231.00
89.3154 235.00
89.6196 268.00
89.9239 232.00
90.2282 214.00
90.5324 238.00
90.8367 226.00
91.1409 218.00
91.4452 220.00
91.7495 242.00
92.0537 230.00
92.358 230.00
92.6622 229.00
92.9665 201.00
93.2708 227.00
93.575 230.00
93.8793 209.00
94.1835 223.00
94.4878 239.00
94.7921 206.00
95.0963 223.00
95.4006 232.00
95.7048 221.00
96.0091 221.00
96.3134 213.00
96.6176 198.00
96.9219 219.00
97.2261 223.00
97.5304 224.00
97.8347 208.00
98.1389 241.00
98.4432 211.00
98.7474 222.00
99.0517 236.00
99.356 194.00
99.6602 203.00
99.9645 198.00
100.095 205.00

File: Na_57.xy
9.903433 2601.00
10.2077 2480.00
10.512 2453.00
10.8162 2312.00
11.1205 2190.00
11.4247 2223.00
11.729 2116.00
12.0333 1982.00
12.3375 2012.00
12.6418 1991.00
12.946 1806.00
13.2503 2031.00
13.5546 2159.00
13.8588 1683.00
14.1631 1675.00
14.4673 1539.00
14.7716 1641.00
15.0759 1664.00
15.3801 1508.00
15.6844 1539.00
15.9886 1467.00
16.2929 1386.00
16.5972 1457.00
16.9014 1395.00
17.2057 1295.00
17.5099 1306.00
17.8142 1324.00
18.1185 1398.00
18.4227 1647.00
18.727 1754.00
19.0312 1226.00
19.3355 1239.00
19.6398 1164.00
19.944 1158.00
20.2483 1095.00
20.5525 1067.00
20.8568 1081.00
21.1611 1089.00
21.4653 1020.00
21.7696 1008.00
22.0738 1021.00
22.3781 970.00
22.6824 978.00
22.9866 1008.00
23.2909 997.00
23.5951 1166.00
23.8994 1322.00
24.2037 917.00
24.5079 917.00
24.8122 996.00
25.1164 993.00
25.4207 1119.00
25.725 1290.00
26.0292 865.00
26.3335 1112.00
26.6378 1265.00
26.942 1159.00
27.2463 882.00
27.5505 884.00
27.8548 1077.00
28.1591 804.00
28.4633 913.00
28.7676 1350.00
29.0718 1838.00
29.3761 1732.00
29.6804 1195.00
29.9846 1294.00
30.2889 1991.00
30.5931 1090.00
30.8974 1052.00
31.2017 1026.00
31.5059 785.00
31.8102 896.00
32.1144 1012.00
32.4187 820.00
32.723 699.00
33.0272 650.00
33.3315 759.00
33.6357 701.00
33.94 699.00
34.2443 671.00
34.5485 792.00
34.8528 900.00
35.157 751.00
35.4613 693.00
35.7656 534.00
36.0698 548.00
36.3741 615.00
36.6783 799.00
36.9826 536.00
37.2869 681.00
37.5911 701.00
37.8954 594.00
38.1996 638.00
38.5039 509.00
38.8082 497.00
39.1124 483.00
39.4167 560.00
39.7209 576.00
40.0252 618.00
40.3295 518.00
40.6337 564.00
40.938 549.00
41.2422 603.00
41.5465 467.00
41.8508 513.00
42.155 530.00
42.4593 517.00
42.7635 436.00
43.0678 416.00
43.3721 436.00
43.6763 450.00
43.9806 449.00
44.2849 385.00
44.5891 405.00
44.8934 403.00
45.1976 437.00
45.5019 442.00
45.8062 408.00
46.1104 436.00
46.4147 466.00
46.7189 536.00
47.0232 569.00
47.3275 544.00
47.6317 752.00
47.936 595.00
48.2402 664.00
48.5445 663.00
48.8488 875.00
49.153 534.00
49.4573 451.00
49.7615 437.00
50.0658 420.00
50.3701 496.00
50.6743 544.00
50.9786 468.00
51.2828 585.00
51.5871 613.00
51.8914 459.00
52.1956 430.00
52.4999 427.00
52.8041 462.00
53.1084 505.00
53.4127 510.00
53.7169 506.00
54.0212 468.00
54.3254 617.00
54.6297 513.00
54.934 478.00
55.2382 499.00
55.5425 655.00
55.8467 437.00
56.151 490.00
56.4553 590.00
56.7595 467.00
57.0638 422.00
57.368 440.00
57.6723 390.00
57.9766 392.00
58.2808 406.00
58.5851 424.00
58.8893 479.00
59.1936 452.00
59.4979 415.00
59.8021 475.00
60.1064 450.00
60.4106 477.00
60.7149 495.00
61.0192 495.00
61.3234 490.00
61.6277 461.00
61.932 402.00
62.2362 458.00
62.5405 584.00
62.8447 484.00
63.149 549.00
63.4533 390.00
63.7575 347.00
64.0618 373.00
64.366 348.00
64.6703 339.00
64.9745 349.00
65.2788 339.00
65.5831 366.00
65.8873 320.00
66.1916 367.00
66.4959 378.00
66.8001 331.00
67.1044 348.00
67.4086 359.00
67.7129 346.00
68.0172 318.00
68.3214 298.00
68.6257 298.00
68.9299 357.00
69.2342 325.00
69.5385 326.00
69.8427 335.00
70.147 345.00
70.4512 331.00
70.7555 307.00
71.0598 290.00
71.364 328.00
71.6683 332.00
71.9725 358.00
72.2768 305.00
72.5811 345.00
72.8853 364.00
73.1896 297.00
73.4938 321.00
73.7981 348.00
74.1024 314.00
74.4066 327.00
74.7109 276.00
75.0151 348.00
75.3194 382.00
75.6237 397.00
75.9279 378.00
76.2322 298.00
76.5364 310.00
76.8407 316.00
77.145 293.00
77.4492 304.00
77.7535 309.00
78.0577 340.00
78.362 322.00
78.6663 303.00
78.9705 299.00
79.2748 313.00
79.579 292.00
79.8833 299.00
80.1876 303.00
80.4918 290.00
80.7961 307.00
81.1003 361.00
81.4046 361.00
81.7089 295.00
82.0131 316.00
82.3174 326.00
82.6217 283.00
82.9259 343.00
83.2302 319.00
83.5344 343.00
83.8387 309.00
84.143 314.00
84.4472 312.00
84.7515 325.00
85.0557 276.00
85.36 261.00
85.6643 287.00
85.9685 292.00
86.2728 262.00
86.577 278.00
86.8813 306.00
87.1856 294.00
87.4898 344.00
87.7941 358.00
88.0983 297.00
88.4026 316.00
88.7069 295.00
89.0111 274.00
89.3154 283.00
89.6196 291.00
89.9239 336.00
90.2282 283.00
90.5324 282.00
90.8367 250.00
91.1409 279.00
91.4452 296.00
91.7495 261.00
92.0537 293.00
92.358 289.00
92.6622 238.00
92.9665 305.00
93.2708 307.00
93.575 260.00
93.8793 295.00
94.1835 259.00
94.4878 304.00
94.7921 305.00
95.0963 257.00
95.4006 271.00
95.7048 297.00
96.0091 279.00
96.3134 269.00
96.6176 265.00
96.9219 273.00
97.2261 243.00
97.5304 287.00
97.8347 235.00
98.1389 265.00
98.4432 303.00
98.7474 287.00
99.0517 247.00
99.356 320.00
99.6602 248.00
99.9645 278.00
100.095 260.00

File: Na_58.xy
9.903433 2614.00
10.2077 2598.00
10.512 2511.00
10.8162 2358.00
11.1205 2383.00
11.4247 2131.00
11.729 2049.00
12.0333 2065.00
12.3375 2057.00
12.6418 1937.00
12.946 1851.00
13.2503 1843.00
13.5546 1664.00
13.8588 1631.00
14.1631 1649.00
14.4673 1648.00
14.7716 1626.00
15.0759 1514.00
15.3801 1530.00
15.6844 1504.00
15.9886 1511.00
16.2929 1521.00
16.5972 1385.00
16.9014 1410.00
17.2057 1397.00
17.5099 1342.00
17.8142 1318.00
18.1185 1381.00
18.4227 1707.00
18.727 1520.00
19.0312 1204.00
19.3355 1264.00
19.6398 1226.00
19.944 1172.00
20.2483 1227.00
20.5525 1153.00
20.8568 1086.00
21.1611 1139.00
21.4653 1061.00
21.7696 1026.00
22.0738 1082.00
22.3781 1021.00
22.6824 1053.00
22.9866 961.00
23.2909 1051.00
23.5951 1268.00
23.8994 1023.00
24.2037 941.00
24.5079 876.00
24.8122 982.00
25.1164 915.00
25.4207 907.00
25.725 825.00
26.0292 807.00
26.3335 1130.00
26.6378 939.00
26.942 836.00
27.2463 737.00
27.5505 933.00
27.8548 882.00
28.1591 754.00
28.4633 794.00
28.7676 1409.00
29.0718 2044.00
29.3761 928.00
29.6804 937.00
29.9846 1207.00
30.2889 1053.00
30.5931 1041.00
30.8974 1040.00
31.2017 786.00
31.5059 596.00
31.8102 600.00
32.1144 655.00
32.4187 577.00
32.723 571.00
33.0272 865.00
33.3315 653.00
33.6357 603.00
33.94 727.00
34.2443 728.00
34.5485 859.00
34.8528 831.00
35.157 681.00
35.4613 608.00
35.7656 551.00
36.0698 513.00
36.3741 598.00
36.6783 596.00
36.9826 523.00
37.2869 611.00
37.5911 530.00
37.8954 503.00
38.1996 472.00
38.5039 418.00
38.8082 472.00
39.1124 468.00
39.4167 476.00
39.7209 477.00
40.0252 412.00
40.3295 491.00
40.6337 542.00
40.938 540.00
41.2422 451.00
41.5465 451.00
41.8508 415.00
42.155 437.00
42.4593 476.00
42.7635 393.00
43.0678 400.00
43.3721 387.00
43.6763 409.00
43.9806 390.00
44.2849 373.00
44.5891 398.00
44.8934 328.00
45.1976 373.00
45.5019 352.00
45.8062 357.00
46.1104 370.00
46.4147 392.00
46.7189 459.00
47.0232 410.00
47.3275 627.00
47.6317 573.00
47.936 496.00
48.2402 709.00
48.5445 643.00
48.8488 640.00
49.153 396.00
49.4573 378.00
49.7615 403.00
50.0658 322.00
50.3701 368.00
50.6743 355.00
50.9786 415.00
51.2828 525.00
51.5871 481.00
51.8914 358.00
52.1956 408.00
52.4999 370.00
52.8041 401.00
53.1084 356.00
53.4127 421.00
53.7169 481.00
54.0212 518.00
54.3254 452.00
54.6297 393.00
54.934 457.00
55.2382 410.00
55.5425 533.00
55.8467 420.00
56.151 425.00
56.4553 583.00
56.7595 343.00
57.0638 397.00
57.368 317.00
57.6723 334.00
57.9766 415.00
58.2808 483.00
58.5851 372.00
58.8893 398.00
59.1936 345.00
59.4979 363.00
59.8021 450.00
60.1064 451.00
60.4106 390.00
60.7149 363.00
61.0192 419.00
61.3234 388.00
61.6277 353.00
61.932 325.00
62.2362 446.00
62.5405 425.00
62.8447 358.00
63.149 349.00
63.4533 338.00
63.7575 270.00
64.0618 297.00
64.366 361.00
64.6703 328.00
64.9745 301.00
65.2788 311.00
65.5831 290.00
65.8873 290.00
66.1916 355.00
66.4959 281.00
66.8001 298.00
67.1044 270.00
67.4086 257.00
67.7129 290.00
68.0172 290.00
68.3214 260.00
68.6257 299.00
68.9299 290.00
69.2342 298.00
69.5385 277.00
69.8427 241.00
70.147 272.00
70.4512 281.00
70.7555 220.00
71.0598 239.00
71.364 261.00
71.6683 283.00
71.9725 284.00
72.2768 305.00
72.5811 328.00
72.8853 287.00
73.1896 290.00
73.4938 268.00
73.7981 288.00
74.1024 310.00
74.4066 332.00
74.7109 293.00
75.0151 276.00
75.3194 264.00
75.6237 279.00
75.9279 259.00
76.2322 223.00
76.5364 287.00
76.8407 271.00
77.145 231.00
77.4492 246.00
77.7535 258.00
78.0577 352.00
78.362 292.00
78.6663 257.00
78.9705 268.00
79.2748 304.00
79.579 298.00
79.8833 262.00
80.1876 240.00
80.4918 250.00
80.7961 241.00
81.1003 299.00
81.4046 288.00
81.7089 358.00
82.0131 302.00
82.3174 277.00
82.6217 257.00
82.9259 260.00
83.2302 288.00
83.5344 272.00
83.8387 287.00
84.143 283.00
84.4472 291.00
84.7515 278.00
85.0557 305.00
85.36 229.00
85.6643 272.00
85.9685 247.00
86.2728 244.00
86.577 237.00
86.8813 303.00
87.1856 282.00
87.4898 295.00
87.7941 260.00
88.0983 248.00
88.4026 247.00
88.7069 276.00
89.0111 271.00
89.3154 280.00
89.6196 284.00
89.9239 313.00
90.2282 267.00
90.5324 227.00
90.8367 281.00
91.1409 266.00
91.4452 262.00
91.7495 237.00
92.0537 223.00
92.358 230.00
92.6622 264.00
92.9665 292.00
93.2708 264.00
93.575 273.00
93.8793 258.00
94.1835 243.00
94.4878 243.00
94.7921 234.00
95.0963 247.00
95.4006 246.00
95.7048 280.00
96.0091 250.00
96.3134 273.00
96.6176 282.00
96.9219 279.00
97.2261 224.00
97.5304 239.00
97.8347 232.00
98.1389 224.00
98.4432 243.00
98.7474 272.00
99.0517 243.00
99.356 262.00
99.6602 239.00
99.9645 286.00
100.095 246.00

File: Na_59.xy
9.903433 2599.00
10.2077 2456.00
10.512 2416.00
10.8162 2293.00
11.1205 2228.00
11.4247 2123.00
11.729 2100.00
12.0333 2062.00
12.3375 1968.00
12.6418 1836.00
12.946 2033.00
13.2503 2480.00
13.5546 1620.00
13.8588 1622.00
14.1631 1560.00
14.4673 1616.00
14.7716 1568.00
15.0759 1505.00
15.3801 1391.00
15.6844 1423.00
15.9886 1427.00
16.2929 1395.00
16.5972 1320.00
16.9014 1365.00
17.2057 1262.00
17.5099 1286.00
17.8142 1263.00
18.1185 1256.00
18.4227 1285.00
18.727 1147.00
19.0312 1146.00
19.3355 1193.00
19.6398 1144.00
19.944 1067.00
20.2483 1052.00
20.5525 1114.00
20.8568 1056.00
21.1611 1011.00
21.4653 989.00
21.7696 983.00
22.0738 1025.00
22.3781 976.00
22.6824 1856.00
22.9866 1848.00
23.2909 927.00
23.5951 922.00
23.8994 920.00
24.2037 875.00
24.5079 809.00
24.8122 823.00
25.1164 851.00
25.4207 854.00
25.725 777.00
26.0292 821.00
26.3335 916.00
26.6378 1185.00
26.942 795.00
27.2463 804.00
27.5505 879.00
27.8548 820.00
28.1591 2143.00
28.4633 1983.00
28.7676 2426.00
29.0718 1115.00
29.3761 780.00
29.6804 767.00
29.9846 961.00
30.2889 731.00
30.5931 761.00
30.8974 746.00
31.2017 685.00
31.5059 1013.00
31.8102 1247.00
32.1144 924.00
32.4187 650.00
32.723 644.00
33.0272 647.00
33.3315 619.00
33.6357 663.00
33.94 659.00
34.2443 639.00
34.5485 586.00
34.8528 610.00
35.157 624.00
35.4613 612.00
35.7656 594.00
36.0698 588.00
36.3741 745.00
36.6783 2250.00
36.9826 1382.00
37.2869 885.00
37.5911 504.00
37.8954 591.00
38.1996 540.00
38.5039 466.00
38.8082 495.00
39.1124 608.00
39.4167 591.00
39.7209 637.00
40.0252 592.00
40.3295 547.00
40.6337 485.00
40.938 464.00
41.2422 458.00
41.5465 439.00
41.8508 463.00
42.155 447.00
42.4593 433.00
42.7635 462.00
43.0678 499.00
43.3721 432.00
43.6763 456.00
43.9806 437.00
44.2849 445.00
44.5891 539.00
44.8934 549.00
45.1976 486.00
45.5019 460.00
45.8062 435.00
46.1104 428.00
46.4147 464.00
46.7189 1121.00
47.0232 479.00
47.3275 455.00
47.6317 490.00
47.936 443.00
48.2402 427.00
48.5445 492.00
48.8488 471.00
49.153 540.00
49.4573 561.00
49.7615 1030.00
50.0658 636.00
50.3701 666.00
50.6743 850.00
50.9786 826.00
51.2828 525.00
51.5871 518.00
51.8914 537.00
52.1956 474.00
52.4999 482.00
52.8041 525.00
53.1084 515.00
53.4127 462.00
53.7169 420.00
54.0212 434.00
54.3254 467.00
54.6297 474.00
54.934 508.00
55.2382 834.00
55.5425 1483.00
55.8467 921.00
56.151 580.00
56.4553 698.00
56.7595 524.00
57.0638 492.00
57.368 512.00
57.6723 431.00
57.9766 457.00
58.2808 539.00
58.5851 559.00
58.8893 514.00
59.1936 469.00
59.4979 480.00
59.8021 484.00
60.1064 439.00
60.4106 404.00
60.7149 411.00
61.0192 443.00
61.3234 483.00
61.6277 547.00
61.932 485.00
62.2362 437.00
62.5405 415.00
62.8447 431.00
63.149 416.00
63.4533 511.00
63.7575 629.00
64.0618 469.00
64.366 416.00
64.6703 477.00
64.9745 450.00
65.2788 467.00
65.5831 416.00
65.8873 443.00
66.1916 413.00
66.4959 475.00
66.8001 476.00
67.1044 442.00
67.4086 486.00
67.7129 455.00
68.0172 384.00
68.3214 399.00
68.6257 368.00
68.9299 414.00
69.2342 380.00
69.5385 388.00
69.8427 393.00
70.147 385.00
70.4512 562.00
70.7555 635.00
71.0598 477.00
71.364 557.00
71.6683 437.00
71.9725 425.00
72.2768 430.00
72.5811 407.00
72.8853 434.00
73.1896 421.00
73.4938 391.00
73.7981 378.00
74.1024 364.00
74.4066 376.00
74.7109 378.00
75.0151 370.00
75.3194 407.00
75.6237 402.00
75.9279 369.00
76.2322 387.00
76.5364 402.00
76.8407 391.00
77.145 408.00
77.4492 453.00
77.7535 472.00
78.0577 526.00
78.362 446.00
78.6663 418.00
78.9705 430.00
79.2748 390.00
79.579 432.00
79.8833 598.00
80.1876 581.00
80.4918 475.00
80.7961 407.00
81.1003 449.00
81.4046 424.00
81.7089 464.00
82.0131 440.00
82.3174 466.00
82.6217 401.00
82.9259 401.00
83.2302 398.00
83.5344 426.00
83.8387 406.00
84.143 398.00
84.4472 472.00
84.7515 445.00
85.0557 385.00
85.36 420.00
85.6643 409.00
85.9685 379.00
86.2728 384.00
86.577 382.00
86.8813 399.00
87.1856 374.00
87.4898 438.00
87.7941 413.00
88.0983 352.00
88.4026 424.00
88.7069 354.00
89.0111 369.00
89.3154 351.00
89.6196 403.00
89.9239 421.00
90.2282 362.00
90.5324 371.00
90.8367 389.00
91.1409 394.00
91.4452 376.00
91.7495 433.00
92.0537 363.00
92.358 396.00
92.6622 375.00
92.9665 444.00
93.2708 407.00
93.575 448.00
93.8793 433.00
94.1835 454.00
94.4878 445.00
94.7921 400.00
95.0963 409.00
95.4006 423.00
95.7048 397.00
96.0091 429.00
96.3134 465.00
96.6176 427.00
96.9219 410.00
97.2261 419.00
97.5304 386.00
97.8347 454.00
98.1389 492.00
98.4432 428.00
98.7474 483.00
99.0517 450.00
99.356 461.00
99.6602 386.00
99.9645 419.00
100.095 398.00

File: Na_60.xy
9.903433 2568.00
10.2077 2572.00
10.512 2407.00
10.8162 2361.00
11.1205 2297.00
11.4247 1997.00
11.729 2004.00
12.0333 1948.00
12.3375 1907.00
12.6418 1855.00
12.946 1701.00
13.2503 1715.00
13.5546 1546.00
13.8588 1528.00
14.1631 1482.00
14.4673 1506.00
14.7716 1467.00
15.0759 1448.00
15.3801 1395.00
15.6844 1332.00
15.9886 1345.00
16.2929 1272.00
16.5972 1327.00
16.9014 1257.00
17.2057 1227.00
17.5099 1217.00
17.8142 1168.00
18.1185 1119.00
18.4227 1142.00
18.727 1063.00
19.0312 1067.00
19.3355 1118.00
19.6398 1111.00
19.944 1021.00
20.2483 981.00
20.5525 952.00
20.8568 954.00
21.1611 974.00
21.4653 983.00
21.7696 975.00
22.0738 915.00
22.3781 928.00
22.6824 908.00
22.9866 846.00
23.2909 836.00
23.5951 872.00
23.8994 857.00
24.2037 890.00
24.5079 798.00
24.8122 804.00
25.1164 857.00
25.4207 810.00
25.725 771.00
26.0292 814.00
26.3335 796.00
26.6378 699.00
26.942 692.00
27.2463 721.00
27.5505 765.00
27.8548 845.00
28.1591 795.00
28.4633 811.00
28.7676 743.00
29.0718 803.00
29.3761 701.00
29.6804 653.00
29.9846 665.00
30.2889 740.00
30.5931 703.00
30.8974 670.00
31.2017 671.00
31.5059 646.00
31.8102 631.00
32.1144 565.00
32.4187 578.00
32.723 637.00
33.0272 583.00
33.3315 536.00
33.6357 615.00
33.94 575.00
34.2443 557.00
34.5485 518.00
34.8528 510.00
35.157 562.00
35.4613 506.00
35.7656 461.00
36.0698 472.00
36.3741 493.00
36.6783 496.00
36.9826 522.00
37.2869 494.00
37.5911 422.00
37.8954 413.00
38.1996 436.00
38.5039 479.00
38.8082 437.00
39.1124 381.00
39.4167 403.00
39.7209 418.00
40.0252 436.00
40.3295 374.00
40.6337 418.00
40.938 386.00
41.2422 400.00
41.5465 412.00
41.8508 445.00
42.155 400.00
42.4593 418.00
42.7635 414.00
43.0678 451.00
43.3721 429.00
43.6763 366.00
43.9806 368.00
44.2849 395.00
44.5891 348.00
44.8934 331.00
45.1976 384.00
45.5019 372.00
45.8062 369.00
46.1104 373.00
46.4147 365.00
46.7189 331.00
47.0232 316.00
47.3275 320.00
47.6317 306.00
47.936 342.00
48.2402 331.00
48.5445 346.00
48.8488 307.00
49.153 334.00
49.4573 315.00
49.7615 344.00
50.0658 332.00
50.3701 333.00
50.6743 298.00
50.9786 345.00
51.2828 315.00
51.5871 336.00
51.8914 311.00
52.1956 340.00
52.4999 306.00
52.8041 311.00
53.1084 282.00
53.4127 302.00
53.7169 319.00
54.0212 293.00
54.3254 290.00
54.6297 326.00
54.934 285.00
55.2382 312.00
55.5425 290.00
55.8467 284.00
56.151 274.00
56.4553 292.00
56.7595 292.00
57.0638 315.00
57.368 267.00
57.6723 297.00
57.9766 271.00
58.2808 257.00
58.5851 283.00
58.8893 294.00
59.1936 269.00
59.4979 243.00
59.8021 275.00
60.1064 268.00
60.4106 293.00
60.7149 220.00
61.0192 226.00
61.3234 243.00
61.6277 238.00
61.932 238.00
62.2362 256.00
62.5405 275.00
62.8447 286.00
63.149 242.00
63.4533 204.00
63.7575 231.00
64.0618 264.00
64.366 217.00
64.6703 261.00
64.9745 232.00
65.2788 257.00
65.5831 238.00
65.8873 272.00
66.1916 221.00
66.4959 215.00
66.8001 223.00
67.1044 228.00
67.4086 236.00
67.7129 205.00
68.0172 215.00
68.3214 236.00
68.6257 232.00
68.9299 222.00
69.2342 222.00
69.5385 249.00
69.8427 217.00
70.147 208.00
70.4512 215.00
70.7555 231.00
71.0598 204.00
71.364 221.00
71.6683 209.00
71.9725 210.00
72.2768 238.00
72.5811 196.00
72.8853 206.00
73.1896 217.00
73.4938 221.00
73.7981 224.00
74.1024 242.00
74.4066 229.00
74.7109 276.00
75.0151 188.00
75.3194 272.00
75.6237 216.00
75.9279 233.00
76.2322 261.00
76.5364 236.00
76.8407 224.00
77.145 264.00
77.4492 223.00
77.7535 283.00
78.0577 237.00
78.362 259.00
78.6663 261.00
78.9705 244.00
79.2748 246.00
79.579 245.00
79.8833 244.00
80.1876 269.00
80.4918 239.00
80.7961 271.00
81.1003 261.00
81.4046 273.00
81.7089 244.00
82.0131 222.00
82.3174 295.00
82.6217 263.00
82.9259 240.00
83.2302 264.00
83.5344 263.00
83.8387 258.00
84.143 247.00
84.4472 227.00
84.7515 230.00
85.0557 259.00
85.36 278.00
85.6643 229.00
85.9685 237.00
86.2728 246.00
86.577 237.00
86.8813 224.00
87.1856 269.00
87.4898 218.00
87.7941 222.00
88.0983 213.00
88.4026 241.00
88.7069 239.00
89.0111 245.00
89.3154 234.00
89.6196 195.00
89.9239 213.00
90.2282 232.00
90.5324 233.00
90.8367 223.00
91.1409 213.00
91.4452 224.00
91.7495 231.00
92.0537 199.00
92.358 229.00
92.6622 224.00
92.9665 227.00
93.2708 220.00
93.575 183.00
93.8793 210.00
94.1835 236.00
94.4878 206.00
94.7921 203.00
95.0963 213.00
95.4006 224.00
95.7048 222.00
96.0091 200.00
96.3134 243.00
96.6176 216.00
96.9219 195.00
97.2261 192.00
97.5304 216.00
97.8347 223.00
98.1389 211.00
98.4432 220.00
98.7474 211.00
99.0517 202.00
99.356 212.00
99.6602 209.00
99.9645 223.00
100.095 194.00