Folder: alab-pipeline/data/xrd_creation/results (part 19)

File: Na_107.xy
9.903433 2745.00
10.2077 2431.00
10.512 2412.00
10.8162 2281.00
11.1205 2155.00
11.4247 2073.00
11.729 1924.00
12.0333 1872.00
12.3375 1757.00
12.6418 1739.00
12.946 1742.00
13.2503 1528.00
13.5546 1605.00
13.8588 1509.00
14.1631 1416.00
14.4673 1361.00
14.7716 1405.00
15.0759 1314.00
15.3801 1343.00
15.6844 1316.00
15.9886 1275.00
16.2929 1271.00
16.5972 1244.00
16.9014 1208.00
17.2057 1121.00
17.5099 1047.00
17.8142 1097.00
18.1185 1069.00
18.4227 1047.00
18.727 1000.00
19.0312 978.00
19.3355 1016.00
19.6398 906.00
19.944 914.00
20.2483 890.00
20.5525 885.00
20.8568 899.00
21.1611 823.00
21.4653 835.00
21.7696 811.00
22.0738 787.00
22.3781 795.00
22.6824 793.00
22.9866 772.00
23.2909 777.00
23.5951 724.00
23.8994 731.00
24.2037 716.00
24.5079 708.00
24.8122 688.00
25.1164 644.00
25.4207 675.00
25.725 651.00
26.0292 624.00
26.3335 600.00
26.6378 607.00
26.942 600.00
27.2463 608.00
27.5505 617.00
27.8548 647.00
28.1591 581.00
28.4633 621.00
28.7676 626.00
29.0718 547.00
29.3761 512.00
29.6804 559.00
29.9846 504.00
30.2889 535.00
30.5931 523.00
30.8974 485.00
31.2017 492.00
31.5059 526.00
31.8102 498.00
32.1144 443.00
32.4187 439.00
32.723 504.00
33.0272 466.00
33.3315 467.00
33.6357 456.00
33.94 415.00
34.2443 500.00
34.5485 413.00
34.8528 412.00
35.157 400.00
35.4613 393.00
35.7656 369.00
36.0698 393.00
36.3741 424.00
36.6783 421.00
36.9826 397.00
37.2869 405.00
37.5911 372.00
37.8954 424.00
38.1996 333.00
38.5039 380.00
38.8082 357.00
39.1124 360.00
39.4167 337.00
39.7209 348.00
40.0252 355.00
40.3295 337.00
40.6337 339.00
40.938 331.00
41.2422 320.00
41.5465 310.00
41.8508 323.00
42.155 297.00
42.4593 311.00
42.7635 317.00
43.0678 309.00
43.3721 334.00
43.6763 282.00
43.9806 261.00
44.2849 316.00
44.5891 329.00
44.8934 287.00
45.1976 276.00
45.5019 276.00
45.8062 297.00
46.1104 266.00
46.4147 238.00
46.7189 275.00
47.0232 275.00
47.3275 289.00
47.6317 283.00
47.936 276.00
48.2402 284.00
48.5445 229.00
48.8488 264.00
49.153 263.00
49.4573 271.00
49.7615 271.00
50.0658 270.00
50.3701 227.00
50.6743 237.00
50.9786 233.00
51.2828 237.00
51.5871 237.00
51.8914 235.00
52.1956 246.00
52.4999 258.00
52.8041 222.00
53.1084 265.00
53.4127 231.00
53.7169 223.00
54.0212 261.00
54.3254 202.00
54.6297 220.00
54.934 226.00
55.2382 235.00
55.5425 219.00
55.8467 203.00
56.151 230.00
56.4553 219.00
56.7595 187.00
57.0638 225.00
57.368 204.00
57.6723 217.00
57.9766 201.00
58.2808 202.00
58.5851 198.00
58.8893 199.00
59.1936 200.00
59.4979 193.00
59.8021 187.00
60.1064 182.00
60.4106 207.00
60.7149 200.00
61.0192 196.00
61.3234 184.00
61.6277 191.00
61.932 176.00
62.2362 168.00
62.5405 177.00
62.8447 208.00
63.149 193.00
63.4533 197.00
63.7575 190.00
64.0618 208.00
64.366 197.00
64.6703 174.00
64.9745 184.00
65.2788 184.00
65.5831 212.00
65.8873 150.00
66.1916 185.00
66.4959 162.00
66.8001 194.00
67.1044 171.00
67.4086 179.00
67.7129 173.00
68.0172 210.00
68.3214 195.00
68.6257 190.00
68.9299 188.00
69.2342 178.00
69.5385 180.00
69.8427 199.00
70.147 205.00
70.4512 175.00
70.7555 206.00
71.0598 186.00
71.364 152.00
71.6683 172.00
71.9725 194.00
72.2768 205.00
72.5811 183.00
72.8853 205.00
73.1896 187.00
73.4938 175.00
73.7981 211.00
74.1024 192.00
74.4066 187.00
74.7109 195.00
75.0151 187.00
75.3194 237.00
75.6237 167.00
75.9279 206.00
76.2322 184.00
76.5364 205.00
76.8407 182.00
77.145 211.00
77.4492 208.00
77.7535 212.00
78.0577 207.00
78.362 196.00
78.6663 207.00
78.9705 239.00
79.2748 197.00
79.579 215.00
79.8833 229.00
80.1876 232.00
80.4918 205.00
80.7961 190.00
81.1003 211.00
81.4046 235.00
81.7089 206.00
82.0131 229.00
82.3174 246.00
82.6217 215.00
82.9259 209.00
83.2302 218.00
83.5344 200.00
83.8387 209.00
84.143 212.00
84.4472 207.00
84.7515 205.00
85.0557 231.00
85.36 208.00
85.6643 238.00
85.9685 209.00
86.2728 158.00
86.577 199.00
86.8813 217.00
87.1856 210.00
87.4898 180.00
87.7941 181.00
88.0983 180.00
88.4026 192.00
88.7069 190.00
89.0111 178.00
89.3154 179.00
89.6196 200.00
89.9239 207.00
90.2282 186.00
90.5324 178.00
90.8367 168.00
91.1409 173.00
91.4452 174.00
91.7495 169.00
92.0537 174.00
92.358 191.00
92.6622 176.00
92.9665 178.00
93.2708 149.00
93.575 177.00
93.8793 170.00
94.1835 176.00
94.4878 164.00
94.7921 165.00
95.0963 182.00
95.4006 178.00
95.7048 158.00
96.0091 178.00
96.3134 182.00
96.6176 187.00
96.9219 167.00
97.2261 187.00
97.5304 141.00
97.8347 152.00
98.1389 181.00
98.4432 192.00
98.7474 165.00
99.0517 153.00
99.356 193.00
99.6602 171.00
99.9645 168.00
100.095 183.00

File: Na_108.xy
9.903433 2703.00
10.2077 2550.00
10.512 2434.00
10.8162 2380.00
11.1205 2167.00
11.4247 2167.00
11.729 2125.00
12.0333 1979.00
12.3375 1961.00
12.6418 1881.00
12.946 1729.00
13.2503 1725.00
13.5546 1628.00
13.8588 1643.00
14.1631 1593.00
14.4673 1517.00
14.7716 1520.00
15.0759 1563.00
15.3801 1433.00
15.6844 1768.00
15.9886 1355.00
16.2929 1314.00
16.5972 1301.00
16.9014 1255.00
17.2057 1312.00
17.5099 1222.00
17.8142 1150.00
18.1185 1178.00
18.4227 1087.00
18.727 1152.00
19.0312 1020.00
19.3355 980.00
19.6398 1015.00
19.944 939.00
20.2483 1020.00
20.5525 1026.00
20.8568 1020.00
21.1611 986.00
21.4653 975.00
21.7696 892.00
22.0738 871.00
22.3781 966.00
22.6824 894.00
22.9866 859.00
23.2909 895.00
23.5951 811.00
23.8994 892.00
24.2037 822.00
24.5079 857.00
24.8122 767.00
25.1164 827.00
25.4207 831.00
25.725 891.00
26.0292 783.00
26.3335 919.00
26.6378 832.00
26.942 749.00
27.2463 690.00
27.5505 774.00
27.8548 777.00
28.1591 851.00
28.4633 768.00
28.7676 725.00
29.0718 732.00
29.3761 701.00
29.6804 662.00
29.9846 676.00
30.2889 664.00
30.5931 623.00
30.8974 658.00
31.2017 678.00
31.5059 936.00
31.8102 887.00
32.1144 695.00
32.4187 600.00
32.723 568.00
33.0272 587.00
33.3315 659.00
33.6357 650.00
33.94 566.00
34.2443 574.00
34.5485 519.00
34.8528 625.00
35.157 461.00
35.4613 479.00
35.7656 516.00
36.0698 519.00
36.3741 454.00
36.6783 485.00
36.9826 448.00
37.2869 438.00
37.5911 445.00
37.8954 479.00
38.1996 444.00
38.5039 405.00
38.8082 462.00
39.1124 471.00
39.4167 415.00
39.7209 430.00
40.0252 394.00
40.3295 401.00
40.6337 384.00
40.938 407.00
41.2422 358.00
41.5465 391.00
41.8508 406.00
42.155 372.00
42.4593 403.00
42.7635 362.00
43.0678 386.00
43.3721 345.00
43.6763 332.00
43.9806 364.00
44.2849 413.00
44.5891 380.00
44.8934 346.00
45.1976 288.00
45.5019 368.00
45.8062 326.00
46.1104 332.00
46.4147 334.00
46.7189 303.00
47.0232 340.00
47.3275 331.00
47.6317 301.00
47.936 298.00
48.2402 295.00
48.5445 305.00
48.8488 288.00
49.153 333.00
49.4573 293.00
49.7615 325.00
50.0658 328.00
50.3701 309.00
50.6743 334.00
50.9786 359.00
51.2828 273.00
51.5871 358.00
51.8914 360.00
52.1956 347.00
52.4999 289.00
52.8041 345.00
53.1084 301.00
53.4127 307.00
53.7169 279.00
54.0212 267.00
54.3254 273.00
54.6297 303.00
54.934 289.00
55.2382 309.00
55.5425 300.00
55.8467 264.00
56.151 259.00
56.4553 246.00
56.7595 275.00
57.0638 257.00
57.368 242.00
57.6723 239.00
57.9766 229.00
58.2808 261.00
58.5851 250.00
58.8893 297.00
59.1936 244.00
59.4979 222.00
59.8021 229.00
60.1064 237.00
60.4106 241.00
60.7149 211.00
61.0192 233.00
61.3234 235.00
61.6277 259.00
61.932 247.00
62.2362 237.00
62.5405 237.00
62.8447 214.00
63.149 235.00
63.4533 207.00
63.7575 224.00
64.0618 232.00
64.366 222.00
64.6703 222.00
64.9745 178.00
65.2788 214.00
65.5831 227.00
65.8873 248.00
66.1916 240.00
66.4959 211.00
66.8001 224.00
67.1044 240.00
67.4086 224.00
67.7129 199.00
68.0172 198.00
68.3214 190.00
68.6257 218.00
68.9299 227.00
69.2342 226.00
69.5385 203.00
69.8427 194.00
70.147 209.00
70.4512 188.00
70.7555 190.00
71.0598 203.00
71.364 197.00
71.6683 210.00
71.9725 200.00
72.2768 206.00
72.5811 203.00
72.8853 221.00
73.1896 226.00
73.4938 209.00
73.7981 178.00
74.1024 189.00
74.4066 216.00
74.7109 215.00
75.0151 196.00
75.3194 212.00
75.6237 221.00
75.9279 222.00
76.2322 212.00
76.5364 222.00
76.8407 213.00
77.145 191.00
77.4492 207.00
77.7535 218.00
78.0577 206.00
78.362 222.00
78.6663 244.00
78.9705 242.00
79.2748 215.00
79.579 236.00
79.8833 208.00
80.1876 258.00
80.4918 241.00
80.7961 261.00
81.1003 272.00
81.4046 228.00
81.7089 245.00
82.0131 269.00
82.3174 231.00
82.6217 261.00
82.9259 246.00
83.2302 229.00
83.5344 274.00
83.8387 250.00
84.143 238.00
84.4472 237.00
84.7515 235.00
85.0557 236.00
85.36 242.00
85.6643 227.00
85.9685 264.00
86.2728 212.00
86.577 236.00
86.8813 259.00
87.1856 245.00
87.4898 222.00
87.7941 239.00
88.0983 230.00
88.4026 216.00
88.7069 199.00
89.0111 193.00
89.3154 233.00
89.6196 250.00
89.9239 229.00
90.2282 217.00
90.5324 226.00
90.8367 219.00
91.1409 213.00
91.4452 216.00
91.7495 234.00
92.0537 227.00
92.358 215.00
92.6622 193.00
92.9665 196.00
93.2708 220.00
93.575 200.00
93.8793 185.00
94.1835 186.00
94.4878 199.00
94.7921 176.00
95.0963 223.00
95.4006 225.00
95.7048 211.00
96.0091 216.00
96.3134 204.00
96.6176 196.00
96.9219 194.00
97.2261 209.00
97.5304 213.00
97.8347 188.00
98.1389 194.00
98.4432 183.00
98.7474 198.00
99.0517 195.00
99.356 168.00
99.6602 165.00
99.9645 175.00
100.095 184.00

File: Na_113.xy
9.903433 2946.00
10.2077 2918.00
10.512 2774.00
10.8162 2723.00
11.1205 3404.00
11.4247 10039.00
11.729 5547.00
12.0333 2633.00
12.3375 2470.00
12.6418 2390.00
12.946 2191.00
13.2503 2081.00
13.5546 2091.00
13.8588 2010.00
14.1631 1968.00
14.4673 2006.00
14.7716 2522.00
15.0759 1872.00
15.3801 1877.00
15.6844 1908.00
15.9886 2224.00
16.2929 8567.00
16.5972 1905.00
16.9014 1849.00
17.2057 1786.00
17.5099 1738.00
17.8142 2121.00
18.1185 2299.00
18.4227 1656.00
18.727 1618.00
19.0312 1512.00
19.3355 1523.00
19.6398 1520.00
19.944 1435.00
20.2483 1682.00
20.5525 1451.00
20.8568 1775.00
21.1611 1331.00
21.4653 1356.00
21.7696 1350.00
22.0738 1261.00
22.3781 1308.00
22.6824 1337.00
22.9866 1344.00
23.2909 1341.00
23.5951 1209.00
23.8994 1340.00
24.2037 1721.00
24.5079 2676.00
24.8122 1319.00
25.1164 1321.00
25.4207 1495.00
25.725 4098.00
26.0292 8558.00
26.3335 1446.00
26.6378 4200.00
26.942 1623.00
27.2463 1416.00
27.5505 2044.00
27.8548 4792.00
28.1591 1610.00
28.4633 1089.00
28.7676 1070.00
29.0718 967.00
29.3761 1006.00
29.6804 1065.00
29.9846 2404.00
30.2889 2344.00
30.5931 928.00
30.8974 1001.00
31.2017 1157.00
31.5059 1353.00
31.8102 2174.00
32.1144 932.00
32.4187 1177.00
32.723 2153.00
33.0272 3940.00
33.3315 1179.00
33.6357 1110.00
33.94 4057.00
34.2443 6196.00
34.5485 2141.00
34.8528 2522.00
35.157 1250.00
35.4613 867.00
35.7656 754.00
36.0698 957.00
36.3741 1083.00
36.6783 1426.00
36.9826 1396.00
37.2869 805.00
37.5911 967.00
37.8954 1049.00
38.1996 1303.00
38.5039 735.00
38.8082 756.00
39.1124 1099.00
39.4167 775.00
39.7209 729.00
40.0252 636.00
40.3295 723.00
40.6337 681.00
40.938 830.00
41.2422 818.00
41.5465 1072.00
41.8508 866.00
42.155 2170.00
42.4593 1298.00
42.7635 668.00
43.0678 625.00
43.3721 1277.00
43.6763 941.00
43.9806 647.00
44.2849 585.00
44.5891 632.00
44.8934 867.00
45.1976 794.00
45.5019 802.00
45.8062 590.00
46.1104 711.00
46.4147 580.00
46.7189 893.00
47.0232 1249.00
47.3275 2651.00
47.6317 945.00
47.936 678.00
48.2402 655.00
48.5445 891.00
48.8488 1165.00
49.153 911.00
49.4573 1101.00
49.7615 1249.00
50.0658 1473.00
50.3701 960.00
50.6743 651.00
50.9786 633.00
51.2828 668.00
51.5871 1636.00
51.8914 3237.00
52.1956 1072.00
52.4999 578.00
52.8041 664.00
53.1084 1051.00
53.4127 836.00
53.7169 825.00
54.0212 787.00
54.3254 751.00
54.6297 821.00
54.934 1039.00
55.2382 928.00
55.5425 1020.00
55.8467 600.00
56.151 906.00
56.4553 715.00
56.7595 990.00
57.0638 826.00
57.368 822.00
57.6723 752.00
57.9766 1009.00
58.2808 1639.00
58.5851 935.00
58.8893 1083.00
59.1936 1154.00
59.4979 2095.00
59.8021 1258.00
60.1064 1668.00
60.4106 693.00
60.7149 709.00
61.0192 566.00
61.3234 546.00
61.6277 856.00
61.932 888.00
62.2362 1236.00
62.5405 565.00
62.8447 1137.00
63.149 586.00
63.4533 552.00
63.7575 591.00
64.0618 652.00
64.366 779.00
64.6703 777.00
64.9745 945.00
65.2788 781.00
65.5831 835.00
65.8873 1045.00
66.1916 1047.00
66.4959 659.00
66.8001 598.00
67.1044 608.00
67.4086 606.00
67.7129 535.00
68.0172 613.00
68.3214 523.00
68.6257 688.00
68.9299 595.00
69.2342 517.00
69.5385 501.00
69.8427 475.00
70.147 471.00
70.4512 397.00
70.7555 523.00
71.0598 467.00
71.364 614.00
71.6683 516.00
71.9725 589.00
72.2768 713.00
72.5811 381.00
72.8853 407.00
73.1896 704.00
73.4938 562.00
73.7981 412.00
74.1024 520.00
74.4066 640.00
74.7109 455.00
75.0151 503.00
75.3194 481.00
75.6237 376.00
75.9279 447.00
76.2322 470.00
76.5364 514.00
76.8407 508.00
77.145 631.00
77.4492 479.00
77.7535 442.00
78.0577 408.00
78.362 460.00
78.6663 746.00
78.9705 848.00
79.2748 598.00
79.579 468.00
79.8833 492.00
80.1876 558.00
80.4918 445.00
80.7961 509.00
81.1003 529.00
81.4046 532.00
81.7089 468.00
82.0131 409.00
82.3174 356.00
82.6217 480.00
82.9259 444.00
83.2302 413.00
83.5344 523.00
83.8387 677.00
84.143 536.00
84.4472 553.00
84.7515 527.00
85.0557 517.00
85.36 526.00
85.6643 481.00
85.9685 572.00
86.2728 529.00
86.577 501.00
86.8813 521.00
87.1856 504.00
87.4898 458.00
87.7941 418.00
88.0983 418.00
88.4026 561.00
88.7069 481.00
89.0111 477.00
89.3154 544.00
89.6196 496.00
89.9239 544.00
90.2282 686.00
90.5324 549.00
90.8367 539.00
91.1409 600.00
91.4452 600.00
91.7495 562.00
92.0537 440.00
92.358 479.00
92.6622 515.00
92.9665 441.00
93.2708 461.00
93.575 467.00
93.8793 393.00
94.1835 415.00
94.4878 424.00
94.7921 389.00
95.0963 369.00
95.4006 421.00
95.7048 504.00
96.0091 541.00
96.3134 527.00
96.6176 505.00
96.9219 608.00
97.2261 534.00
97.5304 496.00
97.8347 472.00
98.1389 492.00
98.4432 424.00
98.7474 416.00
99.0517 420.00
99.356 492.00
99.6602 572.00
99.9645 499.00
100.095 458.00

File: Na_114.xy
9.903433 2799.00
10.2077 2594.00
10.512 2620.00
10.8162 2482.00
11.1205 2771.00
11.4247 5329.00
11.729 6145.00
12.0333 2376.00
12.3375 2123.00
12.6418 2088.00
12.946 1917.00
13.2503 1954.00
13.5546 1864.00
13.8588 1917.00
14.1631 1858.00
14.4673 1857.00
14.7716 2067.00
15.0759 1749.00
15.3801 1974.00
15.6844 1678.00
15.9886 1852.00
16.2929 4268.00
16.5972 1796.00
16.9014 1594.00
17.2057 1580.00
17.5099 1551.00
17.8142 1676.00
18.1185 2119.00
18.4227 1585.00
18.727 1384.00
19.0312 1454.00
19.3355 1323.00
19.6398 1321.00
19.944 1378.00
20.2483 1841.00
20.5525 1258.00
20.8568 1657.00
21.1611 1315.00
21.4653 1227.00
21.7696 1269.00
22.0738 1342.00
22.3781 1212.00
22.6824 1173.00
22.9866 1197.00
23.2909 1293.00
23.5951 1123.00
23.8994 1144.00
24.2037 1350.00
24.5079 1731.00
24.8122 1140.00
25.1164 1168.00
25.4207 1350.00
25.725 2431.00
26.0292 6766.00
26.3335 1367.00
26.6378 2553.00
26.942 1907.00
27.2463 1369.00
27.5505 1501.00
27.8548 4997.00
28.1591 2123.00
28.4633 1149.00
28.7676 1012.00
29.0718 956.00
29.3761 922.00
29.6804 1018.00
29.9846 1545.00
30.2889 1791.00
30.5931 954.00
30.8974 887.00
31.2017 1074.00
31.5059 1454.00
31.8102 1945.00
32.1144 1064.00
32.4187 1104.00
32.723 1460.00
33.0272 6494.00
33.3315 1604.00
33.6357 1006.00
33.94 2230.00
34.2443 3704.00
34.5485 3298.00
34.8528 2612.00
35.157 1133.00
35.4613 786.00
35.7656 761.00
36.0698 908.00
36.3741 1119.00
36.6783 1111.00
36.9826 1116.00
37.2869 899.00
37.5911 838.00
37.8954 924.00
38.1996 1262.00
38.5039 756.00
38.8082 797.00
39.1124 973.00
39.4167 719.00
39.7209 718.00
40.0252 590.00
40.3295 702.00
40.6337 747.00
40.938 794.00
41.2422 743.00
41.5465 795.00
41.8508 966.00
42.155 1585.00
42.4593 1420.00
42.7635 713.00
43.0678 663.00
43.3721 936.00
43.6763 904.00
43.9806 703.00
44.2849 632.00
44.5891 650.00
44.8934 797.00
45.1976 922.00
45.5019 843.00
45.8062 628.00
46.1104 728.00
46.4147 617.00
46.7189 802.00
47.0232 1085.00
47.3275 1596.00
47.6317 1543.00
47.936 647.00
48.2402 647.00
48.5445 880.00
48.8488 841.00
49.153 992.00
49.4573 726.00
49.7615 1302.00
50.0658 1272.00
50.3701 1199.00
50.6743 598.00
50.9786 625.00
51.2828 727.00
51.5871 951.00
51.8914 2291.00
52.1956 1232.00
52.4999 668.00
52.8041 555.00
53.1084 1105.00
53.4127 794.00
53.7169 710.00
54.0212 741.00
54.3254 741.00
54.6297 691.00
54.934 1082.00
55.2382 765.00
55.5425 1152.00
55.8467 556.00
56.151 926.00
56.4553 672.00
56.7595 943.00
57.0638 852.00
57.368 817.00
57.6723 698.00
57.9766 870.00
58.2808 1112.00
58.5851 1115.00
58.8893 880.00
59.1936 972.00
59.4979 1842.00
59.8021 1210.00
60.1064 1448.00
60.4106 849.00
60.7149 682.00
61.0192 636.00
61.3234 553.00
61.6277 802.00
61.932 715.00
62.2362 1009.00
62.5405 650.00
62.8447 915.00
63.149 680.00
63.4533 523.00
63.7575 576.00
64.0618 591.00
64.366 659.00
64.6703 650.00
64.9745 955.00
65.2788 679.00
65.5831 779.00
65.8873 928.00
66.1916 1021.00
66.4959 637.00
66.8001 629.00
67.1044 534.00
67.4086 621.00
67.7129 498.00
68.0172 616.00
68.3214 492.00
68.6257 643.00
68.9299 582.00
69.2342 524.00
69.5385 427.00
69.8427 463.00
70.147 469.00
70.4512 469.00
70.7555 503.00
71.0598 485.00
71.364 536.00
71.6683 531.00
71.9725 442.00
72.2768 725.00
72.5811 414.00
72.8853 407.00
73.1896 629.00
73.4938 583.00
73.7981 409.00
74.1024 422.00
74.4066 633.00
74.7109 472.00
75.0151 463.00
75.3194 582.00
75.6237 419.00
75.9279 388.00
76.2322 478.00
76.5364 466.00
76.8407 509.00
77.145 609.00
77.4492 533.00
77.7535 431.00
78.0577 461.00
78.362 408.00
78.6663 562.00
78.9705 749.00
79.2748 642.00
79.579 422.00
79.8833 412.00
80.1876 542.00
80.4918 518.00
80.7961 460.00
81.1003 475.00
81.4046 442.00
81.7089 449.00
82.0131 407.00
82.3174 385.00
82.6217 463.00
82.9259 453.00
83.2302 425.00
83.5344 478.00
83.8387 591.00
84.143 492.00
84.4472 442.00
84.7515 502.00
85.0557 563.00
85.36 446.00
85.6643 424.00
85.9685 537.00
86.2728 464.00
86.577 513.00
86.8813 492.00
87.1856 552.00
87.4898 482.00
87.7941 398.00
88.0983 403.00
88.4026 517.00
88.7069 487.00
89.0111 438.00
89.3154 469.00
89.6196 450.00
89.9239 574.00
90.2282 566.00
90.5324 515.00
90.8367 517.00
91.1409 574.00
91.4452 555.00
91.7495 482.00
92.0537 468.00
92.358 452.00
92.6622 502.00
92.9665 434.00
93.2708 399.00
93.575 484.00
93.8793 392.00
94.1835 439.00
94.4878 387.00
94.7921 405.00
95.0963 398.00
95.4006 437.00
95.7048 502.00
96.0091 469.00
96.3134 510.00
96.6176 459.00
96.9219 524.00
97.2261 548.00
97.5304 476.00
97.8347 455.00
98.1389 439.00
98.4432 406.00
98.7474 415.00
99.0517 456.00
99.356 435.00
99.6602 546.00
99.9645 496.00
100.095 485.00

File: Na_115.xy
9.903433 2726.00
10.2077 2522.00
10.512 2550.00
10.8162 2445.00
11.1205 2345.00
11.4247 2650.00
11.729 4818.00
12.0333 2876.00
12.3375 2031.00
12.6418 2084.00
12.946 1984.00
13.2503 1890.00
13.5546 1888.00
13.8588 1806.00
14.1631 1722.00
14.4673 1712.00
14.7716 1792.00
15.0759 1792.00
15.3801 1778.00
15.6844 1756.00
15.9886 1706.00
16.2929 1972.00
16.5972 3291.00
16.9014 1644.00
17.2057 1433.00
17.5099 1528.00
17.8142 1516.00
18.1185 1846.00
18.4227 1601.00
18.727 1452.00
19.0312 1392.00
19.3355 1425.00
19.6398 1289.00
19.944 1358.00
20.2483 1351.00
20.5525 1466.00
20.8568 1340.00
21.1611 1472.00
21.4653 1257.00
21.7696 1210.00
22.0738 1250.00
22.3781 1157.00
22.6824 1232.00
22.9866 1119.00
23.2909 1257.00
23.5951 1197.00
23.8994 1107.00
24.2037 1201.00
24.5079 1525.00
24.8122 1527.00
25.1164 1051.00
25.4207 1235.00
25.725 1272.00
26.0292 3807.00
26.3335 2511.00
26.6378 1263.00
26.942 2170.00
27.2463 1206.00
27.5505 1146.00
27.8548 3113.00
28.1591 2681.00
28.4633 1093.00
28.7676 891.00
29.0718 808.00
29.3761 866.00
29.6804 896.00
29.9846 940.00
30.2889 1671.00
30.5931 1279.00
30.8974 892.00
31.2017 858.00
31.5059 1345.00
31.8102 1173.00
32.1144 1193.00
32.4187 958.00
32.723 990.00
33.0272 3858.00
33.3315 1681.00
33.6357 1012.00
33.94 1144.00
34.2443 2239.00
34.5485 4961.00
34.8528 2030.00
35.157 1142.00
35.4613 773.00
35.7656 753.00
36.0698 741.00
36.3741 987.00
36.6783 920.00
36.9826 991.00
37.2869 1017.00
37.5911 678.00
37.8954 820.00
38.1996 890.00
38.5039 730.00
38.8082 686.00
39.1124 745.00
39.4167 718.00
39.7209 679.00
40.0252 567.00
40.3295 648.00
40.6337 660.00
40.938 641.00
41.2422 672.00
41.5465 687.00
41.8508 1007.00
42.155 1106.00
42.4593 1330.00
42.7635 753.00
43.0678 636.00
43.3721 648.00
43.6763 890.00
43.9806 741.00
44.2849 606.00
44.5891 561.00
44.8934 580.00
45.1976 832.00
45.5019 738.00
45.8062 658.00
46.1104 603.00
46.4147 559.00
46.7189 581.00
47.0232 804.00
47.3275 1120.00
47.6317 1855.00
47.936 669.00
48.2402 581.00
48.5445 664.00
48.8488 696.00
49.153 973.00
49.4573 748.00
49.7615 1314.00
50.0658 1193.00
50.3701 1208.00
50.6743 644.00
50.9786 554.00
51.2828 610.00
51.5871 623.00
51.8914 1491.00
52.1956 1422.00
52.4999 643.00
52.8041 520.00
53.1084 794.00
53.4127 792.00
53.7169 581.00
54.0212 659.00
54.3254 631.00
54.6297 616.00
54.934 750.00
55.2382 663.00
55.5425 902.00
55.8467 637.00
56.151 670.00
56.4553 734.00
56.7595 661.00
57.0638 794.00
57.368 778.00
57.6723 608.00
57.9766 673.00
58.2808 826.00
58.5851 1313.00
58.8893 831.00
59.1936 910.00
59.4979 1405.00
59.8021 1525.00
60.1064 1061.00
60.4106 993.00
60.7149 590.00
61.0192 629.00
61.3234 555.00
61.6277 649.00
61.932 646.00
62.2362 788.00
62.5405 746.00
62.8447 618.00
63.149 788.00
63.4533 495.00
63.7575 558.00
64.0618 602.00
64.366 658.00
64.6703 610.00
64.9745 823.00
65.2788 680.00
65.5831 686.00
65.8873 791.00
66.1916 894.00
66.4959 654.00
66.8001 595.00
67.1044 501.00
67.4086 618.00
67.7129 462.00
68.0172 548.00
68.3214 457.00
68.6257 616.00
68.9299 632.00
69.2342 517.00
69.5385 464.00
69.8427 462.00
70.147 424.00
70.4512 407.00
70.7555 399.00
71.0598 424.00
71.364 427.00
71.6683 489.00
71.9725 450.00
72.2768 656.00
72.5811 476.00
72.8853 363.00
73.1896 460.00
73.4938 627.00
73.7981 427.00
74.1024 363.00
74.4066 516.00
74.7109 501.00
75.0151 407.00
75.3194 537.00
75.6237 410.00
75.9279 379.00
76.2322 489.00
76.5364 459.00
76.8407 489.00
77.145 501.00
77.4492 530.00
77.7535 451.00
78.0577 438.00
78.362 399.00
78.6663 486.00
78.9705 715.00
79.2748 605.00
79.579 440.00
79.8833 385.00
80.1876 497.00
80.4918 494.00
80.7961 438.00
81.1003 450.00
81.4046 463.00
81.7089 470.00
82.0131 415.00
82.3174 375.00
82.6217 499.00
82.9259 453.00
83.2302 394.00
83.5344 420.00
83.8387 491.00
84.143 508.00
84.4472 444.00
84.7515 537.00
85.0557 500.00
85.36 434.00
85.6643 411.00
85.9685 426.00
86.2728 475.00
86.577 508.00
86.8813 484.00
87.1856 489.00
87.4898 455.00
87.7941 418.00
88.0983 397.00
88.4026 493.00
88.7069 530.00
89.0111 413.00
89.3154 451.00
89.6196 494.00
89.9239 448.00
90.2282 472.00
90.5324 553.00
90.8367 477.00
91.1409 510.00
91.4452 520.00
91.7495 531.00
92.0537 475.00
92.358 396.00
92.6622 470.00
92.9665 470.00
93.2708 395.00
93.575 432.00
93.8793 418.00
94.1835 399.00
94.4878 379.00
94.7921 370.00
95.0963 372.00
95.4006 442.00
95.7048 450.00
96.0091 495.00
96.3134 491.00
96.6176 472.00
96.9219 496.00
97.2261 546.00
97.5304 507.00
97.8347 474.00
98.1389 464.00
98.4432 442.00
98.7474 446.00
99.0517 406.00
99.356 471.00
99.6602 485.00
99.9645 484.00
100.095 452.00