Folder: alab-pipeline/data/xrd_creation/results (part 110)

File: PG_2648-1.xy
9.903433 3091.00
10.2077 2932.00
10.512 2967.00
10.8162 2747.00
11.1205 2642.00
11.4247 2643.00
11.729 2612.00
12.0333 2460.00
12.3375 2560.00
12.6418 2375.00
12.946 2343.00
13.2503 2364.00
13.5546 2295.00
13.8588 2241.00
14.1631 2187.00
14.4673 2240.00
14.7716 2264.00
15.0759 2212.00
15.3801 2263.00
15.6844 3222.00
15.9886 2216.00
16.2929 2181.00
16.5972 2119.00
16.9014 2139.00
17.2057 2140.00
17.5099 2034.00
17.8142 2067.00
18.1185 2209.00
18.4227 2375.00
18.727 2013.00
19.0312 1979.00
19.3355 2058.00
19.6398 1959.00
19.944 2020.00
20.2483 2093.00
20.5525 4565.00
20.8568 2412.00
21.1611 1961.00
21.4653 1920.00
21.7696 2071.00
22.0738 3400.00
22.3781 1886.00
22.6824 1931.00
22.9866 1949.00
23.2909 1892.00
23.5951 1844.00
23.8994 1819.00
24.2037 1801.00
24.5079 1766.00
24.8122 1734.00
25.1164 1786.00
25.4207 1783.00
25.725 1853.00
26.0292 1981.00
26.3335 2187.00
26.6378 2460.00
26.942 1760.00
27.2463 1797.00
27.5505 1897.00
27.8548 2183.00
28.1591 1885.00
28.4633 1858.00
28.7676 1878.00
29.0718 1957.00
29.3761 2089.00
29.6804 1901.00
29.9846 1766.00
30.2889 1665.00
30.5931 1658.00
30.8974 1717.00
31.2017 2343.00
31.5059 2883.00
31.8102 1719.00
32.1144 1811.00
32.4187 1778.00
32.723 3593.00
33.0272 1897.00
33.3315 1792.00
33.6357 2024.00
33.94 1707.00
34.2443 1736.00
34.5485 2013.00
34.8528 1839.00
35.157 2503.00
35.4613 2136.00
35.7656 1710.00
36.0698 1829.00
36.3741 2309.00
36.6783 1999.00
36.9826 1771.00
37.2869 1624.00
37.5911 1639.00
37.8954 1576.00
38.1996 1609.00
38.5039 1610.00
38.8082 1610.00
39.1124 1567.00
39.4167 1574.00
39.7209 1498.00
40.0252 1561.00
40.3295 1538.00
40.6337 1827.00
40.938 5587.00
41.2422 1787.00
41.5465 2099.00
41.8508 1693.00
42.155 1589.00
42.4593 1817.00
42.7635 1558.00
43.0678 1484.00
43.3721 1501.00
43.6763 1530.00
43.9806 1514.00
44.2849 1528.00
44.5891 1612.00
44.8934 1570.00
45.1976 1551.00
45.5019 1448.00
45.8062 2056.00
46.1104 1513.00
46.4147 1485.00
46.7189 1450.00
47.0232 1411.00
47.3275 1452.00
47.6317 2182.00
47.936 1566.00
48.2402 1949.00
48.5445 1534.00
48.8488 1462.00
49.153 2041.00
49.4573 1467.00
49.7615 1561.00
50.0658 1469.00
50.3701 1555.00
50.6743 1485.00
50.9786 1533.00
51.2828 1596.00
51.5871 2332.00
51.8914 1618.00
52.1956 1598.00
52.4999 1690.00
52.8041 1521.00
53.1084 1442.00
53.4127 1458.00
53.7169 1505.00
54.0212 1598.00
54.3254 1557.00
54.6297 1469.00
54.934 1411.00
55.2382 1405.00
55.5425 1432.00
55.8467 1540.00
56.151 1675.00
56.4553 1542.00
56.7595 1585.00
57.0638 1493.00
57.368 1532.00
57.6723 1455.00
57.9766 1482.00
58.2808 1548.00
58.5851 1674.00
58.8893 2595.00
59.1936 2625.00
59.4979 1822.00
59.8021 1676.00
60.1064 1769.00
60.4106 1760.00
60.7149 1601.00
61.0192 1543.00
61.3234 1684.00
61.6277 1708.00
61.932 1503.00
62.2362 1448.00
62.5405 1754.00
62.8447 1545.00
63.149 1469.00
63.4533 1461.00
63.7575 1364.00
64.0618 1482.00
64.366 1522.00
64.6703 1600.00
64.9745 1663.00
65.2788 1514.00
65.5831 1491.00
65.8873 1497.00
66.1916 1443.00
66.4959 1504.00
66.8001 1434.00
67.1044 1441.00
67.4086 1377.00
67.7129 1343.00
68.0172 1531.00
68.3214 1513.00
68.6257 1559.00
68.9299 1502.00
69.2342 1532.00
69.5385 1503.00
69.8427 1512.00
70.147 1624.00
70.4512 2073.00
70.7555 1721.00
71.0598 1496.00
71.364 1487.00
71.6683 1434.00
71.9725 1460.00
72.2768 1485.00
72.5811 1762.00
72.8853 1581.00
73.1896 1637.00
73.4938 1405.00
73.7981 1495.00
74.1024 1831.00
74.4066 1668.00
74.7109 1587.00
75.0151 1533.00
75.3194 1458.00
75.6237 1474.00
75.9279 1383.00
76.2322 1540.00
76.5364 1490.00
76.8407 1462.00
77.145 1497.00
77.4492 1392.00
77.7535 1442.00
78.0577 1463.00
78.362 1472.00
78.6663 1541.00
78.9705 1496.00
79.2748 1385.00
79.579 1441.00
79.8833 1410.00
80.1876 1460.00
80.4918 1357.00
80.7961 1384.00
81.1003 1420.00
81.4046 1435.00
81.7089 1500.00
82.0131 1384.00
82.3174 1421.00
82.6217 1420.00
82.9259 1372.00
83.2302 1367.00
83.5344 1443.00
83.8387 1386.00
84.143 1386.00
84.4472 1384.00
84.7515 1392.00
85.0557 1426.00
85.36 1390.00
85.6643 1481.00
85.9685 1371.00
86.2728 1346.00
86.577 1471.00
86.8813 1488.00
87.1856 1476.00
87.4898 1454.00
87.7941 1503.00
88.0983 1598.00
88.4026 1469.00
88.7069 1416.00
89.0111 1464.00
89.3154 1422.00
89.6196 1456.00
89.9239 1447.00
90.2282 1439.00
90.5324 1361.00
90.8367 1463.00
91.1409 1453.00
91.4452 1457.00
91.7495 1398.00
92.0537 1344.00
92.358 1352.00
92.6622 1394.00
92.9665 1402.00
93.2708 1481.00
93.575 1469.00
93.8793 1459.00
94.1835 1489.00
94.4878 1416.00
94.7921 1481.00
95.0963 1427.00
95.4006 1468.00
95.7048 1502.00
96.0091 1437.00
96.3134 1378.00
96.6176 1427.00
96.9219 1409.00
97.2261 1451.00
97.5304 1464.00
97.8347 1392.00
98.1389 1467.00
98.4432 1503.00
98.7474 1476.00
99.0517 1470.00
99.356 1450.00
99.6602 1471.00
99.9645 1502.00
100.095 1438.00

File: PG_2649-1.xy
9.903433 2592.00
10.2077 2488.00
10.512 2403.00
10.8162 2331.00
11.1205 2141.00
11.4247 2120.00
11.729 2135.00
12.0333 1949.00
12.3375 1950.00
12.6418 1860.00
12.946 1788.00
13.2503 1736.00
13.5546 1640.00
13.8588 1699.00
14.1631 1696.00
14.4673 1630.00
14.7716 1597.00
15.0759 1588.00
15.3801 1726.00
15.6844 3301.00
15.9886 1595.00
16.2929 1412.00
16.5972 1412.00
16.9014 1471.00
17.2057 1414.00
17.5099 1361.00
17.8142 1327.00
18.1185 1517.00
18.4227 2333.00
18.727 7053.00
19.0312 1442.00
19.3355 1241.00
19.6398 1222.00
19.944 1229.00
20.2483 1241.00
20.5525 1202.00
20.8568 1181.00
21.1611 1221.00
21.4653 1228.00
21.7696 1203.00
22.0738 1151.00
22.3781 1085.00
22.6824 1036.00
22.9866 1220.00
23.2909 1349.00
23.5951 1860.00
23.8994 10795.00
24.2037 2869.00
24.5079 1706.00
24.8122 1080.00
25.1164 1005.00
25.4207 1098.00
25.725 1071.00
26.0292 1025.00
26.3335 963.00
26.6378 1013.00
26.942 996.00
27.2463 930.00
27.5505 908.00
27.8548 937.00
28.1591 937.00
28.4633 931.00
28.7676 974.00
29.0718 999.00
29.3761 1095.00
29.6804 1328.00
29.9846 6017.00
30.2889 2490.00
30.5931 19382.00
30.8974 1299.00
31.2017 1653.00
31.5059 1455.00
31.8102 925.00
32.1144 942.00
32.4187 889.00
32.723 941.00
33.0272 865.00
33.3315 893.00
33.6357 978.00
33.94 950.00
34.2443 892.00
34.5485 1012.00
34.8528 873.00
35.157 862.00
35.4613 854.00
35.7656 973.00
36.0698 1830.00
36.3741 5694.00
36.6783 1846.00
36.9826 919.00
37.2869 1034.00
37.5911 2753.00
37.8954 823.00
38.1996 809.00
38.5039 791.00
38.8082 779.00
39.1124 763.00
39.4167 816.00
39.7209 898.00
40.0252 796.00
40.3295 963.00
40.6337 2827.00
40.938 1351.00
41.2422 3792.00
41.5465 839.00
41.8508 807.00
42.155 831.00
42.4593 752.00
42.7635 746.00
43.0678 724.00
43.3721 827.00
43.6763 1881.00
43.9806 809.00
44.2849 1789.00
44.5891 1449.00
44.8934 792.00
45.1976 1940.00
45.5019 727.00
45.8062 763.00
46.1104 723.00
46.4147 730.00
46.7189 704.00
47.0232 763.00
47.3275 759.00
47.6317 1464.00
47.936 779.00
48.2402 896.00
48.5445 2729.00
48.8488 796.00
49.153 818.00
49.4573 2484.00
49.7615 932.00
50.0658 822.00
50.3701 836.00
50.6743 799.00
50.9786 867.00
51.2828 1215.00
51.5871 3378.00
51.8914 1032.00
52.1956 1319.00
52.4999 2726.00
52.8041 2571.00
53.1084 1182.00
53.4127 3145.00
53.7169 2246.00
54.0212 750.00
54.3254 750.00
54.6297 919.00
54.934 1380.00
55.2382 852.00
55.5425 796.00
55.8467 737.00
56.151 923.00
56.4553 743.00
56.7595 751.00
57.0638 711.00
57.368 832.00
57.6723 861.00
57.9766 1133.00
58.2808 710.00
58.5851 698.00
58.8893 639.00
59.1936 698.00
59.4979 704.00
59.8021 908.00
60.1064 730.00
60.4106 775.00
60.7149 1456.00
61.0192 2312.00
61.3234 1091.00
61.6277 2667.00
61.932 1727.00
62.2362 1473.00
62.5405 2485.00
62.8447 1091.00
63.149 1402.00
63.4533 2154.00
63.7575 897.00
64.0618 2041.00
64.366 1235.00
64.6703 2803.00
64.9745 2119.00
65.2788 832.00
65.5831 725.00
65.8873 698.00
66.1916 719.00
66.4959 733.00
66.8001 874.00
67.1044 714.00
67.4086 699.00
67.7129 1200.00
68.0172 1882.00
68.3214 911.00
68.6257 903.00
68.9299 869.00
69.2342 1068.00
69.5385 957.00
69.8427 740.00
70.147 1069.00
70.4512 1136.00
70.7555 831.00
71.0598 1336.00
71.364 1047.00
71.6683 950.00
71.9725 711.00
72.2768 702.00
72.5811 964.00
72.8853 729.00
73.1896 1002.00
73.4938 898.00
73.7981 683.00
74.1024 757.00
74.4066 891.00
74.7109 680.00
75.0151 655.00
75.3194 695.00
75.6237 673.00
75.9279 709.00
76.2322 753.00
76.5364 1269.00
76.8407 814.00
77.145 759.00
77.4492 1249.00
77.7535 1212.00
78.0577 913.00
78.362 777.00
78.6663 782.00
78.9705 859.00
79.2748 927.00
79.579 1263.00
79.8833 1901.00
80.1876 1214.00
80.4918 1113.00
80.7961 777.00
81.1003 739.00
81.4046 659.00
81.7089 747.00
82.0131 821.00
82.3174 698.00
82.6217 646.00
82.9259 692.00
83.2302 704.00
83.5344 690.00
83.8387 935.00
84.143 870.00
84.4472 847.00
84.7515 1461.00
85.0557 921.00
85.36 715.00
85.6643 649.00
85.9685 661.00
86.2728 734.00
86.577 767.00
86.8813 1341.00
87.1856 1687.00
87.4898 1159.00
87.7941 1642.00
88.0983 1297.00
88.4026 764.00
88.7069 742.00
89.0111 946.00
89.3154 1339.00
89.6196 1171.00
89.9239 1224.00
90.2282 1447.00
90.5324 1023.00
90.8367 939.00
91.1409 881.00
91.4452 1047.00
91.7495 821.00
92.0537 715.00
92.358 687.00
92.6622 720.00
92.9665 856.00
93.2708 791.00
93.575 872.00
93.8793 845.00
94.1835 739.00
94.4878 778.00
94.7921 847.00
95.0963 1043.00
95.4006 1159.00
95.7048 885.00
96.0091 769.00
96.3134 699.00
96.6176 710.00
96.9219 750.00
97.2261 894.00
97.5304 1168.00
97.8347 1412.00
98.1389 1311.00
98.4432 1325.00
98.7474 1094.00
99.0517 757.00
99.356 728.00
99.6602 833.00
99.9645 794.00
100.095 741.00

File: PG_2650-1.xy
9.903433 2963.00
10.2077 2882.00
10.512 2763.00
10.8162 2689.00
11.1205 2618.00
11.4247 2626.00
11.729 2485.00
12.0333 2538.00
12.3375 2410.00
12.6418 2342.00
12.946 2348.00
13.2503 2282.00
13.5546 2210.00
13.8588 2286.00
14.1631 2371.00
14.4673 2313.00
14.7716 2234.00
15.0759 2331.00
15.3801 2217.00
15.6844 2354.00
15.9886 2620.00
16.2929 2189.00
16.5972 2252.00
16.9014 2329.00
17.2057 2255.00
17.5099 2230.00
17.8142 2230.00
18.1185 2264.00
18.4227 2281.00
18.727 2164.00
19.0312 2182.00
19.3355 2215.00
19.6398 2105.00
19.944 2111.00
20.2483 2163.00
20.5525 2436.00
20.8568 3842.00
21.1611 2226.00
21.4653 2190.00
21.7696 2158.00
22.0738 2091.00
22.3781 2073.00
22.6824 2047.00
22.9866 2142.00
23.2909 2252.00
23.5951 2092.00
23.8994 2036.00
24.2037 1999.00
24.5079 2023.00
24.8122 2141.00
25.1164 2072.00
25.4207 1980.00
25.725 2027.00
26.0292 2045.00
26.3335 1982.00
26.6378 2034.00
26.942 1965.00
27.2463 1945.00
27.5505 2048.00
27.8548 2029.00
28.1591 2099.00
28.4633 2129.00
28.7676 2383.00
29.0718 3146.00
29.3761 14159.00
29.6804 3675.00
29.9846 2369.00
30.2889 5101.00
30.5931 2557.00
30.8974 2087.00
31.2017 2121.00
31.5059 2366.00
31.8102 4186.00
32.1144 2217.00
32.4187 2116.00
32.723 2476.00
33.0272 2385.00
33.3315 7253.00
33.6357 2702.00
33.94 3016.00
34.2443 3366.00
34.5485 1996.00
34.8528 1868.00
35.157 1859.00
35.4613 1927.00
35.7656 2024.00
36.0698 2315.00
36.3741 2926.00
36.6783 2005.00
36.9826 1926.00
37.2869 1955.00
37.5911 2087.00
37.8954 2046.00
38.1996 2157.00
38.5039 2003.00
38.8082 1807.00
39.1124 1895.00
39.4167 1913.00
39.7209 1880.00
40.0252 2228.00
40.3295 2143.00
40.6337 1874.00
40.938 1832.00
41.2422 1892.00
41.5465 1838.00
41.8508 1873.00
42.155 1977.00
42.4593 1877.00
42.7635 1891.00
43.0678 1847.00
43.3721 2123.00
43.6763 4062.00
43.9806 2383.00
44.2849 1829.00
44.5891 1876.00
44.8934 1891.00
45.1976 1782.00
45.5019 1767.00
45.8062 1842.00
46.1104 1883.00
46.4147 1897.00
46.7189 1824.00
47.0232 2125.00
47.3275 2248.00
47.6317 1902.00
47.936 1909.00
48.2402 2091.00
48.5445 2365.00
48.8488 10273.00
49.153 2363.00
49.4573 1912.00
49.7615 1938.00
50.0658 2515.00
50.3701 2397.00
50.6743 1957.00
50.9786 2150.00
51.2828 2487.00
51.5871 4005.00
51.8914 3117.00
52.1956 1997.00
52.4999 1882.00
52.8041 1889.00
53.1084 1896.00
53.4127 2392.00
53.7169 2014.00
54.0212 1919.00
54.3254 2078.00
54.6297 1796.00
54.934 2073.00
55.2382 1936.00
55.5425 1850.00
55.8467 1916.00
56.151 2065.00
56.4553 2815.00
56.7595 1995.00
57.0638 2055.00
57.368 2945.00
57.6723 2813.00
57.9766 5339.00
58.2808 2117.00
58.5851 1931.00
58.8893 1981.00
59.1936 2181.00
59.4979 2398.00
59.8021 1951.00
60.1064 2634.00
60.4106 2258.00
60.7149 3016.00
61.0192 2114.00
61.3234 1944.00
61.6277 2618.00
61.932 2946.00
62.2362 2233.00
62.5405 2202.00
62.8447 2326.00
63.149 1961.00
63.4533 1967.00
63.7575 1830.00
64.0618 1799.00
64.366 1802.00
64.6703 1950.00
64.9745 2388.00
65.2788 2039.00
65.5831 1997.00
65.8873 2004.00
66.1916 2117.00
66.4959 1923.00
66.8001 1760.00
67.1044 1730.00
67.4086 1749.00
67.7129 1871.00
68.0172 2035.00
68.3214 2070.00
68.6257 1876.00
68.9299 1824.00
69.2342 1901.00
69.5385 1986.00
69.8427 2041.00
70.147 1999.00
70.4512 1859.00
70.7555 1733.00
71.0598 1797.00
71.364 2403.00
71.6683 1894.00
71.9725 1814.00
72.2768 1951.00
72.5811 2503.00
72.8853 2012.00
73.1896 1765.00
73.4938 1773.00
73.7981 2099.00
74.1024 1981.00
74.4066 1915.00
74.7109 1867.00
75.0151 1914.00
75.3194 1997.00
75.6237 1813.00
75.9279 1780.00
76.2322 1899.00
76.5364 1979.00
76.8407 1814.00
77.145 1743.00
77.4492 1881.00
77.7535 2075.00
78.0577 1720.00
78.362 1817.00
78.6663 2016.00
78.9705 2260.00
79.2748 1862.00
79.579 1734.00
79.8833 1787.00
80.1876 1870.00
80.4918 1969.00
80.7961 2087.00
81.1003 2036.00
81.4046 2325.00
81.7089 1931.00
82.0131 1834.00
82.3174 1817.00
82.6217 1959.00
82.9259 1986.00
83.2302 2065.00
83.5344 2059.00
83.8387 2018.00
84.143 1821.00
84.4472 1920.00
84.7515 1919.00
85.0557 2228.00
85.36 2220.00
85.6643 1981.00
85.9685 1888.00
86.2728 1847.00
86.577 1782.00
86.8813 1857.00
87.1856 1954.00
87.4898 2154.00
87.7941 1900.00
88.0983 2084.00
88.4026 1990.00
88.7069 1893.00
89.0111 1808.00
89.3154 1784.00
89.6196 1919.00
89.9239 1941.00
90.2282 1827.00
90.5324 1805.00
90.8367 2144.00
91.1409 2203.00
91.4452 2055.00
91.7495 1912.00
92.0537 1988.00
92.358 2009.00
92.6622 1758.00
92.9665 1889.00
93.2708 1787.00
93.575 1946.00
93.8793 1832.00
94.1835 1749.00
94.4878 1819.00
94.7921 1988.00
95.0963 1844.00
95.4006 1954.00
95.7048 2126.00
96.0091 2050.00
96.3134 1951.00
96.6176 1908.00
96.9219 1942.00
97.2261 2030.00
97.5304 1989.00
97.8347 2097.00
98.1389 2243.00
98.4432 2055.00
98.7474 1930.00
99.0517 1809.00
99.356 2103.00
99.6602 1933.00
99.9645 1968.00
100.095 1734.00

File: PG_2652-1.xy
9.903433 2721.00
10.2077 2653.00
10.512 2536.00
10.8162 2511.00
11.1205 2363.00
11.4247 2301.00
11.729 2188.00
12.0333 2175.00
12.3375 2180.00
12.6418 2103.00
12.946 2154.00
13.2503 2021.00
13.5546 1902.00
13.8588 1914.00
14.1631 1945.00
14.4673 1842.00
14.7716 1864.00
15.0759 1847.00
15.3801 1882.00
15.6844 1757.00
15.9886 1848.00
16.2929 1742.00
16.5972 1784.00
16.9014 1711.00
17.2057 1781.00
17.5099 1782.00
17.8142 1717.00
18.1185 1739.00
18.4227 1705.00
18.727 1631.00
19.0312 1556.00
19.3355 1653.00
19.6398 1517.00
19.944 1608.00
20.2483 1490.00
20.5525 1498.00
20.8568 1428.00
21.1611 1538.00
21.4653 1455.00
21.7696 1433.00
22.0738 1442.00
22.3781 1455.00
22.6824 1447.00
22.9866 1486.00
23.2909 1389.00
23.5951 1466.00
23.8994 1594.00
24.2037 1770.00
24.5079 1746.00
24.8122 1488.00
25.1164 1374.00
25.4207 1380.00
25.725 1370.00
26.0292 1280.00
26.3335 1365.00
26.6378 1311.00
26.942 1327.00
27.2463 1313.00
27.5505 1308.00
27.8548 1431.00
28.1591 4749.00
28.4633 1897.00
28.7676 1522.00
29.0718 1411.00
29.3761 1293.00
29.6804 1250.00
29.9846 1200.00
30.2889 1168.00
30.5931 1244.00
30.8974 1350.00
31.2017 1688.00
31.5059 3995.00
31.8102 1379.00
32.1144 1275.00
32.4187 1816.00
32.723 1309.00
33.0272 1207.00
33.3315 1160.00
33.6357 1206.00
33.94 1371.00
34.2443 1850.00
34.5485 1589.00
34.8528 1224.00
35.157 1359.00
35.4613 1512.00
35.7656 1297.00
36.0698 2211.00
36.3741 1334.00
36.6783 1217.00
36.9826 1105.00
37.2869 1115.00
37.5911 1165.00
37.8954 1340.00
38.1996 1153.00
38.5039 1264.00
38.8082 1180.00
39.1124 1157.00
39.4167 1202.00
39.7209 1080.00
40.0252 1170.00
40.3295 1165.00
40.6337 1505.00
40.938 1407.00
41.2422 1363.00
41.5465 1306.00
41.8508 1116.00
42.155 1121.00
42.4593 1058.00
42.7635 1122.00
43.0678 1116.00
43.3721 1101.00
43.6763 1112.00
43.9806 1111.00
44.2849 1131.00
44.5891 1338.00
44.8934 1411.00
45.1976 1128.00
45.5019 1456.00
45.8062 1157.00
46.1104 1078.00
46.4147 1061.00
46.7189 1058.00
47.0232 1117.00
47.3275 1062.00
47.6317 1107.00
47.936 1079.00
48.2402 1179.00
48.5445 1150.00
48.8488 1191.00
49.153 1569.00
49.4573 1696.00
49.7615 1284.00
50.0658 2053.00
50.3701 1783.00
50.6743 1973.00
50.9786 1228.00
51.2828 1431.00
51.5871 1138.00
51.8914 1115.00
52.1956 1137.00
52.4999 1059.00
52.8041 1118.00
53.1084 1128.00
53.4127 1144.00
53.7169 1233.00
54.0212 1828.00
54.3254 1310.00
54.6297 1219.00
54.934 1156.00
55.2382 1685.00
55.5425 1698.00
55.8467 1501.00
56.151 1484.00
56.4553 1193.00
56.7595 1162.00
57.0638 1326.00
57.368 1407.00
57.6723 1159.00
57.9766 1395.00
58.2808 1422.00
58.5851 1595.00
58.8893 1204.00
59.1936 1145.00
59.4979 1187.00
59.8021 2187.00
60.1064 1968.00
60.4106 1254.00
60.7149 1217.00
61.0192 1170.00
61.3234 1409.00
61.6277 1319.00
61.932 1495.00
62.2362 1303.00
62.5405 1172.00
62.8447 1659.00
63.149 1230.00
63.4533 1110.00
63.7575 1125.00
64.0618 1193.00
64.366 1340.00
64.6703 1407.00
64.9745 1149.00
65.2788 1237.00
65.5831 1544.00
65.8873 1464.00
66.1916 1145.00
66.4959 1159.00
66.8001 1122.00
67.1044 1164.00
67.4086 1142.00
67.7129 1144.00
68.0172 1151.00
68.3214 1136.00
68.6257 1147.00
68.9299 1256.00
69.2342 1198.00
69.5385 1170.00
69.8427 1170.00
70.147 1166.00
70.4512 1102.00
70.7555 1225.00
71.0598 1388.00
71.364 1442.00
71.6683 1215.00
71.9725 1205.00
72.2768 1261.00
72.5811 1257.00
72.8853 1146.00
73.1896 1152.00
73.4938 1178.00
73.7981 1196.00
74.1024 1260.00
74.4066 1238.00
74.7109 1329.00
75.0151 1256.00
75.3194 1361.00
75.6237 1183.00
75.9279 1192.00
76.2322 1185.00
76.5364 1349.00
76.8407 1266.00
77.145 1165.00
77.4492 1341.00
77.7535 1312.00
78.0577 1241.00
78.362 1243.00
78.6663 1166.00
78.9705 1294.00
79.2748 1227.00
79.579 1210.00
79.8833 1168.00
80.1876 1244.00
80.4918 1299.00
80.7961 1122.00
81.1003 1308.00
81.4046 1254.00
81.7089 1280.00
82.0131 1165.00
82.3174 1205.00
82.6217 1314.00
82.9259 1331.00
83.2302 1327.00
83.5344 1252.00
83.8387 1355.00
84.143 1340.00
84.4472 1301.00
84.7515 1256.00
85.0557 1270.00
85.36 1268.00
85.6643 1181.00
85.9685 1292.00
86.2728 1308.00
86.577 1282.00
86.8813 1173.00
87.1856 1205.00
87.4898 1273.00
87.7941 1259.00
88.0983 1341.00
88.4026 1415.00
88.7069 1312.00
89.0111 1383.00
89.3154 1211.00
89.6196 1299.00
89.9239 1351.00
90.2282 1291.00
90.5324 1271.00
90.8367 1256.00
91.1409 1278.00
91.4452 1217.00
91.7495 1234.00
92.0537 1194.00
92.358 1317.00
92.6622 1206.00
92.9665 1287.00
93.2708 1248.00
93.575 1241.00
93.8793 1257.00
94.1835 1300.00
94.4878 1291.00
94.7921 1354.00
95.0963 1372.00
95.4006 1307.00
95.7048 1282.00
96.0091 1365.00
96.3134 1462.00
96.6176 1570.00
96.9219 1584.00
97.2261 1286.00
97.5304 1321.00
97.8347 1307.00
98.1389 1330.00
98.4432 1394.00
98.7474 1478.00
99.0517 1443.00
99.356 1406.00
99.6602 1372.00
99.9645 1327.00
100.095 1309.00

File: PG_2734-1.xy
9.903433 4203.00
10.2077 4160.00
10.512 4011.00
10.8162 4015.00
11.1205 3983.00
11.4247 3893.00
11.729 3893.00
12.0333 3903.00
12.3375 3868.00
12.6418 3749.00
12.946 3894.00
13.2503 3814.00
13.5546 3766.00
13.8588 3657.00
14.1631 3839.00
14.4673 3788.00
14.7716 3787.00
15.0759 3725.00
15.3801 3782.00
15.6844 3743.00
15.9886 3660.00
16.2929 3741.00
16.5972 3924.00
16.9014 5440.00
17.2057 3802.00
17.5099 3684.00
17.8142 3803.00
18.1185 4042.00
18.4227 4500.00
18.727 3797.00
19.0312 3709.00
19.3355 3595.00
19.6398 3622.00
19.944 3630.00
20.2483 3637.00
20.5525 3496.00
20.8568 3544.00
21.1611 3589.00
21.4653 3530.00
21.7696 3585.00
22.0738 3632.00
22.3781 3512.00
22.6824 3635.00
22.9866 3567.00
23.2909 3441.00
23.5951 3437.00
23.8994 4097.00
24.2037 3566.00
24.5079 3511.00
24.8122 3450.00
25.1164 3547.00
25.4207 3403.00
25.725 3361.00
26.0292 3507.00
26.3335 3481.00
26.6378 3422.00
26.942 3465.00
27.2463 3405.00
27.5505 3474.00
27.8548 3443.00
28.1591 3443.00
28.4633 3540.00
28.7676 3512.00
29.0718 4623.00
29.3761 6513.00
29.6804 3414.00
29.9846 3439.00
30.2889 3450.00
30.5931 3391.00
30.8974 3412.00
31.2017 3729.00
31.5059 3569.00
31.8102 3448.00
32.1144 3459.00
32.4187 4320.00
32.723 7033.00
33.0272 3591.00
33.3315 3261.00
33.6357 3400.00
33.94 3620.00
34.2443 3302.00
34.5485 3295.00
34.8528 3357.00
35.157 3283.00
35.4613 3194.00
35.7656 3371.00
36.0698 3541.00
36.3741 10006.00
36.6783 4203.00
36.9826 3490.00
37.2869 3325.00
37.5911 3235.00
37.8954 3411.00
38.1996 4315.00
38.5039 3424.00
38.8082 3256.00
39.1124 3153.00
39.4167 3129.00
39.7209 3240.00
40.0252 3294.00
40.3295 3206.00
40.6337 3175.00
40.938 3079.00
41.2422 3203.00
41.5465 3148.00
41.8508 3164.00
42.155 3225.00
42.4593 3134.00
42.7635 3120.00
43.0678 3140.00
43.3721 3024.00
43.6763 3097.00
43.9806 3163.00
44.2849 3185.00
44.5891 3578.00
44.8934 3927.00
45.1976 3300.00
45.5019 4026.00
45.8062 3146.00
46.1104 3201.00
46.4147 3103.00
46.7189 3138.00
47.0232 3233.00
47.3275 3067.00
47.6317 3124.00
47.936 3212.00
48.2402 3117.00
48.5445 3038.00
48.8488 3089.00
49.153 3103.00
49.4573 3215.00
49.7615 3149.00
50.0658 3525.00
50.3701 3162.00
50.6743 3283.00
50.9786 4389.00
51.2828 3362.00
51.5871 3079.00
51.8914 3161.00
52.1956 3121.00
52.4999 3085.00
52.8041 3067.00
53.1084 2975.00
53.4127 3148.00
53.7169 3131.00
54.0212 3263.00
54.3254 3478.00
54.6297 3288.00
54.934 3184.00
55.2382 3144.00
55.5425 3079.00
55.8467 3110.00
56.151 3310.00
56.4553 3340.00
56.7595 3094.00
57.0638 3043.00
57.368 3104.00
57.6723 3230.00
57.9766 3283.00
58.2808 3134.00
58.5851 3465.00
58.8893 4522.00
59.1936 3328.00
59.4979 3209.00
59.8021 3355.00
60.1064 6040.00
60.4106 4136.00
60.7149 3276.00
61.0192 3157.00
61.3234 3135.00
61.6277 3044.00
61.932 2988.00
62.2362 3113.00
62.5405 3103.00
62.8447 3108.00
63.149 3091.00
63.4533 3401.00
63.7575 3126.00
64.0618 3033.00
64.366 3061.00
64.6703 3179.00
64.9745 4196.00
65.2788 3190.00
65.5831 3113.00
65.8873 3151.00
66.1916 3060.00
66.4959 3142.00
66.8001 3005.00
67.1044 2997.00
67.4086 3005.00
67.7129 3113.00
68.0172 3231.00
68.3214 3093.00
68.6257 3103.00
68.9299 3089.00
69.2342 2947.00
69.5385 3095.00
69.8427 3217.00
70.147 3187.00
70.4512 3185.00
70.7555 3019.00
71.0598 3225.00
71.364 2992.00
71.6683 3051.00
71.9725 3061.00
72.2768 3147.00
72.5811 3196.00
72.8853 3122.00
73.1896 3089.00
73.4938 3082.00
73.7981 3112.00
74.1024 3126.00
74.4066 3489.00
74.7109 3175.00
75.0151 3090.00
75.3194 3112.00
75.6237 3103.00
75.9279 3023.00
76.2322 3146.00
76.5364 3131.00
76.8407 3259.00
77.145 3173.00
77.4492 2971.00
77.7535 3290.00
78.0577 3232.00
78.362 3154.00
78.6663 3071.00
78.9705 3038.00
79.2748 2987.00
79.579 3080.00
79.8833 3125.00
80.1876 3139.00
80.4918 3141.00
80.7961 3125.00
81.1003 3192.00
81.4046 3221.00
81.7089 3157.00
82.0131 3048.00
82.3174 3028.00
82.6217 3086.00
82.9259 3066.00
83.2302 3028.00
83.5344 2976.00
83.8387 3020.00
84.143 3019.00
84.4472 2975.00
84.7515 3007.00
85.0557 3022.00
85.36 3050.00
85.6643 3059.00
85.9685 3151.00
86.2728 3131.00
86.577 3214.00
86.8813 3233.00
87.1856 3144.00
87.4898 3018.00
87.7941 3002.00
88.0983 3118.00
88.4026 3052.00
88.7069 3019.00
89.0111 3073.00
89.3154 3052.00
89.6196 3088.00
89.9239 3072.00
90.2282 3086.00
90.5324 3055.00
90.8367 3358.00
91.1409 3216.00
91.4452 3074.00
91.7495 3076.00
92.0537 3079.00
92.358 3185.00
92.6622 2999.00
92.9665 3145.00
93.2708 3098.00
93.575 3083.00
93.8793 3023.00
94.1835 3039.00
94.4878 3139.00
94.7921 3074.00
95.0963 3046.00
95.4006 3099.00
95.7048 3082.00
96.0091 3014.00
96.3134 3113.00
96.6176 3200.00
96.9219 3102.00
97.2261 3129.00
97.5304 3093.00
97.8347 3228.00
98.1389 3255.00
98.4432 3297.00
98.7474 3123.00
99.0517 3001.00
99.356 3002.00
99.6602 3059.00
99.9645 2958.00
100.095 2984.00