Folder: alab-pipeline/data/xrd_creation/results (part 54)

File: NSC_106.xy
9.903433 2690.00
10.2077 2605.00
10.512 2585.00
10.8162 2400.00
11.1205 2311.00
11.4247 2271.00
11.729 2164.00
12.0333 2024.00
12.3375 1914.00
12.6418 1902.00
12.946 1981.00
13.2503 1775.00
13.5546 1838.00
13.8588 1845.00
14.1631 1994.00
14.4673 2406.00
14.7716 1638.00
15.0759 1616.00
15.3801 1663.00
15.6844 1618.00
15.9886 1505.00
16.2929 1475.00
16.5972 1458.00
16.9014 1486.00
17.2057 1450.00
17.5099 1360.00
17.8142 1480.00
18.1185 1349.00
18.4227 1359.00
18.727 1293.00
19.0312 1276.00
19.3355 1324.00
19.6398 1963.00
19.944 3878.00
20.2483 1795.00
20.5525 1605.00
20.8568 4308.00
21.1611 4221.00
21.4653 1336.00
21.7696 1261.00
22.0738 1185.00
22.3781 1149.00
22.6824 1093.00
22.9866 1075.00
23.2909 1145.00
23.5951 1176.00
23.8994 1955.00
24.2037 2929.00
24.5079 1199.00
24.8122 971.00
25.1164 944.00
25.4207 924.00
25.725 1010.00
26.0292 958.00
26.3335 1021.00
26.6378 1599.00
26.942 1366.00
27.2463 933.00
27.5505 847.00
27.8548 864.00
28.1591 867.00
28.4633 905.00
28.7676 1288.00
29.0718 2783.00
29.3761 1129.00
29.6804 779.00
29.9846 749.00
30.2889 768.00
30.5931 786.00
30.8974 717.00
31.2017 790.00
31.5059 1103.00
31.8102 3685.00
32.1144 3253.00
32.4187 1049.00
32.723 894.00
33.0272 727.00
33.3315 715.00
33.6357 697.00
33.94 1324.00
34.2443 1235.00
34.5485 685.00
34.8528 668.00
35.157 623.00
35.4613 625.00
35.7656 834.00
36.0698 1680.00
36.3741 1178.00
36.6783 2192.00
36.9826 1052.00
37.2869 627.00
37.5911 548.00
37.8954 696.00
38.1996 788.00
38.5039 617.00
38.8082 637.00
39.1124 606.00
39.4167 530.00
39.7209 521.00
40.0252 560.00
40.3295 694.00
40.6337 668.00
40.938 509.00
41.2422 518.00
41.5465 503.00
41.8508 715.00
42.155 972.00
42.4593 785.00
42.7635 857.00
43.0678 605.00
43.3721 495.00
43.6763 497.00
43.9806 783.00
44.2849 1256.00
44.5891 544.00
44.8934 501.00
45.1976 601.00
45.5019 558.00
45.8062 924.00
46.1104 1147.00
46.4147 479.00
46.7189 483.00
47.0232 543.00
47.3275 1340.00
47.6317 1355.00
47.936 492.00
48.2402 474.00
48.5445 534.00
48.8488 576.00
49.153 966.00
49.4573 1965.00
49.7615 569.00
50.0658 482.00
50.3701 592.00
50.6743 422.00
50.9786 441.00
51.2828 428.00
51.5871 514.00
51.8914 1069.00
52.1956 1410.00
52.4999 1853.00
52.8041 508.00
53.1084 501.00
53.4127 460.00
53.7169 428.00
54.0212 384.00
54.3254 411.00
54.6297 478.00
54.934 602.00
55.2382 459.00
55.5425 662.00
55.8467 729.00
56.151 416.00
56.4553 442.00
56.7595 738.00
57.0638 1402.00
57.368 1623.00
57.6723 895.00
57.9766 543.00
58.2808 481.00
58.5851 467.00
58.8893 777.00
59.1936 524.00
59.4979 389.00
59.8021 400.00
60.1064 524.00
60.4106 451.00
60.7149 394.00
61.0192 429.00
61.3234 1070.00
61.6277 751.00
61.932 560.00
62.2362 612.00
62.5405 511.00
62.8447 996.00
63.149 1524.00
63.4533 683.00
63.7575 405.00
64.0618 356.00
64.366 467.00
64.6703 453.00
64.9745 585.00
65.2788 545.00
65.5831 1002.00
65.8873 967.00
66.1916 962.00
66.4959 440.00
66.8001 404.00
67.1044 540.00
67.4086 940.00
67.7129 462.00
68.0172 413.00
68.3214 342.00
68.6257 314.00
68.9299 326.00
69.2342 375.00
69.5385 771.00
69.8427 693.00
70.147 358.00
70.4512 313.00
70.7555 343.00
71.0598 456.00
71.364 527.00
71.6683 394.00
71.9725 390.00
72.2768 310.00
72.5811 346.00
72.8853 361.00
73.1896 332.00
73.4938 577.00
73.7981 590.00
74.1024 374.00
74.4066 370.00
74.7109 356.00
75.0151 397.00
75.3194 722.00
75.6237 440.00
75.9279 419.00
76.2322 480.00
76.5364 389.00
76.8407 349.00
77.145 326.00
77.4492 371.00
77.7535 532.00
78.0577 494.00
78.362 387.00
78.6663 354.00
78.9705 467.00
79.2748 416.00
79.579 354.00
79.8833 381.00
80.1876 356.00
80.4918 311.00
80.7961 338.00
81.1003 453.00
81.4046 651.00
81.7089 573.00
82.0131 392.00
82.3174 324.00
82.6217 447.00
82.9259 709.00
83.2302 538.00
83.5344 358.00
83.8387 357.00
84.143 338.00
84.4472 297.00
84.7515 303.00
85.0557 380.00
85.36 373.00
85.6643 309.00
85.9685 339.00
86.2728 405.00
86.577 634.00
86.8813 443.00
87.1856 388.00
87.4898 527.00
87.7941 725.00
88.0983 451.00
88.4026 322.00
88.7069 375.00
89.0111 334.00
89.3154 331.00
89.6196 336.00
89.9239 398.00
90.2282 411.00
90.5324 420.00
90.8367 472.00
91.1409 471.00
91.4452 415.00
91.7495 402.00
92.0537 308.00
92.358 378.00
92.6622 589.00
92.9665 562.00
93.2708 374.00
93.575 350.00
93.8793 353.00
94.1835 487.00
94.4878 437.00
94.7921 328.00
95.0963 359.00
95.4006 474.00
95.7048 425.00
96.0091 359.00
96.3134 427.00
96.6176 369.00
96.9219 312.00
97.2261 332.00
97.5304 330.00
97.8347 555.00
98.1389 556.00
98.4432 403.00
98.7474 335.00
99.0517 299.00
99.356 284.00
99.6602 311.00
99.9645 463.00
100.095 544.00

File: NSC_107.xy
9.903433 2722.00
10.2077 2645.00
10.512 2591.00
10.8162 2448.00
11.1205 2343.00
11.4247 2273.00
11.729 2270.00
12.0333 2116.00
12.3375 1952.00
12.6418 1967.00
12.946 1903.00
13.2503 1862.00
13.5546 1787.00
13.8588 1772.00
14.1631 1798.00
14.4673 2419.00
14.7716 2217.00
15.0759 1656.00
15.3801 1578.00
15.6844 1629.00
15.9886 1589.00
16.2929 1542.00
16.5972 1505.00
16.9014 1523.00
17.2057 1508.00
17.5099 1456.00
17.8142 1461.00
18.1185 1418.00
18.4227 1388.00
18.727 1355.00
19.0312 1373.00
19.3355 1347.00
19.6398 1545.00
19.944 3291.00
20.2483 4239.00
20.5525 1572.00
20.8568 2556.00
21.1611 13792.00
21.4653 1650.00
21.7696 1312.00
22.0738 1339.00
22.3781 1190.00
22.6824 1175.00
22.9866 1133.00
23.2909 1097.00
23.5951 1161.00
23.8994 1469.00
24.2037 3275.00
24.5079 1730.00
24.8122 1121.00
25.1164 1045.00
25.4207 1001.00
25.725 973.00
26.0292 955.00
26.3335 1004.00
26.6378 1025.00
26.942 1333.00
27.2463 889.00
27.5505 849.00
27.8548 921.00
28.1591 886.00
28.4633 897.00
28.7676 1004.00
29.0718 2121.00
29.3761 3011.00
29.6804 933.00
29.9846 846.00
30.2889 855.00
30.5931 833.00
30.8974 816.00
31.2017 885.00
31.5059 930.00
31.8102 1566.00
32.1144 12996.00
32.4187 1111.00
32.723 1808.00
33.0272 815.00
33.3315 829.00
33.6357 763.00
33.94 781.00
34.2443 1136.00
34.5485 854.00
34.8528 703.00
35.157 689.00
35.4613 744.00
35.7656 838.00
36.0698 1241.00
36.3741 2535.00
36.6783 1559.00
36.9826 3306.00
37.2869 774.00
37.5911 645.00
37.8954 600.00
38.1996 659.00
38.5039 663.00
38.8082 907.00
39.1124 613.00
39.4167 578.00
39.7209 602.00
40.0252 567.00
40.3295 628.00
40.6337 1481.00
40.938 591.00
41.2422 564.00
41.5465 599.00
41.8508 622.00
42.155 1623.00
42.4593 781.00
42.7635 1779.00
43.0678 634.00
43.3721 651.00
43.6763 498.00
43.9806 620.00
44.2849 2467.00
44.5891 823.00
44.8934 585.00
45.1976 575.00
45.5019 687.00
45.8062 587.00
46.1104 3077.00
46.4147 639.00
46.7189 523.00
47.0232 561.00
47.3275 749.00
47.6317 3710.00
47.936 623.00
48.2402 532.00
48.5445 562.00
48.8488 758.00
49.153 667.00
49.4573 4028.00
49.7615 825.00
50.0658 515.00
50.3701 768.00
50.6743 579.00
50.9786 503.00
51.2828 458.00
51.5871 497.00
51.8914 568.00
52.1956 871.00
52.4999 4430.00
52.8041 658.00
53.1084 480.00
53.4127 686.00
53.7169 444.00
54.0212 452.00
54.3254 430.00
54.6297 510.00
54.934 486.00
55.2382 492.00
55.5425 557.00
55.8467 1445.00
56.151 547.00
56.4553 503.00
56.7595 572.00
57.0638 2119.00
57.368 1411.00
57.6723 2216.00
57.9766 554.00
58.2808 453.00
58.5851 571.00
58.8893 976.00
59.1936 841.00
59.4979 495.00
59.8021 437.00
60.1064 528.00
60.4106 741.00
60.7149 455.00
61.0192 515.00
61.3234 790.00
61.6277 1626.00
61.932 515.00
62.2362 586.00
62.5405 702.00
62.8447 669.00
63.149 2736.00
63.4533 1280.00
63.7575 509.00
64.0618 441.00
64.366 498.00
64.6703 623.00
64.9745 465.00
65.2788 485.00
65.5831 1010.00
65.8873 1259.00
66.1916 1382.00
66.4959 532.00
66.8001 418.00
67.1044 462.00
67.4086 1553.00
67.7129 755.00
68.0172 501.00
68.3214 431.00
68.6257 386.00
68.9299 406.00
69.2342 381.00
69.5385 606.00
69.8427 1229.00
70.147 489.00
70.4512 353.00
70.7555 377.00
71.0598 490.00
71.364 564.00
71.6683 520.00
71.9725 503.00
72.2768 381.00
72.5811 421.00
72.8853 409.00
73.1896 364.00
73.4938 516.00
73.7981 1032.00
74.1024 455.00
74.4066 361.00
74.7109 370.00
75.0151 464.00
75.3194 1000.00
75.6237 683.00
75.9279 595.00
76.2322 591.00
76.5364 532.00
76.8407 372.00
77.145 350.00
77.4492 410.00
77.7535 502.00
78.0577 790.00
78.362 491.00
78.6663 402.00
78.9705 419.00
79.2748 495.00
79.579 419.00
79.8833 436.00
80.1876 453.00
80.4918 411.00
80.7961 355.00
81.1003 435.00
81.4046 929.00
81.7089 861.00
82.0131 624.00
82.3174 432.00
82.6217 405.00
82.9259 886.00
83.2302 774.00
83.5344 437.00
83.8387 357.00
84.143 352.00
84.4472 334.00
84.7515 331.00
85.0557 421.00
85.36 423.00
85.6643 368.00
85.9685 385.00
86.2728 407.00
86.577 838.00
86.8813 677.00
87.1856 382.00
87.4898 477.00
87.7941 996.00
88.0983 744.00
88.4026 412.00
88.7069 357.00
89.0111 531.00
89.3154 415.00
89.6196 367.00
89.9239 362.00
90.2282 378.00
90.5324 548.00
90.8367 525.00
91.1409 527.00
91.4452 503.00
91.7495 443.00
92.0537 434.00
92.358 399.00
92.6622 857.00
92.9665 777.00
93.2708 479.00
93.575 331.00
93.8793 393.00
94.1835 506.00
94.4878 492.00
94.7921 454.00
95.0963 399.00
95.4006 632.00
95.7048 527.00
96.0091 375.00
96.3134 452.00
96.6176 494.00
96.9219 448.00
97.2261 377.00
97.5304 383.00
97.8347 547.00
98.1389 868.00
98.4432 644.00
98.7474 386.00
99.0517 372.00
99.356 339.00
99.6602 332.00
99.9645 436.00
100.095 603.00

File: NSC_108.xy
9.903433 2647.00
10.2077 2553.00
10.512 2465.00
10.8162 2362.00
11.1205 2315.00
11.4247 2214.00
11.729 2141.00
12.0333 2052.00
12.3375 2024.00
12.6418 1845.00
12.946 1840.00
13.2503 1813.00
13.5546 1756.00
13.8588 1692.00
14.1631 1705.00
14.4673 1780.00
14.7716 1589.00
15.0759 1670.00
15.3801 1601.00
15.6844 1471.00
15.9886 1535.00
16.2929 1601.00
16.5972 1446.00
16.9014 1483.00
17.2057 1463.00
17.5099 1514.00
17.8142 1397.00
18.1185 1398.00
18.4227 1332.00
18.727 1304.00
19.0312 1416.00
19.3355 1362.00
19.6398 1348.00
19.944 1282.00
20.2483 1295.00
20.5525 1273.00
20.8568 1223.00
21.1611 1259.00
21.4653 1185.00
21.7696 1210.00
22.0738 1187.00
22.3781 1210.00
22.6824 1132.00
22.9866 1164.00
23.2909 1132.00
23.5951 1075.00
23.8994 1134.00
24.2037 1146.00
24.5079 1031.00
24.8122 1013.00
25.1164 1106.00
25.4207 1017.00
25.725 1108.00
26.0292 1149.00
26.3335 2031.00
26.6378 5432.00
26.942 3308.00
27.2463 1043.00
27.5505 1051.00
27.8548 994.00
28.1591 974.00
28.4633 994.00
28.7676 969.00
29.0718 949.00
29.3761 906.00
29.6804 974.00
29.9846 883.00
30.2889 938.00
30.5931 900.00
30.8974 889.00
31.2017 871.00
31.5059 920.00
31.8102 750.00
32.1144 831.00
32.4187 759.00
32.723 798.00
33.0272 784.00
33.3315 966.00
33.6357 1673.00
33.94 5155.00
34.2443 3009.00
34.5485 843.00
34.8528 711.00
35.157 712.00
35.4613 719.00
35.7656 632.00
36.0698 771.00
36.3741 693.00
36.6783 604.00
36.9826 634.00
37.2869 649.00
37.5911 729.00
37.8954 1659.00
38.1996 2093.00
38.5039 747.00
38.8082 712.00
39.1124 875.00
39.4167 656.00
39.7209 610.00
40.0252 607.00
40.3295 563.00
40.6337 532.00
40.938 588.00
41.2422 525.00
41.5465 572.00
41.8508 567.00
42.155 560.00
42.4593 570.00
42.7635 668.00
43.0678 561.00
43.3721 551.00
43.6763 535.00
43.9806 487.00
44.2849 493.00
44.5891 514.00
44.8934 554.00
45.1976 516.00
45.5019 449.00
45.8062 528.00
46.1104 496.00
46.4147 501.00
46.7189 480.00
47.0232 485.00
47.3275 478.00
47.6317 450.00
47.936 464.00
48.2402 485.00
48.5445 481.00
48.8488 481.00
49.153 454.00
49.4573 476.00
49.7615 471.00
50.0658 427.00
50.3701 553.00
50.6743 516.00
50.9786 534.00
51.2828 558.00
51.5871 1453.00
51.8914 5527.00
52.1956 2221.00
52.4999 578.00
52.8041 545.00
53.1084 489.00
53.4127 504.00
53.7169 471.00
54.0212 463.00
54.3254 491.00
54.6297 796.00
54.934 1906.00
55.2382 676.00
55.5425 483.00
55.8467 434.00
56.151 439.00
56.4553 411.00
56.7595 444.00
57.0638 485.00
57.368 443.00
57.6723 581.00
57.9766 1137.00
58.2808 571.00
58.5851 417.00
58.8893 434.00
59.1936 421.00
59.4979 415.00
59.8021 407.00
60.1064 412.00
60.4106 428.00
60.7149 385.00
61.0192 375.00
61.3234 403.00
61.6277 539.00
61.932 1401.00
62.2362 1139.00
62.5405 496.00
62.8447 406.00
63.149 352.00
63.4533 399.00
63.7575 413.00
64.0618 436.00
64.366 466.00
64.6703 1058.00
64.9745 1684.00
65.2788 607.00
65.5831 504.00
65.8873 1119.00
66.1916 1785.00
66.4959 721.00
66.8001 438.00
67.1044 389.00
67.4086 375.00
67.7129 357.00
68.0172 382.00
68.3214 382.00
68.6257 358.00
68.9299 347.00
69.2342 377.00
69.5385 416.00
69.8427 394.00
70.147 351.00
70.4512 350.00
70.7555 356.00
71.0598 439.00
71.364 929.00
71.6683 720.00
71.9725 422.00
72.2768 372.00
72.5811 362.00
72.8853 373.00
73.1896 362.00
73.4938 303.00
73.7981 333.00
74.1024 332.00
74.4066 345.00
74.7109 304.00
75.0151 329.00
75.3194 342.00
75.6237 313.00
75.9279 331.00
76.2322 318.00
76.5364 348.00
76.8407 382.00
77.145 297.00
77.4492 380.00
77.7535 321.00
78.0577 351.00
78.362 391.00
78.6663 941.00
78.9705 1242.00
79.2748 540.00
79.579 384.00
79.8833 310.00
80.1876 345.00
80.4918 328.00
80.7961 347.00
81.1003 479.00
81.4046 573.00
81.7089 389.00
82.0131 335.00
82.3174 307.00
82.6217 291.00
82.9259 306.00
83.2302 351.00
83.5344 427.00
83.8387 1056.00
84.143 653.00
84.4472 378.00
84.7515 299.00
85.0557 308.00
85.36 317.00
85.6643 334.00
85.9685 295.00
86.2728 298.00
86.577 309.00
86.8813 352.00
87.1856 434.00
87.4898 626.00
87.7941 403.00
88.0983 303.00
88.4026 285.00
88.7069 314.00
89.0111 346.00
89.3154 346.00
89.6196 546.00
89.9239 1197.00
90.2282 823.00
90.5324 476.00
90.8367 816.00
91.1409 1022.00
91.4452 576.00
91.7495 361.00
92.0537 313.00
92.358 311.00
92.6622 348.00
92.9665 341.00
93.2708 583.00
93.575 652.00
93.8793 437.00
94.1835 310.00
94.4878 268.00
94.7921 318.00
95.0963 324.00
95.4006 278.00
95.7048 332.00
96.0091 587.00
96.3134 597.00
96.6176 391.00
96.9219 298.00
97.2261 283.00
97.5304 325.00
97.8347 276.00
98.1389 306.00
98.4432 298.00
98.7474 298.00
99.0517 314.00
99.356 327.00
99.6602 285.00
99.9645 291.00
100.095 289.00

File: NSC_109.xy
9.903433 2778.00
10.2077 2667.00
10.512 2583.00
10.8162 2482.00
11.1205 2373.00
11.4247 2256.00
11.729 2157.00
12.0333 2148.00
12.3375 2122.00
12.6418 2005.00
12.946 1953.00
13.2503 1932.00
13.5546 1931.00
13.8588 1855.00
14.1631 1945.00
14.4673 2595.00
14.7716 2035.00
15.0759 1750.00
15.3801 1717.00
15.6844 1584.00
15.9886 1615.00
16.2929 1609.00
16.5972 1567.00
16.9014 1556.00
17.2057 1552.00
17.5099 1614.00
17.8142 1525.00
18.1185 1450.00
18.4227 1424.00
18.727 1439.00
19.0312 1449.00
19.3355 1283.00
19.6398 1633.00
19.944 3271.00
20.2483 5002.00
20.5525 1550.00
20.8568 2450.00
21.1611 17979.00
21.4653 1559.00
21.7696 1347.00
22.0738 1393.00
22.3781 1206.00
22.6824 1296.00
22.9866 1173.00
23.2909 1174.00
23.5951 1218.00
23.8994 1370.00
24.2037 4547.00
24.5079 1332.00
24.8122 1143.00
25.1164 1060.00
25.4207 1075.00
25.725 967.00
26.0292 1038.00
26.3335 1021.00
26.6378 965.00
26.942 892.00
27.2463 962.00
27.5505 915.00
27.8548 960.00
28.1591 927.00
28.4633 961.00
28.7676 903.00
29.0718 2314.00
29.3761 1931.00
29.6804 929.00
29.9846 843.00
30.2889 829.00
30.5931 805.00
30.8974 849.00
31.2017 820.00
31.5059 952.00
31.8102 1266.00
32.1144 17216.00
32.4187 1179.00
32.723 1533.00
33.0272 777.00
33.3315 849.00
33.6357 710.00
33.94 787.00
34.2443 796.00
34.5485 1054.00
34.8528 710.00
35.157 712.00
35.4613 716.00
35.7656 773.00
36.0698 1471.00
36.3741 1621.00
36.6783 2468.00
36.9826 1185.00
37.2869 744.00
37.5911 682.00
37.8954 657.00
38.1996 599.00
38.5039 597.00
38.8082 1060.00
39.1124 584.00
39.4167 589.00
39.7209 613.00
40.0252 564.00
40.3295 646.00
40.6337 1876.00
40.938 587.00
41.2422 578.00
41.5465 570.00
41.8508 607.00
42.155 1185.00
42.4593 928.00
42.7635 1602.00
43.0678 552.00
43.3721 620.00
43.6763 565.00
43.9806 571.00
44.2849 3372.00
44.5891 716.00
44.8934 597.00
45.1976 795.00
45.5019 570.00
45.8062 577.00
46.1104 3914.00
46.4147 649.00
46.7189 481.00
47.0232 558.00
47.3275 726.00
47.6317 4393.00
47.936 577.00
48.2402 534.00
48.5445 517.00
48.8488 771.00
49.153 788.00
49.4573 5987.00
49.7615 680.00
50.0658 515.00
50.3701 1056.00
50.6743 514.00
50.9786 454.00
51.2828 476.00
51.5871 442.00
51.8914 483.00
52.1956 552.00
52.4999 4997.00
52.8041 686.00
53.1084 464.00
53.4127 642.00
53.7169 480.00
54.0212 469.00
54.3254 404.00
54.6297 509.00
54.934 456.00
55.2382 464.00
55.5425 485.00
55.8467 1292.00
56.151 478.00
56.4553 471.00
56.7595 551.00
57.0638 2494.00
57.368 2801.00
57.6723 1090.00
57.9766 469.00
58.2808 418.00
58.5851 501.00
58.8893 779.00
59.1936 1100.00
59.4979 434.00
59.8021 425.00
60.1064 547.00
60.4106 650.00
60.7149 423.00
61.0192 510.00
61.3234 709.00
61.6277 1834.00
61.932 459.00
62.2362 502.00
62.5405 767.00
62.8447 649.00
63.149 1749.00
63.4533 1491.00
63.7575 505.00
64.0618 407.00
64.366 491.00
64.6703 655.00
64.9745 441.00
65.2788 488.00
65.5831 1523.00
65.8873 1452.00
66.1916 843.00
66.4959 606.00
66.8001 363.00
67.1044 409.00
67.4086 775.00
67.7129 1220.00
68.0172 422.00
68.3214 433.00
68.6257 382.00
68.9299 380.00
69.2342 406.00
69.5385 752.00
69.8427 1143.00
70.147 402.00
70.4512 337.00
70.7555 408.00
71.0598 554.00
71.364 657.00
71.6683 502.00
71.9725 358.00
72.2768 409.00
72.5811 367.00
72.8853 353.00
73.1896 389.00
73.4938 867.00
73.7981 1072.00
74.1024 415.00
74.4066 376.00
74.7109 388.00
75.0151 386.00
75.3194 570.00
75.6237 863.00
75.9279 474.00
76.2322 489.00
76.5364 650.00
76.8407 428.00
77.145 318.00
77.4492 392.00
77.7535 1042.00
78.0577 804.00
78.362 445.00
78.6663 352.00
78.9705 374.00
79.2748 598.00
79.579 551.00
79.8833 463.00
80.1876 439.00
80.4918 490.00
80.7961 401.00
81.1003 386.00
81.4046 856.00
81.7089 730.00
82.0131 415.00
82.3174 344.00
82.6217 452.00
82.9259 663.00
83.2302 713.00
83.5344 376.00
83.8387 346.00
84.143 362.00
84.4472 343.00
84.7515 366.00
85.0557 476.00
85.36 483.00
85.6643 355.00
85.9685 355.00
86.2728 432.00
86.577 786.00
86.8813 465.00
87.1856 412.00
87.4898 381.00
87.7941 1023.00
88.0983 932.00
88.4026 489.00
88.7069 525.00
89.0111 490.00
89.3154 381.00
89.6196 339.00
89.9239 324.00
90.2282 343.00
90.5324 648.00
90.8367 548.00
91.1409 554.00
91.4452 409.00
91.7495 427.00
92.0537 432.00
92.358 410.00
92.6622 930.00
92.9665 710.00
93.2708 405.00
93.575 315.00
93.8793 388.00
94.1835 467.00
94.4878 513.00
94.7921 392.00
95.0963 396.00
95.4006 452.00
95.7048 510.00
96.0091 440.00
96.3134 637.00
96.6176 502.00
96.9219 393.00
97.2261 369.00
97.5304 376.00
97.8347 543.00
98.1389 805.00
98.4432 646.00
98.7474 402.00
99.0517 350.00
99.356 348.00
99.6602 361.00
99.9645 656.00
100.095 1072.00

File: NSC_110.xy
9.903433 2696.00
10.2077 2524.00
10.512 2498.00
10.8162 2376.00
11.1205 2271.00
11.4247 2147.00
11.729 2195.00
12.0333 2025.00
12.3375 1913.00
12.6418 1912.00
12.946 1836.00
13.2503 1852.00
13.5546 1885.00
13.8588 1793.00
14.1631 1686.00
14.4673 1643.00
14.7716 1868.00
15.0759 3036.00
15.3801 8365.00
15.6844 1709.00
15.9886 1624.00
16.2929 1545.00
16.5972 1599.00
16.9014 1491.00
17.2057 1522.00
17.5099 1387.00
17.8142 1408.00
18.1185 1447.00
18.4227 1435.00
18.727 1384.00
19.0312 1382.00
19.3355 1335.00
19.6398 1390.00
19.944 1313.00
20.2483 1395.00
20.5525 1748.00
20.8568 5060.00
21.1611 9465.00
21.4653 1671.00
21.7696 2141.00
22.0738 8392.00
22.3781 2755.00
22.6824 1448.00
22.9866 1426.00
23.2909 1231.00
23.5951 1194.00
23.8994 1172.00
24.2037 1174.00
24.5079 1238.00
24.8122 1381.00
25.1164 2232.00
25.4207 14326.00
25.725 2077.00
26.0292 1602.00
26.3335 2076.00
26.6378 1262.00
26.942 1310.00
27.2463 1036.00
27.5505 1129.00
27.8548 1060.00
28.1591 991.00
28.4633 1088.00
28.7676 1018.00
29.0718 1015.00
29.3761 927.00
29.6804 1056.00
29.9846 994.00
30.2889 1466.00
30.5931 9391.00
30.8974 1588.00
31.2017 985.00
31.5059 959.00
31.8102 953.00
32.1144 944.00
32.4187 932.00
32.723 970.00
33.0272 1157.00
33.3315 2342.00
33.6357 31190.00
33.94 1514.00
34.2443 3095.00
34.5485 1097.00
34.8528 987.00
35.157 1230.00
35.4613 865.00
35.7656 890.00
36.0698 1533.00
36.3741 952.00
36.6783 821.00
36.9826 814.00
37.2869 801.00
37.5911 911.00
37.8954 1341.00
38.1996 2693.00
38.5039 1554.00
38.8082 8251.00
39.1124 1247.00
39.4167 826.00
39.7209 987.00
40.0252 802.00
40.3295 838.00
40.6337 983.00
40.938 2054.00
41.2422 791.00
41.5465 704.00
41.8508 818.00
42.155 943.00
42.4593 1386.00
42.7635 888.00
43.0678 706.00
43.3721 695.00
43.6763 700.00
43.9806 913.00
44.2849 2087.00
44.5891 768.00
44.8934 1059.00
45.1976 966.00
45.5019 1279.00
45.8062 675.00
46.1104 718.00
46.4147 1031.00
46.7189 2466.00
47.0232 903.00
47.3275 741.00
47.6317 949.00
47.936 850.00
48.2402 1518.00
48.5445 3706.00
48.8488 891.00
49.153 733.00
49.4573 704.00
49.7615 1269.00
50.0658 5032.00
50.3701 791.00
50.6743 714.00
50.9786 978.00
51.2828 1118.00
51.5871 835.00
51.8914 1818.00
52.1956 5139.00
52.4999 777.00
52.8041 697.00
53.1084 1853.00
53.4127 788.00
53.7169 700.00
54.0212 645.00
54.3254 700.00
54.6297 738.00
54.934 1156.00
55.2382 3413.00
55.5425 722.00
55.8467 716.00
56.151 2300.00
56.4553 763.00
56.7595 635.00
57.0638 598.00
57.368 659.00
57.6723 1109.00
57.9766 682.00
58.2808 695.00
58.5851 1147.00
58.8893 2396.00
59.1936 828.00
59.4979 666.00
59.8021 765.00
60.1064 2090.00
60.4106 2495.00
60.7149 6757.00
61.0192 991.00
61.3234 694.00
61.6277 999.00
61.932 2102.00
62.2362 1549.00
62.5405 679.00
62.8447 702.00
63.149 688.00
63.4533 1916.00
63.7575 921.00
64.0618 632.00
64.366 770.00
64.6703 2698.00
64.9745 2407.00
65.2788 663.00
65.5831 1101.00
65.8873 1195.00
66.1916 1023.00
66.4959 4619.00
66.8001 3535.00
67.1044 870.00
67.4086 677.00
67.7129 653.00
68.0172 1036.00
68.3214 768.00
68.6257 614.00
68.9299 720.00
69.2342 2421.00
69.5385 1888.00
69.8427 3428.00
70.147 985.00
70.4512 767.00
70.7555 889.00
71.0598 2135.00
71.364 804.00
71.6683 656.00
71.9725 603.00
72.2768 611.00
72.5811 612.00
72.8853 585.00
73.1896 611.00
73.4938 860.00
73.7981 2110.00
74.1024 752.00
74.4066 683.00
74.7109 590.00
75.0151 685.00
75.3194 1086.00
75.6237 929.00
75.9279 879.00
76.2322 637.00
76.5364 593.00
76.8407 850.00
77.145 612.00
77.4492 626.00
77.7535 744.00
78.0577 2952.00
78.362 1069.00
78.6663 717.00
78.9705 687.00
79.2748 696.00
79.579 2328.00
79.8833 1056.00
80.1876 896.00
80.4918 862.00
80.7961 614.00
81.1003 655.00
81.4046 584.00
81.7089 588.00
82.0131 659.00
82.3174 680.00
82.6217 1386.00
82.9259 1852.00
83.2302 998.00
83.5344 571.00
83.8387 736.00
84.143 715.00
84.4472 652.00
84.7515 809.00
85.0557 786.00
85.36 581.00
85.6643 578.00
85.9685 567.00
86.2728 878.00
86.577 860.00
86.8813 1389.00
87.1856 852.00
87.4898 641.00
87.7941 1086.00
88.0983 1272.00
88.4026 720.00
88.7069 595.00
89.0111 552.00
89.3154 628.00
89.6196 606.00
89.9239 547.00
90.2282 572.00
90.5324 578.00
90.8367 577.00
91.1409 600.00
91.4452 680.00
91.7495 637.00
92.0537 1532.00
92.358 1143.00
92.6622 827.00
92.9665 1404.00
93.2708 1247.00
93.575 1151.00
93.8793 842.00
94.1835 615.00
94.4878 622.00
94.7921 697.00
95.0963 729.00
95.4006 613.00
95.7048 573.00
96.0091 630.00
96.3134 820.00
96.6176 825.00
96.9219 702.00
97.2261 635.00
97.5304 586.00
97.8347 553.00
98.1389 544.00
98.4432 622.00
98.7474 1789.00
99.0517 1228.00
99.356 915.00
99.6602 756.00
99.9645 645.00
100.095 595.00