Folder: alab-pipeline/data/xrd_creation/results (part 32)

File: Na_304.xy
9.903433 2647.00
10.2077 2651.00
10.512 2584.00
10.8162 2524.00
11.1205 2516.00
11.4247 2837.00
11.729 6976.00
12.0333 2156.00
12.3375 2002.00
12.6418 1936.00
12.946 1972.00
13.2503 1938.00
13.5546 1769.00
13.8588 1780.00
14.1631 1832.00
14.4673 2170.00
14.7716 1658.00
15.0759 1718.00
15.3801 1692.00
15.6844 1709.00
15.9886 1586.00
16.2929 1544.00
16.5972 1560.00
16.9014 1765.00
17.2057 1717.00
17.5099 1637.00
17.8142 1517.00
18.1185 1499.00
18.4227 2732.00
18.727 1400.00
19.0312 1436.00
19.3355 1359.00
19.6398 1357.00
19.944 1460.00
20.2483 1840.00
20.5525 1808.00
20.8568 1394.00
21.1611 2485.00
21.4653 2525.00
21.7696 1395.00
22.0738 1328.00
22.3781 1359.00
22.6824 1241.00
22.9866 1322.00
23.2909 1176.00
23.5951 1791.00
23.8994 1775.00
24.2037 1841.00
24.5079 1785.00
24.8122 1828.00
25.1164 1172.00
25.4207 1217.00
25.725 1158.00
26.0292 1112.00
26.3335 1234.00
26.6378 1468.00
26.942 1225.00
27.2463 2032.00
27.5505 1938.00
27.8548 1573.00
28.1591 1305.00
28.4633 1150.00
28.7676 1164.00
29.0718 1626.00
29.3761 1441.00
29.6804 2126.00
29.9846 1823.00
30.2889 1562.00
30.5931 1531.00
30.8974 1220.00
31.2017 1475.00
31.5059 2489.00
31.8102 1509.00
32.1144 3793.00
32.4187 1980.00
32.723 1467.00
33.0272 1249.00
33.3315 1290.00
33.6357 1158.00
33.94 975.00
34.2443 1002.00
34.5485 936.00
34.8528 1053.00
35.157 895.00
35.4613 921.00
35.7656 1292.00
36.0698 934.00
36.3741 1888.00
36.6783 1434.00
36.9826 1365.00
37.2869 1181.00
37.5911 948.00
37.8954 854.00
38.1996 843.00
38.5039 751.00
38.8082 869.00
39.1124 825.00
39.4167 814.00
39.7209 753.00
40.0252 966.00
40.3295 935.00
40.6337 902.00
40.938 838.00
41.2422 713.00
41.5465 767.00
41.8508 716.00
42.155 857.00
42.4593 765.00
42.7635 705.00
43.0678 730.00
43.3721 924.00
43.6763 806.00
43.9806 899.00
44.2849 881.00
44.5891 914.00
44.8934 807.00
45.1976 830.00
45.5019 895.00
45.8062 868.00
46.1104 730.00
46.4147 777.00
46.7189 704.00
47.0232 725.00
47.3275 1036.00
47.6317 689.00
47.936 714.00
48.2402 781.00
48.5445 1511.00
48.8488 990.00
49.153 971.00
49.4573 825.00
49.7615 796.00
50.0658 852.00
50.3701 877.00
50.6743 868.00
50.9786 1084.00
51.2828 803.00
51.5871 712.00
51.8914 845.00
52.1956 813.00
52.4999 865.00
52.8041 807.00
53.1084 1043.00
53.4127 999.00
53.7169 1187.00
54.0212 771.00
54.3254 767.00
54.6297 1084.00
54.934 1152.00
55.2382 1004.00
55.5425 1030.00
55.8467 1064.00
56.151 1241.00
56.4553 977.00
56.7595 829.00
57.0638 743.00
57.368 776.00
57.6723 837.00
57.9766 691.00
58.2808 807.00
58.5851 682.00
58.8893 784.00
59.1936 848.00
59.4979 859.00
59.8021 1018.00
60.1064 837.00
60.4106 756.00
60.7149 794.00
61.0192 708.00
61.3234 732.00
61.6277 870.00
61.932 861.00
62.2362 806.00
62.5405 673.00
62.8447 702.00
63.149 629.00
63.4533 600.00
63.7575 642.00
64.0618 713.00
64.366 607.00
64.6703 656.00
64.9745 618.00
65.2788 544.00
65.5831 559.00
65.8873 583.00
66.1916 617.00
66.4959 579.00
66.8001 612.00
67.1044 636.00
67.4086 688.00
67.7129 632.00
68.0172 652.00
68.3214 608.00
68.6257 695.00
68.9299 686.00
69.2342 578.00
69.5385 572.00
69.8427 734.00
70.147 691.00
70.4512 631.00
70.7555 602.00
71.0598 557.00
71.364 560.00
71.6683 586.00
71.9725 609.00
72.2768 608.00
72.5811 675.00
72.8853 633.00
73.1896 628.00
73.4938 594.00
73.7981 567.00
74.1024 535.00
74.4066 523.00
74.7109 551.00
75.0151 578.00
75.3194 463.00
75.6237 563.00
75.9279 526.00
76.2322 578.00
76.5364 538.00
76.8407 562.00
77.145 565.00
77.4492 610.00
77.7535 662.00
78.0577 573.00
78.362 538.00
78.6663 536.00
78.9705 559.00
79.2748 510.00
79.579 534.00
79.8833 549.00
80.1876 608.00
80.4918 563.00
80.7961 531.00
81.1003 514.00
81.4046 505.00
81.7089 506.00
82.0131 547.00
82.3174 568.00
82.6217 589.00
82.9259 632.00
83.2302 636.00
83.5344 583.00
83.8387 574.00
84.143 552.00
84.4472 544.00
84.7515 642.00
85.0557 648.00
85.36 631.00
85.6643 630.00
85.9685 608.00
86.2728 610.00
86.577 535.00
86.8813 522.00
87.1856 533.00
87.4898 598.00
87.7941 612.00
88.0983 544.00
88.4026 516.00
88.7069 557.00
89.0111 511.00
89.3154 562.00
89.6196 544.00
89.9239 537.00
90.2282 574.00
90.5324 509.00
90.8367 563.00
91.1409 537.00
91.4452 531.00
91.7495 517.00
92.0537 543.00
92.358 504.00
92.6622 525.00
92.9665 517.00
93.2708 503.00
93.575 486.00
93.8793 536.00
94.1835 450.00
94.4878 479.00
94.7921 470.00
95.0963 545.00
95.4006 496.00
95.7048 480.00
96.0091 526.00
96.3134 504.00
96.6176 518.00
96.9219 527.00
97.2261 415.00
97.5304 518.00
97.8347 512.00
98.1389 517.00
98.4432 572.00
98.7474 494.00
99.0517 505.00
99.356 468.00
99.6602 498.00
99.9645 467.00
100.095 487.00

File: Na_305.xy
9.903433 2805.00
10.2077 2821.00
10.512 3729.00
10.8162 2640.00
11.1205 2856.00
11.4247 2978.00
11.729 3170.00
12.0333 5632.00
12.3375 2623.00
12.6418 2413.00
12.946 2789.00
13.2503 2371.00
13.5546 2280.00
13.8588 2604.00
14.1631 2499.00
14.4673 2030.00
14.7716 1972.00
15.0759 1907.00
15.3801 2003.00
15.6844 1897.00
15.9886 1927.00
16.2929 1896.00
16.5972 2073.00
16.9014 1831.00
17.2057 1810.00
17.5099 1857.00
17.8142 2473.00
18.1185 1723.00
18.4227 1736.00
18.727 1735.00
19.0312 1665.00
19.3355 2046.00
19.6398 5369.00
19.944 4345.00
20.2483 1706.00
20.5525 1643.00
20.8568 2098.00
21.1611 1714.00
21.4653 1550.00
21.7696 1543.00
22.0738 1644.00
22.3781 1660.00
22.6824 1788.00
22.9866 4426.00
23.2909 3100.00
23.5951 1632.00
23.8994 2099.00
24.2037 3798.00
24.5079 4231.00
24.8122 2573.00
25.1164 1747.00
25.4207 1606.00
25.725 1549.00
26.0292 1719.00
26.3335 2274.00
26.6378 1486.00
26.942 1601.00
27.2463 1779.00
27.5505 1582.00
27.8548 2846.00
28.1591 1940.00
28.4633 4782.00
28.7676 8148.00
29.0718 1916.00
29.3761 1556.00
29.6804 1708.00
29.9846 1844.00
30.2889 3496.00
30.5931 2430.00
30.8974 1883.00
31.2017 5288.00
31.5059 4098.00
31.8102 5142.00
32.1144 5332.00
32.4187 1747.00
32.723 1506.00
33.0272 1397.00
33.3315 1424.00
33.6357 1539.00
33.94 3329.00
34.2443 9126.00
34.5485 4474.00
34.8528 4406.00
35.157 1645.00
35.4613 1517.00
35.7656 4497.00
36.0698 1702.00
36.3741 3504.00
36.6783 1516.00
36.9826 1272.00
37.2869 1199.00
37.5911 1300.00
37.8954 1218.00
38.1996 1075.00
38.5039 1166.00
38.8082 1235.00
39.1124 2415.00
39.4167 1317.00
39.7209 1387.00
40.0252 1400.00
40.3295 1429.00
40.6337 1418.00
40.938 1399.00
41.2422 2951.00
41.5465 2447.00
41.8508 2247.00
42.155 1792.00
42.4593 1556.00
42.7635 1231.00
43.0678 1182.00
43.3721 1525.00
43.6763 1265.00
43.9806 1141.00
44.2849 1173.00
44.5891 1549.00
44.8934 1205.00
45.1976 1353.00
45.5019 1640.00
45.8062 1389.00
46.1104 2362.00
46.4147 1904.00
46.7189 2096.00
47.0232 2953.00
47.3275 1284.00
47.6317 1192.00
47.936 1240.00
48.2402 1231.00
48.5445 1198.00
48.8488 1575.00
49.153 2197.00
49.4573 1680.00
49.7615 2832.00
50.0658 1828.00
50.3701 1459.00
50.6743 4961.00
50.9786 2402.00
51.2828 2872.00
51.5871 1507.00
51.8914 1674.00
52.1956 1205.00
52.4999 1217.00
52.8041 1275.00
53.1084 2864.00
53.4127 1401.00
53.7169 1395.00
54.0212 1266.00
54.3254 1281.00
54.6297 2464.00
54.934 2357.00
55.2382 1472.00
55.5425 1391.00
55.8467 2044.00
56.151 3108.00
56.4553 2188.00
56.7595 1505.00
57.0638 1200.00
57.368 1143.00
57.6723 1519.00
57.9766 1823.00
58.2808 1288.00
58.5851 2039.00
58.8893 2068.00
59.1936 2415.00
59.4979 1362.00
59.8021 1116.00
60.1064 1249.00
60.4106 2266.00
60.7149 2749.00
61.0192 2362.00
61.3234 1711.00
61.6277 1387.00
61.932 1757.00
62.2362 1978.00
62.5405 2269.00
62.8447 1654.00
63.149 1371.00
63.4533 1962.00
63.7575 1639.00
64.0618 1068.00
64.366 1079.00
64.6703 1283.00
64.9745 1662.00
65.2788 1355.00
65.5831 1136.00
65.8873 1607.00
66.1916 1897.00
66.4959 2220.00
66.8001 1484.00
67.1044 1070.00
67.4086 1062.00
67.7129 1041.00
68.0172 1064.00
68.3214 1142.00
68.6257 953.00
68.9299 1019.00
69.2342 1067.00
69.5385 1373.00
69.8427 1303.00
70.147 983.00
70.4512 1056.00
70.7555 1008.00
71.0598 1080.00
71.364 1195.00
71.6683 1471.00
71.9725 1847.00
72.2768 1247.00
72.5811 1116.00
72.8853 1406.00
73.1896 1301.00
73.4938 1305.00
73.7981 1005.00
74.1024 969.00
74.4066 952.00
74.7109 937.00
75.0151 1101.00
75.3194 1112.00
75.6237 1287.00
75.9279 1497.00
76.2322 1262.00
76.5364 1065.00
76.8407 1152.00
77.145 1253.00
77.4492 1154.00
77.7535 1005.00
78.0577 1089.00
78.362 1049.00
78.6663 1016.00
78.9705 1052.00
79.2748 992.00
79.579 1235.00
79.8833 1505.00
80.1876 1263.00
80.4918 1007.00
80.7961 954.00
81.1003 1003.00
81.4046 1159.00
81.7089 1129.00
82.0131 1192.00
82.3174 1323.00
82.6217 1158.00
82.9259 1131.00
83.2302 1102.00
83.5344 1191.00
83.8387 1244.00
84.143 1326.00
84.4472 1131.00
84.7515 1286.00
85.0557 1307.00
85.36 1157.00
85.6643 1223.00
85.9685 1281.00
86.2728 1122.00
86.577 1162.00
86.8813 1240.00
87.1856 1204.00
87.4898 949.00
87.7941 986.00
88.0983 1083.00
88.4026 1137.00
88.7069 1121.00
89.0111 1297.00
89.3154 1375.00
89.6196 1371.00
89.9239 1134.00
90.2282 1104.00
90.5324 1297.00
90.8367 1330.00
91.1409 1079.00
91.4452 1091.00
91.7495 1024.00
92.0537 961.00
92.358 1126.00
92.6622 981.00
92.9665 1035.00
93.2708 927.00
93.575 930.00
93.8793 879.00
94.1835 999.00
94.4878 1053.00
94.7921 1145.00
95.0963 1043.00
95.4006 1040.00
95.7048 1212.00
96.0091 1323.00
96.3134 1101.00
96.6176 1032.00
96.9219 1114.00
97.2261 1162.00
97.5304 1352.00
97.8347 1375.00
98.1389 1183.00
98.4432 1052.00
98.7474 1093.00
99.0517 1129.00
99.356 1116.00
99.6602 1409.00
99.9645 1161.00
100.095 1215.00

File: Na_306.xy
9.903433 2889.00
10.2077 2921.00
10.512 3248.00
10.8162 2728.00
11.1205 2730.00
11.4247 2805.00
11.729 2710.00
12.0333 3674.00
12.3375 2764.00
12.6418 2411.00
12.946 2431.00
13.2503 2387.00
13.5546 2375.00
13.8588 2413.00
14.1631 2783.00
14.4673 2242.00
14.7716 2105.00
15.0759 2235.00
15.3801 2175.00
15.6844 2114.00
15.9886 2246.00
16.2929 2161.00
16.5972 2210.00
16.9014 2101.00
17.2057 2044.00
17.5099 2073.00
17.8142 2457.00
18.1185 2101.00
18.4227 1996.00
18.727 1914.00
19.0312 1994.00
19.3355 1998.00
19.6398 2614.00
19.944 3792.00
20.2483 2149.00
20.5525 2111.00
20.8568 3726.00
21.1611 2699.00
21.4653 1914.00
21.7696 1976.00
22.0738 1933.00
22.3781 2050.00
22.6824 2080.00
22.9866 2740.00
23.2909 4954.00
23.5951 3119.00
23.8994 2259.00
24.2037 5087.00
24.5079 2604.00
24.8122 3476.00
25.1164 1898.00
25.4207 2055.00
25.725 2058.00
26.0292 2053.00
26.3335 1963.00
26.6378 1897.00
26.942 1854.00
27.2463 1989.00
27.5505 1899.00
27.8548 2034.00
28.1591 2726.00
28.4633 10678.00
28.7676 2244.00
29.0718 1961.00
29.3761 1849.00
29.6804 1923.00
29.9846 1924.00
30.2889 2575.00
30.5931 2365.00
30.8974 2262.00
31.2017 2409.00
31.5059 4416.00
31.8102 12158.00
32.1144 2058.00
32.4187 1935.00
32.723 1758.00
33.0272 1737.00
33.3315 1816.00
33.6357 1838.00
33.94 2824.00
34.2443 10521.00
34.5485 6283.00
34.8528 2278.00
35.157 1796.00
35.4613 2036.00
35.7656 2209.00
36.0698 1764.00
36.3741 1762.00
36.6783 1726.00
36.9826 1636.00
37.2869 1705.00
37.5911 1542.00
37.8954 1568.00
38.1996 1514.00
38.5039 1591.00
38.8082 2055.00
39.1124 1583.00
39.4167 1589.00
39.7209 1652.00
40.0252 1573.00
40.3295 1756.00
40.6337 1658.00
40.938 2181.00
41.2422 1885.00
41.5465 2317.00
41.8508 1886.00
42.155 1980.00
42.4593 1695.00
42.7635 1458.00
43.0678 1551.00
43.3721 1676.00
43.6763 1679.00
43.9806 1604.00
44.2849 1440.00
44.5891 1575.00
44.8934 1682.00
45.1976 2204.00
45.5019 1484.00
45.8062 2039.00
46.1104 1587.00
46.4147 1880.00
46.7189 1708.00
47.0232 2888.00
47.3275 2668.00
47.6317 1592.00
47.936 1608.00
48.2402 1557.00
48.5445 1433.00
48.8488 1605.00
49.153 3207.00
49.4573 2573.00
49.7615 1799.00
50.0658 1624.00
50.3701 3918.00
50.6743 2225.00
50.9786 2404.00
51.2828 1707.00
51.5871 2006.00
51.8914 1571.00
52.1956 1725.00
52.4999 1444.00
52.8041 1399.00
53.1084 1827.00
53.4127 1792.00
53.7169 1589.00
54.0212 1504.00
54.3254 2305.00
54.6297 1820.00
54.934 1563.00
55.2382 1561.00
55.5425 2112.00
55.8467 2552.00
56.151 2218.00
56.4553 1517.00
56.7595 1359.00
57.0638 1412.00
57.368 1795.00
57.6723 1599.00
57.9766 1390.00
58.2808 1717.00
58.5851 1620.00
58.8893 1515.00
59.1936 1856.00
59.4979 2039.00
59.8021 1562.00
60.1064 2106.00
60.4106 1865.00
60.7149 1734.00
61.0192 2250.00
61.3234 1706.00
61.6277 1991.00
61.932 1627.00
62.2362 2330.00
62.5405 1655.00
62.8447 1391.00
63.149 2200.00
63.4533 1442.00
63.7575 1326.00
64.0618 1284.00
64.366 1507.00
64.6703 1533.00
64.9745 1325.00
65.2788 1532.00
65.5831 1521.00
65.8873 1768.00
66.1916 1682.00
66.4959 1437.00
66.8001 1294.00
67.1044 1299.00
67.4086 1220.00
67.7129 1230.00
68.0172 1203.00
68.3214 1259.00
68.6257 1119.00
68.9299 1159.00
69.2342 1371.00
69.5385 1274.00
69.8427 1350.00
70.147 1245.00
70.4512 1202.00
70.7555 1145.00
71.0598 1128.00
71.364 1554.00
71.6683 1609.00
71.9725 1332.00
72.2768 1334.00
72.5811 1314.00
72.8853 1255.00
73.1896 1237.00
73.4938 1144.00
73.7981 1151.00
74.1024 1207.00
74.4066 1152.00
74.7109 1226.00
75.0151 1363.00
75.3194 1574.00
75.6237 1223.00
75.9279 1095.00
76.2322 1153.00
76.5364 1189.00
76.8407 1311.00
77.145 1135.00
77.4492 1198.00
77.7535 1193.00
78.0577 1065.00
78.362 1148.00
78.6663 1098.00
78.9705 1166.00
79.2748 1219.00
79.579 1106.00
79.8833 1124.00
80.1876 1221.00
80.4918 1195.00
80.7961 1141.00
81.1003 1095.00
81.4046 1121.00
81.7089 1285.00
82.0131 1264.00
82.3174 1195.00
82.6217 1201.00
82.9259 1176.00
83.2302 1207.00
83.5344 1325.00
83.8387 1184.00
84.143 1254.00
84.4472 1186.00
84.7515 1091.00
85.0557 1086.00
85.36 1141.00
85.6643 1102.00
85.9685 1073.00
86.2728 1174.00
86.577 1144.00
86.8813 1149.00
87.1856 1092.00
87.4898 1142.00
87.7941 1183.00
88.0983 1130.00
88.4026 1284.00
88.7069 1471.00
89.0111 1165.00
89.3154 1045.00
89.6196 1170.00
89.9239 1275.00
90.2282 1254.00
90.5324 1138.00
90.8367 1084.00
91.1409 1096.00
91.4452 1177.00
91.7495 1069.00
92.0537 1093.00
92.358 1131.00
92.6622 1086.00
92.9665 1093.00
93.2708 1078.00
93.575 1031.00
93.8793 1137.00
94.1835 1066.00
94.4878 1065.00
94.7921 1130.00
95.0963 1175.00
95.4006 1240.00
95.7048 1117.00
96.0091 1073.00
96.3134 1165.00
96.6176 1276.00
96.9219 1233.00
97.2261 1264.00
97.5304 1102.00
97.8347 1074.00
98.1389 1144.00
98.4432 1130.00
98.7474 1085.00
99.0517 1176.00
99.356 1159.00
99.6602 1356.00
99.9645 1220.00
100.095 1156.00

File: Na_307.xy
9.903433 2466.00
10.2077 2407.00
10.512 2297.00
10.8162 2406.00
11.1205 2180.00
11.4247 2301.00
11.729 2726.00
12.0333 5278.00
12.3375 2205.00
12.6418 2062.00
12.946 1832.00
13.2503 1862.00
13.5546 1824.00
13.8588 1738.00
14.1631 1685.00
14.4673 1658.00
14.7716 1568.00
15.0759 1527.00
15.3801 1584.00
15.6844 1563.00
15.9886 1464.00
16.2929 1501.00
16.5972 1437.00
16.9014 1468.00
17.2057 1445.00
17.5099 1496.00
17.8142 1399.00
18.1185 1367.00
18.4227 1428.00
18.727 1922.00
19.0312 1321.00
19.3355 1424.00
19.6398 1286.00
19.944 1304.00
20.2483 1547.00
20.5525 1825.00
20.8568 3083.00
21.1611 1477.00
21.4653 2149.00
21.7696 2528.00
22.0738 1992.00
22.3781 1264.00
22.6824 1216.00
22.9866 1271.00
23.2909 1408.00
23.5951 1219.00
23.8994 1591.00
24.2037 1898.00
24.5079 1726.00
24.8122 2348.00
25.1164 3780.00
25.4207 1083.00
25.725 1040.00
26.0292 1002.00
26.3335 1012.00
26.6378 1309.00
26.942 1056.00
27.2463 1368.00
27.5505 2465.00
27.8548 1805.00
28.1591 1493.00
28.4633 1304.00
28.7676 1153.00
29.0718 1025.00
29.3761 981.00
29.6804 1008.00
29.9846 1581.00
30.2889 1907.00
30.5931 1355.00
30.8974 1596.00
31.2017 1513.00
31.5059 1668.00
31.8102 2016.00
32.1144 2525.00
32.4187 3854.00
32.723 2534.00
33.0272 2376.00
33.3315 2340.00
33.6357 1183.00
33.94 1383.00
34.2443 1132.00
34.5485 943.00
34.8528 964.00
35.157 954.00
35.4613 893.00
35.7656 903.00
36.0698 1300.00
36.3741 1381.00
36.6783 2462.00
36.9826 1517.00
37.2869 1227.00
37.5911 1349.00
37.8954 1533.00
38.1996 879.00
38.5039 911.00
38.8082 1137.00
39.1124 816.00
39.4167 883.00
39.7209 798.00
40.0252 876.00
40.3295 1203.00
40.6337 940.00
40.938 909.00
41.2422 847.00
41.5465 931.00
41.8508 833.00
42.155 880.00
42.4593 964.00
42.7635 895.00
43.0678 808.00
43.3721 871.00
43.6763 1043.00
43.9806 1076.00
44.2849 1089.00
44.5891 1138.00
44.8934 968.00
45.1976 912.00
45.5019 938.00
45.8062 1224.00
46.1104 1113.00
46.4147 906.00
46.7189 779.00
47.0232 923.00
47.3275 820.00
47.6317 976.00
47.936 752.00
48.2402 798.00
48.5445 1118.00
48.8488 1567.00
49.153 1521.00
49.4573 1229.00
49.7615 1066.00
50.0658 1107.00
50.3701 1198.00
50.6743 1031.00
50.9786 977.00
51.2828 1043.00
51.5871 791.00
51.8914 802.00
52.1956 1105.00
52.4999 964.00
52.8041 942.00
53.1084 975.00
53.4127 1050.00
53.7169 1395.00
54.0212 1239.00
54.3254 1227.00
54.6297 1529.00
54.934 1841.00
55.2382 1291.00
55.5425 1284.00
55.8467 1304.00
56.151 1566.00
56.4553 1913.00
56.7595 1909.00
57.0638 1220.00
57.368 930.00
57.6723 1044.00
57.9766 1232.00
58.2808 1119.00
58.5851 1043.00
58.8893 1055.00
59.1936 1302.00
59.4979 1307.00
59.8021 1034.00
60.1064 955.00
60.4106 1161.00
60.7149 1029.00
61.0192 1022.00
61.3234 981.00
61.6277 1035.00
61.932 1231.00
62.2362 1094.00
62.5405 1084.00
62.8447 901.00
63.149 902.00
63.4533 802.00
63.7575 805.00
64.0618 811.00
64.366 863.00
64.6703 889.00
64.9745 908.00
65.2788 839.00
65.5831 891.00
65.8873 816.00
66.1916 870.00
66.4959 869.00
66.8001 920.00
67.1044 900.00
67.4086 941.00
67.7129 900.00
68.0172 872.00
68.3214 866.00
68.6257 944.00
68.9299 1007.00
69.2342 907.00
69.5385 937.00
69.8427 1031.00
70.147 1088.00
70.4512 995.00
70.7555 989.00
71.0598 878.00
71.364 856.00
71.6683 829.00
71.9725 790.00
72.2768 802.00
72.5811 952.00
72.8853 951.00
73.1896 985.00
73.4938 867.00
73.7981 939.00
74.1024 906.00
74.4066 767.00
74.7109 831.00
75.0151 844.00
75.3194 748.00
75.6237 788.00
75.9279 795.00
76.2322 775.00
76.5364 812.00
76.8407 802.00
77.145 804.00
77.4492 731.00
77.7535 810.00
78.0577 797.00
78.362 773.00
78.6663 781.00
78.9705 766.00
79.2748 850.00
79.579 798.00
79.8833 895.00
80.1876 892.00
80.4918 971.00
80.7961 918.00
81.1003 814.00
81.4046 817.00
81.7089 789.00
82.0131 777.00
82.3174 799.00
82.6217 867.00
82.9259 910.00
83.2302 810.00
83.5344 838.00
83.8387 866.00
84.143 862.00
84.4472 883.00
84.7515 1030.00
85.0557 1070.00
85.36 1014.00
85.6643 937.00
85.9685 861.00
86.2728 872.00
86.577 852.00
86.8813 879.00
87.1856 943.00
87.4898 1006.00
87.7941 1010.00
88.0983 921.00
88.4026 959.00
88.7069 937.00
89.0111 902.00
89.3154 869.00
89.6196 889.00
89.9239 927.00
90.2282 919.00
90.5324 888.00
90.8367 953.00
91.1409 871.00
91.4452 882.00
91.7495 836.00
92.0537 793.00
92.358 837.00
92.6622 827.00
92.9665 761.00
93.2708 867.00
93.575 845.00
93.8793 849.00
94.1835 882.00
94.4878 913.00
94.7921 893.00
95.0963 862.00
95.4006 891.00
95.7048 902.00
96.0091 872.00
96.3134 817.00
96.6176 824.00
96.9219 836.00
97.2261 820.00
97.5304 854.00
97.8347 882.00
98.1389 882.00
98.4432 879.00
98.7474 818.00
99.0517 776.00
99.356 889.00
99.6602 856.00
99.9645 872.00
100.095 896.00

File: Na_308.xy
9.903433 2850.00
10.2077 2873.00
10.512 3706.00
10.8162 2760.00
11.1205 2870.00
11.4247 2661.00
11.729 3023.00
12.0333 5535.00
12.3375 2661.00
12.6418 2319.00
12.946 2710.00
13.2503 2358.00
13.5546 2158.00
13.8588 2524.00
14.1631 2792.00
14.4673 1998.00
14.7716 1931.00
15.0759 1960.00
15.3801 1947.00
15.6844 1879.00
15.9886 1866.00
16.2929 1889.00
16.5972 2147.00
16.9014 1767.00
17.2057 1798.00
17.5099 1898.00
17.8142 2425.00
18.1185 1700.00
18.4227 1657.00
18.727 1691.00
19.0312 1749.00
19.3355 1981.00
19.6398 5301.00
19.944 3971.00
20.2483 1772.00
20.5525 1755.00
20.8568 2070.00
21.1611 1590.00
21.4653 1612.00
21.7696 1620.00
22.0738 1694.00
22.3781 1716.00
22.6824 1928.00
22.9866 4626.00
23.2909 2940.00
23.5951 1706.00
23.8994 2294.00
24.2037 3236.00
24.5079 4283.00
24.8122 2743.00
25.1164 1765.00
25.4207 1669.00
25.725 1554.00
26.0292 1836.00
26.3335 2145.00
26.6378 1443.00
26.942 1629.00
27.2463 1758.00
27.5505 1656.00
27.8548 2810.00
28.1591 2064.00
28.4633 5050.00
28.7676 8583.00
29.0718 2113.00
29.3761 1636.00
29.6804 1728.00
29.9846 1906.00
30.2889 3904.00
30.5931 2407.00
30.8974 2045.00
31.2017 5444.00
31.5059 4149.00
31.8102 5856.00
32.1144 5727.00
32.4187 1912.00
32.723 1542.00
33.0272 1516.00
33.3315 1459.00
33.6357 1654.00
33.94 3968.00
34.2443 9254.00
34.5485 4257.00
34.8528 4266.00
35.157 1852.00
35.4613 1547.00
35.7656 4540.00
36.0698 1773.00
36.3741 3279.00
36.6783 1505.00
36.9826 1278.00
37.2869 1232.00
37.5911 1283.00
37.8954 1217.00
38.1996 1231.00
38.5039 1215.00
38.8082 1276.00
39.1124 2494.00
39.4167 1414.00
39.7209 1407.00
40.0252 1458.00
40.3295 1367.00
40.6337 1340.00
40.938 1412.00
41.2422 2942.00
41.5465 2480.00
41.8508 2092.00
42.155 1835.00
42.4593 1436.00
42.7635 1185.00
43.0678 1161.00
43.3721 1602.00
43.6763 1307.00
43.9806 1188.00
44.2849 1206.00
44.5891 1595.00
44.8934 1227.00
45.1976 1338.00
45.5019 1664.00
45.8062 1527.00
46.1104 2410.00
46.4147 1861.00
46.7189 2185.00
47.0232 2843.00
47.3275 1253.00
47.6317 1241.00
47.936 1236.00
48.2402 1170.00
48.5445 1205.00
48.8488 1736.00
49.153 2061.00
49.4573 1657.00
49.7615 2995.00
50.0658 2000.00
50.3701 1569.00
50.6743 4603.00
50.9786 2635.00
51.2828 2765.00
51.5871 1569.00
51.8914 1761.00
52.1956 1327.00
52.4999 1236.00
52.8041 1225.00
53.1084 2646.00
53.4127 1471.00
53.7169 1427.00
54.0212 1297.00
54.3254 1303.00
54.6297 2649.00
54.934 2468.00
55.2382 1600.00
55.5425 1338.00
55.8467 2097.00
56.151 2958.00
56.4553 2148.00
56.7595 1779.00
57.0638 1228.00
57.368 1209.00
57.6723 1574.00
57.9766 1817.00
58.2808 1308.00
58.5851 2074.00
58.8893 1985.00
59.1936 2477.00
59.4979 1387.00
59.8021 1238.00
60.1064 1250.00
60.4106 2291.00
60.7149 2793.00
61.0192 2218.00
61.3234 1723.00
61.6277 1321.00
61.932 1860.00
62.2362 1921.00
62.5405 2321.00
62.8447 1716.00
63.149 1292.00
63.4533 2042.00
63.7575 1681.00
64.0618 1171.00
64.366 1130.00
64.6703 1315.00
64.9745 1753.00
65.2788 1259.00
65.5831 1107.00
65.8873 1639.00
66.1916 1909.00
66.4959 2251.00
66.8001 1373.00
67.1044 1070.00
67.4086 1007.00
67.7129 998.00
68.0172 1101.00
68.3214 1076.00
68.6257 1026.00
68.9299 1036.00
69.2342 1018.00
69.5385 1418.00
69.8427 1332.00
70.147 1021.00
70.4512 1094.00
70.7555 1009.00
71.0598 1051.00
71.364 1256.00
71.6683 1472.00
71.9725 1809.00
72.2768 1289.00
72.5811 1173.00
72.8853 1357.00
73.1896 1312.00
73.4938 1187.00
73.7981 1026.00
74.1024 973.00
74.4066 978.00
74.7109 997.00
75.0151 1060.00
75.3194 1175.00
75.6237 1183.00
75.9279 1481.00
76.2322 1238.00
76.5364 1062.00
76.8407 1170.00
77.145 1182.00
77.4492 1080.00
77.7535 1062.00
78.0577 1131.00
78.362 1102.00
78.6663 1099.00
78.9705 1032.00
79.2748 1061.00
79.579 1244.00
79.8833 1594.00
80.1876 1226.00
80.4918 1023.00
80.7961 921.00
81.1003 1036.00
81.4046 1158.00
81.7089 1117.00
82.0131 1164.00
82.3174 1355.00
82.6217 1168.00
82.9259 1118.00
83.2302 1095.00
83.5344 1152.00
83.8387 1300.00
84.143 1236.00
84.4472 1122.00
84.7515 1392.00
85.0557 1288.00
85.36 1129.00
85.6643 1186.00
85.9685 1232.00
86.2728 1157.00
86.577 1232.00
86.8813 1295.00
87.1856 1113.00
87.4898 985.00
87.7941 1025.00
88.0983 1113.00
88.4026 1214.00
88.7069 1153.00
89.0111 1281.00
89.3154 1437.00
89.6196 1352.00
89.9239 1161.00
90.2282 1177.00
90.5324 1266.00
90.8367 1267.00
91.1409 1135.00
91.4452 1017.00
91.7495 1023.00
92.0537 1041.00
92.358 1084.00
92.6622 1106.00
92.9665 1040.00
93.2708 1013.00
93.575 947.00
93.8793 985.00
94.1835 960.00
94.4878 1091.00
94.7921 1217.00
95.0963 1073.00
95.4006 1049.00
95.7048 1198.00
96.0091 1311.00
96.3134 1136.00
96.6176 1150.00
96.9219 1097.00
97.2261 1193.00
97.5304 1448.00
97.8347 1339.00
98.1389 1144.00
98.4432 1107.00
98.7474 1020.00
99.0517 1167.00
99.356 1299.00
99.6602 1304.00
99.9645 1269.00
100.095 1266.00