Folder: alab-pipeline/data/xrd_creation/results (part 53)

File: NSC_101.xy
9.903433 2684.00
10.2077 2553.00
10.512 2504.00
10.8162 2286.00
11.1205 2314.00
11.4247 2217.00
11.729 2099.00
12.0333 2014.00
12.3375 1998.00
12.6418 1860.00
12.946 1783.00
13.2503 1783.00
13.5546 1762.00
13.8588 1744.00
14.1631 1751.00
14.4673 2064.00
14.7716 1798.00
15.0759 1502.00
15.3801 1600.00
15.6844 1547.00
15.9886 1586.00
16.2929 1481.00
16.5972 1397.00
16.9014 1419.00
17.2057 1482.00
17.5099 1376.00
17.8142 1443.00
18.1185 1414.00
18.4227 1384.00
18.727 1303.00
19.0312 1303.00
19.3355 1445.00
19.6398 1629.00
19.944 2503.00
20.2483 2487.00
20.5525 1492.00
20.8568 2155.00
21.1611 9004.00
21.4653 1322.00
21.7696 1221.00
22.0738 1235.00
22.3781 1183.00
22.6824 1128.00
22.9866 1086.00
23.2909 1098.00
23.5951 1136.00
23.8994 1347.00
24.2037 2751.00
24.5079 1279.00
24.8122 1057.00
25.1164 1003.00
25.4207 963.00
25.725 986.00
26.0292 941.00
26.3335 988.00
26.6378 1167.00
26.942 2484.00
27.2463 965.00
27.5505 863.00
27.8548 842.00
28.1591 883.00
28.4633 881.00
28.7676 1006.00
29.0718 1894.00
29.3761 1692.00
29.6804 822.00
29.9846 800.00
30.2889 785.00
30.5931 785.00
30.8974 798.00
31.2017 883.00
31.5059 882.00
31.8102 1497.00
32.1144 7713.00
32.4187 972.00
32.723 1238.00
33.0272 766.00
33.3315 731.00
33.6357 729.00
33.94 893.00
34.2443 2103.00
34.5485 705.00
34.8528 722.00
35.157 692.00
35.4613 611.00
35.7656 678.00
36.0698 1188.00
36.3741 1591.00
36.6783 1525.00
36.9826 1772.00
37.2869 687.00
37.5911 630.00
37.8954 579.00
38.1996 1034.00
38.5039 664.00
38.8082 830.00
39.1124 580.00
39.4167 570.00
39.7209 560.00
40.0252 552.00
40.3295 574.00
40.6337 1118.00
40.938 540.00
41.2422 488.00
41.5465 518.00
41.8508 552.00
42.155 1279.00
42.4593 613.00
42.7635 1394.00
43.0678 575.00
43.3721 530.00
43.6763 476.00
43.9806 590.00
44.2849 1878.00
44.5891 651.00
44.8934 544.00
45.1976 578.00
45.5019 570.00
45.8062 557.00
46.1104 1977.00
46.4147 533.00
46.7189 498.00
47.0232 505.00
47.3275 742.00
47.6317 2351.00
47.936 542.00
48.2402 523.00
48.5445 506.00
48.8488 632.00
49.153 635.00
49.4573 3221.00
49.7615 563.00
50.0658 477.00
50.3701 739.00
50.6743 495.00
50.9786 463.00
51.2828 416.00
51.5871 521.00
51.8914 762.00
52.1956 1545.00
52.4999 3234.00
52.8041 603.00
53.1084 451.00
53.4127 546.00
53.7169 428.00
54.0212 416.00
54.3254 395.00
54.6297 533.00
54.934 637.00
55.2382 607.00
55.5425 477.00
55.8467 1079.00
56.151 480.00
56.4553 451.00
56.7595 522.00
57.0638 1781.00
57.368 1185.00
57.6723 1553.00
57.9766 519.00
58.2808 527.00
58.5851 492.00
58.8893 741.00
59.1936 652.00
59.4979 423.00
59.8021 356.00
60.1064 508.00
60.4106 596.00
60.7149 354.00
61.0192 417.00
61.3234 644.00
61.6277 1344.00
61.932 461.00
62.2362 711.00
62.5405 612.00
62.8447 614.00
63.149 1827.00
63.4533 992.00
63.7575 430.00
64.0618 408.00
64.366 461.00
64.6703 549.00
64.9745 728.00
65.2788 456.00
65.5831 944.00
65.8873 1003.00
66.1916 1238.00
66.4959 578.00
66.8001 401.00
67.1044 436.00
67.4086 1198.00
67.7129 544.00
68.0172 471.00
68.3214 373.00
68.6257 329.00
68.9299 357.00
69.2342 325.00
69.5385 563.00
69.8427 863.00
70.147 375.00
70.4512 326.00
70.7555 364.00
71.0598 427.00
71.364 519.00
71.6683 486.00
71.9725 433.00
72.2768 394.00
72.5811 372.00
72.8853 368.00
73.1896 370.00
73.4938 474.00
73.7981 747.00
74.1024 422.00
74.4066 414.00
74.7109 350.00
75.0151 344.00
75.3194 826.00
75.6237 557.00
75.9279 527.00
76.2322 503.00
76.5364 470.00
76.8407 332.00
77.145 355.00
77.4492 345.00
77.7535 488.00
78.0577 615.00
78.362 394.00
78.6663 375.00
78.9705 579.00
79.2748 534.00
79.579 429.00
79.8833 432.00
80.1876 368.00
80.4918 403.00
80.7961 345.00
81.1003 379.00
81.4046 852.00
81.7089 745.00
82.0131 516.00
82.3174 319.00
82.6217 346.00
82.9259 724.00
83.2302 661.00
83.5344 359.00
83.8387 461.00
84.143 386.00
84.4472 341.00
84.7515 333.00
85.0557 346.00
85.36 339.00
85.6643 326.00
85.9685 332.00
86.2728 361.00
86.577 756.00
86.8813 571.00
87.1856 322.00
87.4898 489.00
87.7941 848.00
88.0983 603.00
88.4026 361.00
88.7069 355.00
89.0111 424.00
89.3154 375.00
89.6196 362.00
89.9239 438.00
90.2282 424.00
90.5324 524.00
90.8367 475.00
91.1409 611.00
91.4452 483.00
91.7495 442.00
92.0537 362.00
92.358 383.00
92.6622 805.00
92.9665 679.00
93.2708 388.00
93.575 365.00
93.8793 385.00
94.1835 502.00
94.4878 464.00
94.7921 357.00
95.0963 389.00
95.4006 559.00
95.7048 483.00
96.0091 402.00
96.3134 489.00
96.6176 395.00
96.9219 371.00
97.2261 310.00
97.5304 351.00
97.8347 499.00
98.1389 713.00
98.4432 533.00
98.7474 368.00
99.0517 308.00
99.356 311.00
99.6602 322.00
99.9645 395.00
100.095 559.00

File: NSC_102.xy
9.903433 2692.00
10.2077 2487.00
10.512 2391.00
10.8162 2275.00
11.1205 2240.00
11.4247 2014.00
11.729 1985.00
12.0333 1958.00
12.3375 1873.00
12.6418 1794.00
12.946 1675.00
13.2503 1588.00
13.5546 1563.00
13.8588 1432.00
14.1631 1430.00
14.4673 1467.00
14.7716 1372.00
15.0759 1391.00
15.3801 1296.00
15.6844 1321.00
15.9886 1299.00
16.2929 1222.00
16.5972 1209.00
16.9014 1219.00
17.2057 1179.00
17.5099 1113.00
17.8142 1091.00
18.1185 1207.00
18.4227 1095.00
18.727 1027.00
19.0312 1049.00
19.3355 1011.00
19.6398 996.00
19.944 973.00
20.2483 890.00
20.5525 970.00
20.8568 890.00
21.1611 934.00
21.4653 863.00
21.7696 878.00
22.0738 826.00
22.3781 841.00
22.6824 821.00
22.9866 805.00
23.2909 763.00
23.5951 748.00
23.8994 820.00
24.2037 739.00
24.5079 761.00
24.8122 728.00
25.1164 720.00
25.4207 748.00
25.725 667.00
26.0292 735.00
26.3335 1102.00
26.6378 895.00
26.942 671.00
27.2463 709.00
27.5505 683.00
27.8548 704.00
28.1591 703.00
28.4633 649.00
28.7676 638.00
29.0718 635.00
29.3761 607.00
29.6804 577.00
29.9846 571.00
30.2889 620.00
30.5931 545.00
30.8974 559.00
31.2017 533.00
31.5059 522.00
31.8102 566.00
32.1144 493.00
32.4187 529.00
32.723 518.00
33.0272 515.00
33.3315 527.00
33.6357 965.00
33.94 742.00
34.2443 561.00
34.5485 453.00
34.8528 466.00
35.157 424.00
35.4613 443.00
35.7656 464.00
36.0698 459.00
36.3741 456.00
36.6783 360.00
36.9826 424.00
37.2869 400.00
37.5911 431.00
37.8954 643.00
38.1996 414.00
38.5039 369.00
38.8082 410.00
39.1124 391.00
39.4167 377.00
39.7209 355.00
40.0252 349.00
40.3295 373.00
40.6337 346.00
40.938 346.00
41.2422 374.00
41.5465 366.00
41.8508 326.00
42.155 341.00
42.4593 344.00
42.7635 313.00
43.0678 326.00
43.3721 316.00
43.6763 337.00
43.9806 323.00
44.2849 336.00
44.5891 283.00
44.8934 291.00
45.1976 311.00
45.5019 351.00
45.8062 264.00
46.1104 281.00
46.4147 310.00
46.7189 303.00
47.0232 299.00
47.3275 290.00
47.6317 263.00
47.936 297.00
48.2402 270.00
48.5445 297.00
48.8488 305.00
49.153 291.00
49.4573 291.00
49.7615 296.00
50.0658 308.00
50.3701 307.00
50.6743 296.00
50.9786 309.00
51.2828 332.00
51.5871 649.00
51.8914 502.00
52.1956 289.00
52.4999 271.00
52.8041 265.00
53.1084 268.00
53.4127 265.00
53.7169 290.00
54.0212 236.00
54.3254 284.00
54.6297 390.00
54.934 274.00
55.2382 258.00
55.5425 290.00
55.8467 247.00
56.151 279.00
56.4553 204.00
56.7595 231.00
57.0638 233.00
57.368 239.00
57.6723 306.00
57.9766 295.00
58.2808 198.00
58.5851 215.00
58.8893 242.00
59.1936 240.00
59.4979 207.00
59.8021 225.00
60.1064 179.00
60.4106 198.00
60.7149 212.00
61.0192 220.00
61.3234 203.00
61.6277 271.00
61.932 317.00
62.2362 225.00
62.5405 213.00
62.8447 224.00
63.149 210.00
63.4533 206.00
63.7575 211.00
64.0618 205.00
64.366 206.00
64.6703 317.00
64.9745 219.00
65.2788 231.00
65.5831 201.00
65.8873 316.00
66.1916 250.00
66.4959 202.00
66.8001 208.00
67.1044 177.00
67.4086 188.00
67.7129 189.00
68.0172 210.00
68.3214 220.00
68.6257 188.00
68.9299 190.00
69.2342 205.00
69.5385 231.00
69.8427 172.00
70.147 218.00
70.4512 190.00
70.7555 225.00
71.0598 232.00
71.364 279.00
71.6683 209.00
71.9725 203.00
72.2768 206.00
72.5811 181.00
72.8853 202.00
73.1896 204.00
73.4938 194.00
73.7981 212.00
74.1024 200.00
74.4066 215.00
74.7109 198.00
75.0151 213.00
75.3194 211.00
75.6237 225.00
75.9279 216.00
76.2322 241.00
76.5364 201.00
76.8407 244.00
77.145 225.00
77.4492 237.00
77.7535 225.00
78.0577 221.00
78.362 231.00
78.6663 284.00
78.9705 268.00
79.2748 219.00
79.579 189.00
79.8833 232.00
80.1876 242.00
80.4918 233.00
80.7961 236.00
81.1003 259.00
81.4046 237.00
81.7089 246.00
82.0131 246.00
82.3174 218.00
82.6217 227.00
82.9259 234.00
83.2302 247.00
83.5344 271.00
83.8387 319.00
84.143 246.00
84.4472 237.00
84.7515 224.00
85.0557 216.00
85.36 245.00
85.6643 205.00
85.9685 214.00
86.2728 205.00
86.577 193.00
86.8813 204.00
87.1856 218.00
87.4898 192.00
87.7941 208.00
88.0983 190.00
88.4026 190.00
88.7069 199.00
89.0111 207.00
89.3154 201.00
89.6196 214.00
89.9239 257.00
90.2282 209.00
90.5324 237.00
90.8367 226.00
91.1409 220.00
91.4452 204.00
91.7495 195.00
92.0537 180.00
92.358 212.00
92.6622 187.00
92.9665 196.00
93.2708 208.00
93.575 208.00
93.8793 192.00
94.1835 166.00
94.4878 197.00
94.7921 208.00
95.0963 179.00
95.4006 187.00
95.7048 181.00
96.0091 182.00
96.3134 214.00
96.6176 218.00
96.9219 178.00
97.2261 194.00
97.5304 189.00
97.8347 199.00
98.1389 213.00
98.4432 196.00
98.7474 200.00
99.0517 185.00
99.356 177.00
99.6602 192.00
99.9645 185.00
100.095 200.00

File: NSC_103.xy
9.903433 2754.00
10.2077 2560.00
10.512 2564.00
10.8162 2425.00
11.1205 2269.00
11.4247 2146.00
11.729 2155.00
12.0333 2124.00
12.3375 1898.00
12.6418 1835.00
12.946 1845.00
13.2503 1762.00
13.5546 1717.00
13.8588 1674.00
14.1631 1916.00
14.4673 1623.00
14.7716 1522.00
15.0759 1518.00
15.3801 1503.00
15.6844 1476.00
15.9886 1483.00
16.2929 1408.00
16.5972 1448.00
16.9014 1641.00
17.2057 1283.00
17.5099 1405.00
17.8142 1234.00
18.1185 1272.00
18.4227 1265.00
18.727 1247.00
19.0312 1639.00
19.3355 3029.00
19.6398 1924.00
19.944 1576.00
20.2483 1176.00
20.5525 1594.00
20.8568 2359.00
21.1611 1136.00
21.4653 1160.00
21.7696 1280.00
22.0738 2117.00
22.3781 4333.00
22.6824 1164.00
22.9866 1072.00
23.2909 1042.00
23.5951 986.00
23.8994 2348.00
24.2037 960.00
24.5079 947.00
24.8122 1313.00
25.1164 1287.00
25.4207 875.00
25.725 882.00
26.0292 845.00
26.3335 881.00
26.6378 753.00
26.942 825.00
27.2463 1120.00
27.5505 1128.00
27.8548 811.00
28.1591 806.00
28.4633 790.00
28.7676 1724.00
29.0718 907.00
29.3761 875.00
29.6804 888.00
29.9846 693.00
30.2889 679.00
30.5931 765.00
30.8974 812.00
31.2017 710.00
31.5059 1063.00
31.8102 4494.00
32.1144 819.00
32.4187 657.00
32.723 602.00
33.0272 607.00
33.3315 572.00
33.6357 653.00
33.94 635.00
34.2443 701.00
34.5485 559.00
34.8528 544.00
35.157 571.00
35.4613 638.00
35.7656 1042.00
36.0698 651.00
36.3741 1406.00
36.6783 618.00
36.9826 588.00
37.2869 1391.00
37.5911 1916.00
37.8954 586.00
38.1996 497.00
38.5039 555.00
38.8082 541.00
39.1124 1111.00
39.4167 637.00
39.7209 476.00
40.0252 443.00
40.3295 603.00
40.6337 481.00
40.938 536.00
41.2422 411.00
41.5465 409.00
41.8508 644.00
42.155 530.00
42.4593 610.00
42.7635 435.00
43.0678 439.00
43.3721 590.00
43.6763 434.00
43.9806 750.00
44.2849 418.00
44.5891 456.00
44.8934 503.00
45.1976 370.00
45.5019 631.00
45.8062 866.00
46.1104 465.00
46.4147 375.00
46.7189 386.00
47.0232 610.00
47.3275 916.00
47.6317 426.00
47.936 379.00
48.2402 392.00
48.5445 476.00
48.8488 475.00
49.153 1008.00
49.4573 421.00
49.7615 584.00
50.0658 1069.00
50.3701 395.00
50.6743 333.00
50.9786 473.00
51.2828 1288.00
51.5871 623.00
51.8914 417.00
52.1956 1018.00
52.4999 484.00
52.8041 451.00
53.1084 348.00
53.4127 360.00
53.7169 348.00
54.0212 391.00
54.3254 408.00
54.6297 394.00
54.934 421.00
55.2382 385.00
55.5425 491.00
55.8467 386.00
56.151 395.00
56.4553 568.00
56.7595 1281.00
57.0638 895.00
57.368 416.00
57.6723 320.00
57.9766 347.00
58.2808 343.00
58.5851 367.00
58.8893 391.00
59.1936 324.00
59.4979 314.00
59.8021 384.00
60.1064 450.00
60.4106 1289.00
60.7149 731.00
61.0192 435.00
61.3234 591.00
61.6277 374.00
61.932 341.00
62.2362 361.00
62.5405 393.00
62.8447 626.00
63.149 548.00
63.4533 365.00
63.7575 320.00
64.0618 356.00
64.366 318.00
64.6703 287.00
64.9745 294.00
65.2788 421.00
65.5831 450.00
65.8873 343.00
66.1916 353.00
66.4959 587.00
66.8001 334.00
67.1044 342.00
67.4086 407.00
67.7129 328.00
68.0172 357.00
68.3214 278.00
68.6257 258.00
68.9299 312.00
69.2342 396.00
69.5385 441.00
69.8427 474.00
70.147 469.00
70.4512 302.00
70.7555 351.00
71.0598 589.00
71.364 436.00
71.6683 284.00
71.9725 284.00
72.2768 280.00
72.5811 280.00
72.8853 304.00
73.1896 383.00
73.4938 411.00
73.7981 248.00
74.1024 322.00
74.4066 265.00
74.7109 257.00
75.0151 302.00
75.3194 312.00
75.6237 345.00
75.9279 347.00
76.2322 267.00
76.5364 237.00
76.8407 288.00
77.145 271.00
77.4492 359.00
77.7535 320.00
78.0577 265.00
78.362 234.00
78.6663 262.00
78.9705 399.00
79.2748 358.00
79.579 262.00
79.8833 355.00
80.1876 337.00
80.4918 301.00
80.7961 259.00
81.1003 369.00
81.4046 322.00
81.7089 264.00
82.0131 214.00
82.3174 234.00
82.6217 293.00
82.9259 287.00
83.2302 215.00
83.5344 249.00
83.8387 246.00
84.143 225.00
84.4472 247.00
84.7515 248.00
85.0557 250.00
85.36 270.00
85.6643 281.00
85.9685 282.00
86.2728 310.00
86.577 276.00
86.8813 257.00
87.1856 259.00
87.4898 417.00
87.7941 361.00
88.0983 304.00
88.4026 304.00
88.7069 406.00
89.0111 305.00
89.3154 242.00
89.6196 233.00
89.9239 243.00
90.2282 248.00
90.5324 266.00
90.8367 243.00
91.1409 280.00
91.4452 292.00
91.7495 245.00
92.0537 269.00
92.358 364.00
92.6622 307.00
92.9665 355.00
93.2708 299.00
93.575 227.00
93.8793 234.00
94.1835 262.00
94.4878 245.00
94.7921 214.00
95.0963 282.00
95.4006 302.00
95.7048 308.00
96.0091 328.00
96.3134 383.00
96.6176 343.00
96.9219 256.00
97.2261 271.00
97.5304 246.00
97.8347 342.00
98.1389 323.00
98.4432 242.00
98.7474 245.00
99.0517 229.00
99.356 209.00
99.6602 293.00
99.9645 299.00
100.095 308.00

File: NSC_104.xy
9.903433 2589.00
10.2077 2516.00
10.512 2328.00
10.8162 2264.00
11.1205 2149.00
11.4247 2048.00
11.729 2014.00
12.0333 1851.00
12.3375 1776.00
12.6418 1694.00
12.946 1643.00
13.2503 1607.00
13.5546 1530.00
13.8588 1503.00
14.1631 1446.00
14.4673 1411.00
14.7716 1357.00
15.0759 1331.00
15.3801 1340.00
15.6844 1253.00
15.9886 1241.00
16.2929 1269.00
16.5972 1215.00
16.9014 1205.00
17.2057 1152.00
17.5099 1051.00
17.8142 1091.00
18.1185 1076.00
18.4227 1054.00
18.727 1028.00
19.0312 974.00
19.3355 982.00
19.6398 1040.00
19.944 908.00
20.2483 835.00
20.5525 884.00
20.8568 883.00
21.1611 871.00
21.4653 832.00
21.7696 831.00
22.0738 835.00
22.3781 796.00
22.6824 787.00
22.9866 817.00
23.2909 723.00
23.5951 691.00
23.8994 759.00
24.2037 672.00
24.5079 749.00
24.8122 692.00
25.1164 697.00
25.4207 660.00
25.725 657.00
26.0292 659.00
26.3335 671.00
26.6378 671.00
26.942 593.00
27.2463 566.00
27.5505 640.00
27.8548 601.00
28.1591 558.00
28.4633 626.00
28.7676 654.00
29.0718 603.00
29.3761 523.00
29.6804 544.00
29.9846 515.00
30.2889 552.00
30.5931 555.00
30.8974 524.00
31.2017 518.00
31.5059 484.00
31.8102 428.00
32.1144 465.00
32.4187 463.00
32.723 462.00
33.0272 449.00
33.3315 424.00
33.6357 456.00
33.94 451.00
34.2443 422.00
34.5485 464.00
34.8528 429.00
35.157 442.00
35.4613 411.00
35.7656 401.00
36.0698 352.00
36.3741 367.00
36.6783 397.00
36.9826 387.00
37.2869 392.00
37.5911 371.00
37.8954 408.00
38.1996 358.00
38.5039 372.00
38.8082 369.00
39.1124 375.00
39.4167 322.00
39.7209 346.00
40.0252 325.00
40.3295 297.00
40.6337 343.00
40.938 319.00
41.2422 336.00
41.5465 348.00
41.8508 293.00
42.155 307.00
42.4593 288.00
42.7635 291.00
43.0678 313.00
43.3721 326.00
43.6763 287.00
43.9806 290.00
44.2849 302.00
44.5891 326.00
44.8934 307.00
45.1976 296.00
45.5019 290.00
45.8062 282.00
46.1104 288.00
46.4147 281.00
46.7189 284.00
47.0232 290.00
47.3275 256.00
47.6317 270.00
47.936 248.00
48.2402 269.00
48.5445 243.00
48.8488 268.00
49.153 232.00
49.4573 239.00
49.7615 242.00
50.0658 257.00
50.3701 257.00
50.6743 242.00
50.9786 286.00
51.2828 242.00
51.5871 291.00
51.8914 274.00
52.1956 248.00
52.4999 268.00
52.8041 258.00
53.1084 244.00
53.4127 213.00
53.7169 222.00
54.0212 212.00
54.3254 206.00
54.6297 223.00
54.934 202.00
55.2382 173.00
55.5425 247.00
55.8467 208.00
56.151 218.00
56.4553 211.00
56.7595 204.00
57.0638 198.00
57.368 224.00
57.6723 232.00
57.9766 211.00
58.2808 211.00
58.5851 209.00
58.8893 181.00
59.1936 189.00
59.4979 200.00
59.8021 203.00
60.1064 189.00
60.4106 190.00
60.7149 160.00
61.0192 189.00
61.3234 204.00
61.6277 163.00
61.932 162.00
62.2362 194.00
62.5405 176.00
62.8447 186.00
63.149 187.00
63.4533 160.00
63.7575 187.00
64.0618 176.00
64.366 195.00
64.6703 200.00
64.9745 187.00
65.2788 171.00
65.5831 185.00
65.8873 203.00
66.1916 181.00
66.4959 164.00
66.8001 160.00
67.1044 198.00
67.4086 216.00
67.7129 171.00
68.0172 186.00
68.3214 192.00
68.6257 176.00
68.9299 177.00
69.2342 189.00
69.5385 179.00
69.8427 176.00
70.147 189.00
70.4512 205.00
70.7555 198.00
71.0598 173.00
71.364 187.00
71.6683 204.00
71.9725 190.00
72.2768 159.00
72.5811 181.00
72.8853 228.00
73.1896 203.00
73.4938 202.00
73.7981 195.00
74.1024 201.00
74.4066 192.00
74.7109 193.00
75.0151 187.00
75.3194 183.00
75.6237 200.00
75.9279 198.00
76.2322 188.00
76.5364 192.00
76.8407 235.00
77.145 221.00
77.4492 211.00
77.7535 230.00
78.0577 202.00
78.362 269.00
78.6663 207.00
78.9705 217.00
79.2748 186.00
79.579 215.00
79.8833 231.00
80.1876 221.00
80.4918 227.00
80.7961 182.00
81.1003 187.00
81.4046 199.00
81.7089 218.00
82.0131 233.00
82.3174 184.00
82.6217 211.00
82.9259 194.00
83.2302 209.00
83.5344 206.00
83.8387 220.00
84.143 196.00
84.4472 232.00
84.7515 182.00
85.0557 213.00
85.36 219.00
85.6643 176.00
85.9685 185.00
86.2728 179.00
86.577 195.00
86.8813 169.00
87.1856 183.00
87.4898 190.00
87.7941 204.00
88.0983 178.00
88.4026 169.00
88.7069 186.00
89.0111 185.00
89.3154 195.00
89.6196 199.00
89.9239 190.00
90.2282 175.00
90.5324 177.00
90.8367 195.00
91.1409 158.00
91.4452 196.00
91.7495 185.00
92.0537 195.00
92.358 166.00
92.6622 164.00
92.9665 201.00
93.2708 181.00
93.575 152.00
93.8793 179.00
94.1835 159.00
94.4878 190.00
94.7921 153.00
95.0963 206.00
95.4006 184.00
95.7048 175.00
96.0091 209.00
96.3134 174.00
96.6176 166.00
96.9219 172.00
97.2261 164.00
97.5304 189.00
97.8347 157.00
98.1389 167.00
98.4432 191.00
98.7474 180.00
99.0517 193.00
99.356 162.00
99.6602 166.00
99.9645 184.00
100.095 176.00

File: NSC_105.xy
9.903433 2702.00
10.2077 2618.00
10.512 2475.00
10.8162 2334.00
11.1205 2179.00
11.4247 2163.00
11.729 1995.00
12.0333 1924.00
12.3375 1896.00
12.6418 1782.00
12.946 1704.00
13.2503 1560.00
13.5546 1578.00
13.8588 1473.00
14.1631 1453.00
14.4673 1380.00
14.7716 1347.00
15.0759 1378.00
15.3801 1377.00
15.6844 1289.00
15.9886 1249.00
16.2929 1336.00
16.5972 1203.00
16.9014 1220.00
17.2057 1176.00
17.5099 1197.00
17.8142 1149.00
18.1185 1110.00
18.4227 1101.00
18.727 1068.00
19.0312 1047.00
19.3355 1046.00
19.6398 949.00
19.944 955.00
20.2483 935.00
20.5525 915.00
20.8568 902.00
21.1611 864.00
21.4653 884.00
21.7696 861.00
22.0738 853.00
22.3781 821.00
22.6824 823.00
22.9866 777.00
23.2909 790.00
23.5951 798.00
23.8994 794.00
24.2037 726.00
24.5079 677.00
24.8122 706.00
25.1164 714.00
25.4207 726.00
25.725 690.00
26.0292 740.00
26.3335 645.00
26.6378 647.00
26.942 706.00
27.2463 659.00
27.5505 627.00
27.8548 623.00
28.1591 597.00
28.4633 612.00
28.7676 580.00
29.0718 600.00
29.3761 586.00
29.6804 609.00
29.9846 547.00
30.2889 544.00
30.5931 545.00
30.8974 535.00
31.2017 561.00
31.5059 532.00
31.8102 481.00
32.1144 543.00
32.4187 498.00
32.723 518.00
33.0272 520.00
33.3315 468.00
33.6357 481.00
33.94 434.00
34.2443 445.00
34.5485 388.00
34.8528 451.00
35.157 433.00
35.4613 418.00
35.7656 400.00
36.0698 428.00
36.3741 403.00
36.6783 387.00
36.9826 389.00
37.2869 400.00
37.5911 394.00
37.8954 382.00
38.1996 347.00
38.5039 382.00
38.8082 341.00
39.1124 350.00
39.4167 340.00
39.7209 369.00
40.0252 333.00
40.3295 337.00
40.6337 358.00
40.938 319.00
41.2422 346.00
41.5465 377.00
41.8508 345.00
42.155 355.00
42.4593 349.00
42.7635 339.00
43.0678 347.00
43.3721 345.00
43.6763 314.00
43.9806 310.00
44.2849 338.00
44.5891 264.00
44.8934 306.00
45.1976 299.00
45.5019 306.00
45.8062 304.00
46.1104 277.00
46.4147 303.00
46.7189 303.00
47.0232 278.00
47.3275 274.00
47.6317 287.00
47.936 291.00
48.2402 260.00
48.5445 294.00
48.8488 293.00
49.153 264.00
49.4573 282.00
49.7615 272.00
50.0658 238.00
50.3701 260.00
50.6743 293.00
50.9786 275.00
51.2828 247.00
51.5871 266.00
51.8914 245.00
52.1956 249.00
52.4999 233.00
52.8041 271.00
53.1084 280.00
53.4127 233.00
53.7169 249.00
54.0212 259.00
54.3254 247.00
54.6297 223.00
54.934 241.00
55.2382 270.00
55.5425 213.00
55.8467 256.00
56.151 249.00
56.4553 227.00
56.7595 249.00
57.0638 264.00
57.368 205.00
57.6723 219.00
57.9766 200.00
58.2808 235.00
58.5851 221.00
58.8893 231.00
59.1936 216.00
59.4979 192.00
59.8021 214.00
60.1064 224.00
60.4106 206.00
60.7149 208.00
61.0192 201.00
61.3234 178.00
61.6277 201.00
61.932 197.00
62.2362 165.00
62.5405 219.00
62.8447 220.00
63.149 192.00
63.4533 206.00
63.7575 197.00
64.0618 187.00
64.366 183.00
64.6703 177.00
64.9745 196.00
65.2788 190.00
65.5831 185.00
65.8873 203.00
66.1916 164.00
66.4959 192.00
66.8001 177.00
67.1044 181.00
67.4086 202.00
67.7129 180.00
68.0172 187.00
68.3214 208.00
68.6257 183.00
68.9299 174.00
69.2342 198.00
69.5385 197.00
69.8427 170.00
70.147 194.00
70.4512 195.00
70.7555 194.00
71.0598 164.00
71.364 180.00
71.6683 182.00
71.9725 205.00
72.2768 190.00
72.5811 186.00
72.8853 181.00
73.1896 206.00
73.4938 209.00
73.7981 195.00
74.1024 220.00
74.4066 192.00
74.7109 205.00
75.0151 206.00
75.3194 211.00
75.6237 217.00
75.9279 193.00
76.2322 219.00
76.5364 188.00
76.8407 206.00
77.145 222.00
77.4492 185.00
77.7535 209.00
78.0577 187.00
78.362 178.00
78.6663 204.00
78.9705 228.00
79.2748 221.00
79.579 206.00
79.8833 229.00
80.1876 200.00
80.4918 206.00
80.7961 236.00
81.1003 198.00
81.4046 209.00
81.7089 247.00
82.0131 207.00
82.3174 222.00
82.6217 211.00
82.9259 211.00
83.2302 213.00
83.5344 232.00
83.8387 198.00
84.143 217.00
84.4472 228.00
84.7515 227.00
85.0557 231.00
85.36 232.00
85.6643 209.00
85.9685 203.00
86.2728 211.00
86.577 208.00
86.8813 187.00
87.1856 206.00
87.4898 201.00
87.7941 196.00
88.0983 196.00
88.4026 188.00
88.7069 189.00
89.0111 188.00
89.3154 199.00
89.6196 179.00
89.9239 200.00
90.2282 169.00
90.5324 212.00
90.8367 175.00
91.1409 172.00
91.4452 202.00
91.7495 196.00
92.0537 197.00
92.358 198.00
92.6622 186.00
92.9665 180.00
93.2708 188.00
93.575 177.00
93.8793 194.00
94.1835 176.00
94.4878 157.00
94.7921 167.00
95.0963 156.00
95.4006 171.00
95.7048 190.00
96.0091 196.00
96.3134 187.00
96.6176 193.00
96.9219 179.00
97.2261 181.00
97.5304 182.00
97.8347 195.00
98.1389 170.00
98.4432 210.00
98.7474 175.00
99.0517 157.00
99.356 179.00
99.6602 163.00
99.9645 161.00
100.095 173.00