Folder: alab-pipeline/data/xrd_creation/results (part 60)

File: NSC_139.xy
9.903433 2847.00
10.2077 2855.00
10.512 2767.00
10.8162 2680.00
11.1205 2495.00
11.4247 2597.00
11.729 2523.00
12.0333 2556.00
12.3375 2447.00
12.6418 2495.00
12.946 2564.00
13.2503 2456.00
13.5546 2432.00
13.8588 2391.00
14.1631 2352.00
14.4673 2266.00
14.7716 2286.00
15.0759 2163.00
15.3801 2210.00
15.6844 2135.00
15.9886 2160.00
16.2929 2113.00
16.5972 2055.00
16.9014 2099.00
17.2057 2068.00
17.5099 2019.00
17.8142 2044.00
18.1185 1980.00
18.4227 1978.00
18.727 1980.00
19.0312 2002.00
19.3355 2046.00
19.6398 2419.00
19.944 7874.00
20.2483 2129.00
20.5525 2207.00
20.8568 1893.00
21.1611 2219.00
21.4653 1923.00
21.7696 2021.00
22.0738 2485.00
22.3781 1854.00
22.6824 1793.00
22.9866 1804.00
23.2909 1822.00
23.5951 1904.00
23.8994 1808.00
24.2037 1757.00
24.5079 2278.00
24.8122 1770.00
25.1164 1772.00
25.4207 1964.00
25.725 2525.00
26.0292 20249.00
26.3335 2624.00
26.6378 1893.00
26.942 1880.00
27.2463 1930.00
27.5505 1926.00
27.8548 2307.00
28.1591 13068.00
28.4633 2291.00
28.7676 1863.00
29.0718 1920.00
29.3761 2082.00
29.6804 11144.00
29.9846 2006.00
30.2889 1667.00
30.5931 1643.00
30.8974 1685.00
31.2017 1666.00
31.5059 1733.00
31.8102 1627.00
32.1144 1698.00
32.4187 1563.00
32.723 1912.00
33.0272 1651.00
33.3315 1525.00
33.6357 1575.00
33.94 1499.00
34.2443 1422.00
34.5485 1556.00
34.8528 1490.00
35.157 1483.00
35.4613 1502.00
35.7656 1473.00
36.0698 1521.00
36.3741 1473.00
36.6783 1473.00
36.9826 1533.00
37.2869 1469.00
37.5911 1466.00
37.8954 1513.00
38.1996 1483.00
38.5039 1865.00
38.8082 2734.00
39.1124 1470.00
39.4167 1482.00
39.7209 1396.00
40.0252 1828.00
40.3295 2548.00
40.6337 1395.00
40.938 1422.00
41.2422 1355.00
41.5465 1445.00
41.8508 1397.00
42.155 1350.00
42.4593 1370.00
42.7635 1364.00
43.0678 1408.00
43.3721 1438.00
43.6763 1325.00
43.9806 1455.00
44.2849 2446.00
44.5891 2367.00
44.8934 1563.00
45.1976 4686.00
45.5019 1442.00
45.8062 1426.00
46.1104 1344.00
46.4147 1402.00
46.7189 1853.00
47.0232 1517.00
47.3275 1366.00
47.6317 1386.00
47.936 1569.00
48.2402 2258.00
48.5445 6454.00
48.8488 2703.00
49.153 5685.00
49.4573 1496.00
49.7615 1399.00
50.0658 1531.00
50.3701 1471.00
50.6743 2510.00
50.9786 1379.00
51.2828 1398.00
51.5871 1315.00
51.8914 1309.00
52.1956 1350.00
52.4999 1331.00
52.8041 1374.00
53.1084 1494.00
53.4127 3001.00
53.7169 1435.00
54.0212 1296.00
54.3254 1322.00
54.6297 1319.00
54.934 1373.00
55.2382 1826.00
55.5425 1783.00
55.8467 1453.00
56.151 1265.00
56.4553 1431.00
56.7595 4646.00
57.0638 1763.00
57.368 1411.00
57.6723 1485.00
57.9766 5298.00
58.2808 1431.00
58.5851 1274.00
58.8893 1331.00
59.1936 1289.00
59.4979 1262.00
59.8021 1293.00
60.1064 1284.00
60.4106 1247.00
60.7149 1295.00
61.0192 1306.00
61.3234 1418.00
61.6277 1382.00
61.932 1842.00
62.2362 1209.00
62.5405 1325.00
62.8447 1336.00
63.149 1327.00
63.4533 1356.00
63.7575 1352.00
64.0618 1338.00
64.366 1996.00
64.6703 2739.00
64.9745 10124.00
65.2788 2054.00
65.5831 2934.00
65.8873 1410.00
66.1916 1343.00
66.4959 1569.00
66.8001 1320.00
67.1044 1271.00
67.4086 1272.00
67.7129 1309.00
68.0172 1287.00
68.3214 1312.00
68.6257 1334.00
68.9299 1391.00
69.2342 1262.00
69.5385 1319.00
69.8427 1294.00
70.147 1285.00
70.4512 1776.00
70.7555 2144.00
71.0598 1290.00
71.364 1299.00
71.6683 1286.00
71.9725 1210.00
72.2768 1576.00
72.5811 1421.00
72.8853 1252.00
73.1896 1256.00
73.4938 1296.00
73.7981 1227.00
74.1024 1228.00
74.4066 1229.00
74.7109 1259.00
75.0151 1278.00
75.3194 1234.00
75.6237 2186.00
75.9279 1872.00
76.2322 1378.00
76.5364 1233.00
76.8407 1230.00
77.145 1308.00
77.4492 1978.00
77.7535 1711.00
78.0577 1284.00
78.362 1405.00
78.6663 1986.00
78.9705 3870.00
79.2748 2547.00
79.579 1210.00
79.8833 1311.00
80.1876 1713.00
80.4918 1600.00
80.7961 1327.00
81.1003 1302.00
81.4046 1293.00
81.7089 1210.00
82.0131 1301.00
82.3174 1781.00
82.6217 2599.00
82.9259 1461.00
83.2302 1287.00
83.5344 1229.00
83.8387 1251.00
84.143 1581.00
84.4472 1644.00
84.7515 1272.00
85.0557 1270.00
85.36 1408.00
85.6643 1268.00
85.9685 1299.00
86.2728 1719.00
86.577 1281.00
86.8813 1251.00
87.1856 1184.00
87.4898 1178.00
87.7941 1264.00
88.0983 1225.00
88.4026 1246.00
88.7069 1208.00
89.0111 1228.00
89.3154 1224.00
89.6196 1427.00
89.9239 1297.00
90.2282 1297.00
90.5324 1232.00
90.8367 1733.00
91.1409 1541.00
91.4452 1255.00
91.7495 1212.00
92.0537 1297.00
92.358 2669.00
92.6622 1990.00
92.9665 1491.00
93.2708 1354.00
93.575 1551.00
93.8793 1407.00
94.1835 1250.00
94.4878 1114.00
94.7921 1276.00
95.0963 1178.00
95.4006 1208.00
95.7048 1303.00
96.0091 1301.00
96.3134 1326.00
96.6176 1141.00
96.9219 1212.00
97.2261 1397.00
97.5304 2100.00
97.8347 1703.00
98.1389 1287.00
98.4432 1329.00
98.7474 1406.00
99.0517 1393.00
99.356 1395.00
99.6602 1608.00
99.9645 1613.00
100.095 1314.00

File: NSC_140.xy
9.903433 2936.00
10.2077 2893.00
10.512 2741.00
10.8162 3181.00
11.1205 2482.00
11.4247 2512.00
11.729 2342.00
12.0333 2344.00
12.3375 2236.00
12.6418 2183.00
12.946 2173.00
13.2503 2451.00
13.5546 2880.00
13.8588 2293.00
14.1631 2033.00
14.4673 1983.00
14.7716 1922.00
15.0759 1888.00
15.3801 1779.00
15.6844 1809.00
15.9886 1783.00
16.2929 1846.00
16.5972 1729.00
16.9014 1742.00
17.2057 1763.00
17.5099 2506.00
17.8142 1678.00
18.1185 1613.00
18.4227 1710.00
18.727 1533.00
19.0312 1668.00
19.3355 1774.00
19.6398 1619.00
19.944 1540.00
20.2483 2150.00
20.5525 2678.00
20.8568 3085.00
21.1611 24257.00
21.4653 6549.00
21.7696 2091.00
22.0738 1841.00
22.3781 1494.00
22.6824 1417.00
22.9866 1388.00
23.2909 2177.00
23.5951 1765.00
23.8994 1522.00
24.2037 1605.00
24.5079 1810.00
24.8122 1387.00
25.1164 1270.00
25.4207 1540.00
25.725 1374.00
26.0292 1342.00
26.3335 1332.00
26.6378 1196.00
26.942 1463.00
27.2463 1345.00
27.5505 1097.00
27.8548 1209.00
28.1591 1117.00
28.4633 1218.00
28.7676 987.00
29.0718 1164.00
29.3761 1034.00
29.6804 1464.00
29.9846 1441.00
30.2889 1074.00
30.5931 1145.00
30.8974 990.00
31.2017 1006.00
31.5059 966.00
31.8102 1101.00
32.1144 1223.00
32.4187 1215.00
32.723 949.00
33.0272 1129.00
33.3315 1049.00
33.6357 1086.00
33.94 1258.00
34.2443 1577.00
34.5485 12613.00
34.8528 14851.00
35.157 5842.00
35.4613 2479.00
35.7656 1117.00
36.0698 1316.00
36.3741 1258.00
36.6783 1101.00
36.9826 1251.00
37.2869 1450.00
37.5911 979.00
37.8954 947.00
38.1996 1202.00
38.5039 922.00
38.8082 1113.00
39.1124 930.00
39.4167 952.00
39.7209 1150.00
40.0252 956.00
40.3295 1547.00
40.6337 1827.00
40.938 1681.00
41.2422 1777.00
41.5465 1189.00
41.8508 900.00
42.155 936.00
42.4593 1011.00
42.7635 2344.00
43.0678 1956.00
43.3721 1587.00
43.6763 1112.00
43.9806 1673.00
44.2849 980.00
44.5891 922.00
44.8934 1199.00
45.1976 1049.00
45.5019 875.00
45.8062 973.00
46.1104 682.00
46.4147 726.00
46.7189 850.00
47.0232 941.00
47.3275 844.00
47.6317 842.00
47.936 772.00
48.2402 876.00
48.5445 927.00
48.8488 840.00
49.153 1004.00
49.4573 3019.00
49.7615 2485.00
50.0658 1757.00
50.3701 1792.00
50.6743 1442.00
50.9786 1084.00
51.2828 653.00
51.5871 697.00
51.8914 681.00
52.1956 705.00
52.4999 801.00
52.8041 708.00
53.1084 668.00
53.4127 730.00
53.7169 987.00
54.0212 731.00
54.3254 779.00
54.6297 866.00
54.934 1015.00
55.2382 994.00
55.5425 749.00
55.8467 867.00
56.151 687.00
56.4553 943.00
56.7595 729.00
57.0638 766.00
57.368 701.00
57.6723 631.00
57.9766 660.00
58.2808 779.00
58.5851 694.00
58.8893 651.00
59.1936 595.00
59.4979 587.00
59.8021 598.00
60.1064 676.00
60.4106 794.00
60.7149 772.00
61.0192 679.00
61.3234 705.00
61.6277 2028.00
61.932 3025.00
62.2362 2391.00
62.5405 2320.00
62.8447 1035.00
63.149 840.00
63.4533 769.00
63.7575 643.00
64.0618 693.00
64.366 591.00
64.6703 558.00
64.9745 604.00
65.2788 566.00
65.5831 646.00
65.8873 967.00
66.1916 678.00
66.4959 680.00
66.8001 805.00
67.1044 721.00
67.4086 673.00
67.7129 661.00
68.0172 537.00
68.3214 566.00
68.6257 572.00
68.9299 578.00
69.2342 711.00
69.5385 608.00
69.8427 599.00
70.147 594.00
70.4512 559.00
70.7555 550.00
71.0598 521.00
71.364 537.00
71.6683 518.00
71.9725 516.00
72.2768 623.00
72.5811 1145.00
72.8853 1123.00
73.1896 907.00
73.4938 691.00
73.7981 593.00
74.1024 625.00
74.4066 531.00
74.7109 618.00
75.0151 598.00
75.3194 508.00
75.6237 463.00
75.9279 483.00
76.2322 528.00
76.5364 653.00
76.8407 571.00
77.145 555.00
77.4492 569.00
77.7535 565.00
78.0577 527.00
78.362 534.00
78.6663 565.00
78.9705 515.00
79.2748 493.00
79.579 511.00
79.8833 459.00
80.1876 396.00
80.4918 453.00
80.7961 508.00
81.1003 428.00
81.4046 425.00
81.7089 452.00
82.0131 441.00
82.3174 475.00
82.6217 859.00
82.9259 977.00
83.2302 611.00
83.5344 541.00
83.8387 676.00
84.143 618.00
84.4472 559.00
84.7515 493.00
85.0557 523.00
85.36 482.00
85.6643 424.00
85.9685 410.00
86.2728 402.00
86.577 441.00
86.8813 541.00
87.1856 479.00
87.4898 473.00
87.7941 459.00
88.0983 441.00
88.4026 431.00
88.7069 445.00
89.0111 521.00
89.3154 447.00
89.6196 465.00
89.9239 465.00
90.2282 452.00
90.5324 453.00
90.8367 484.00
91.1409 396.00
91.4452 453.00
91.7495 403.00
92.0537 402.00
92.358 374.00
92.6622 485.00
92.9665 572.00
93.2708 575.00
93.575 510.00
93.8793 503.00
94.1835 508.00
94.4878 456.00
94.7921 454.00
95.0963 454.00
95.4006 391.00
95.7048 439.00
96.0091 444.00
96.3134 516.00
96.6176 462.00
96.9219 461.00
97.2261 435.00
97.5304 417.00
97.8347 427.00
98.1389 432.00
98.4432 444.00
98.7474 475.00
99.0517 438.00
99.356 456.00
99.6602 381.00
99.9645 447.00
100.095 479.00

File: NSC_141.xy
9.903433 2723.00
10.2077 2643.00
10.512 2377.00
10.8162 2373.00
11.1205 2368.00
11.4247 2230.00
11.729 2148.00
12.0333 2101.00
12.3375 1999.00
12.6418 1900.00
12.946 1847.00
13.2503 1747.00
13.5546 1714.00
13.8588 1713.00
14.1631 1647.00
14.4673 1850.00
14.7716 3370.00
15.0759 1600.00
15.3801 1560.00
15.6844 1569.00
15.9886 1551.00
16.2929 1477.00
16.5972 1438.00
16.9014 1436.00
17.2057 1395.00
17.5099 1345.00
17.8142 1362.00
18.1185 1318.00
18.4227 1288.00
18.727 1258.00
19.0312 1268.00
19.3355 1219.00
19.6398 1247.00
19.944 1273.00
20.2483 1228.00
20.5525 5175.00
20.8568 1405.00
21.1611 5416.00
21.4653 1251.00
21.7696 1213.00
22.0738 1163.00
22.3781 1007.00
22.6824 1058.00
22.9866 999.00
23.2909 1157.00
23.5951 1023.00
23.8994 1135.00
24.2037 1267.00
24.5079 12629.00
24.8122 2340.00
25.1164 998.00
25.4207 943.00
25.725 1072.00
26.0292 985.00
26.3335 869.00
26.6378 856.00
26.942 863.00
27.2463 879.00
27.5505 931.00
27.8548 1493.00
28.1591 788.00
28.4633 703.00
28.7676 772.00
29.0718 754.00
29.3761 932.00
29.6804 4781.00
29.9846 772.00
30.2889 739.00
30.5931 661.00
30.8974 648.00
31.2017 628.00
31.5059 623.00
31.8102 656.00
32.1144 727.00
32.4187 860.00
32.723 15409.00
33.0272 969.00
33.3315 650.00
33.6357 830.00
33.94 577.00
34.2443 556.00
34.5485 565.00
34.8528 527.00
35.157 517.00
35.4613 607.00
35.7656 559.00
36.0698 547.00
36.3741 1212.00
36.6783 819.00
36.9826 4375.00
37.2869 544.00
37.5911 499.00
37.8954 486.00
38.1996 427.00
38.5039 458.00
38.8082 460.00
39.1124 457.00
39.4167 454.00
39.7209 404.00
40.0252 431.00
40.3295 394.00
40.6337 391.00
40.938 424.00
41.2422 426.00
41.5465 1333.00
41.8508 427.00
42.155 402.00
42.4593 422.00
42.7635 387.00
43.0678 452.00
43.3721 1341.00
43.6763 439.00
43.9806 834.00
44.2849 487.00
44.5891 455.00
44.8934 1484.00
45.1976 390.00
45.5019 457.00
45.8062 352.00
46.1104 377.00
46.4147 363.00
46.7189 475.00
47.0232 2321.00
47.3275 432.00
47.6317 345.00
47.936 736.00
48.2402 355.00
48.5445 343.00
48.8488 730.00
49.153 357.00
49.4573 362.00
49.7615 622.00
50.0658 2891.00
50.3701 547.00
50.6743 1079.00
50.9786 348.00
51.2828 344.00
51.5871 319.00
51.8914 318.00
52.1956 290.00
52.4999 305.00
52.8041 440.00
53.1084 319.00
53.4127 399.00
53.7169 2180.00
54.0212 1670.00
54.3254 324.00
54.6297 1253.00
54.934 372.00
55.2382 368.00
55.5425 335.00
55.8467 275.00
56.151 294.00
56.4553 428.00
56.7595 1120.00
57.0638 498.00
57.368 868.00
57.6723 3071.00
57.9766 640.00
58.2808 304.00
58.5851 304.00
58.8893 588.00
59.1936 1279.00
59.4979 319.00
59.8021 309.00
60.1064 264.00
60.4106 243.00
60.7149 306.00
61.0192 1454.00
61.3234 365.00
61.6277 250.00
61.932 282.00
62.2362 284.00
62.5405 897.00
62.8447 862.00
63.149 372.00
63.4533 336.00
63.7575 967.00
64.0618 708.00
64.366 395.00
64.6703 269.00
64.9745 312.00
65.2788 1446.00
65.5831 449.00
65.8873 527.00
66.1916 825.00
66.4959 355.00
66.8001 884.00
67.1044 284.00
67.4086 220.00
67.7129 322.00
68.0172 302.00
68.3214 386.00
68.6257 724.00
68.9299 271.00
69.2342 542.00
69.5385 618.00
69.8427 258.00
70.147 338.00
70.4512 225.00
70.7555 388.00
71.0598 315.00
71.364 266.00
71.6683 390.00
71.9725 527.00
72.2768 279.00
72.5811 227.00
72.8853 207.00
73.1896 280.00
73.4938 336.00
73.7981 233.00
74.1024 685.00
74.4066 279.00
74.7109 236.00
75.0151 316.00
75.3194 349.00
75.6237 401.00
75.9279 207.00
76.2322 193.00
76.5364 201.00
76.8407 256.00
77.145 282.00
77.4492 465.00
77.7535 225.00
78.0577 374.00
78.362 688.00
78.6663 287.00
78.9705 506.00
79.2748 667.00
79.579 378.00
79.8833 237.00
80.1876 283.00
80.4918 213.00
80.7961 211.00
81.1003 365.00
81.4046 227.00
81.7089 216.00
82.0131 436.00
82.3174 224.00
82.6217 269.00
82.9259 226.00
83.2302 370.00
83.5344 301.00
83.8387 214.00
84.143 172.00
84.4472 244.00
84.7515 292.00
85.0557 354.00
85.36 248.00
85.6643 185.00
85.9685 200.00
86.2728 223.00
86.577 270.00
86.8813 247.00
87.1856 778.00
87.4898 434.00
87.7941 234.00
88.0983 205.00
88.4026 209.00
88.7069 668.00
89.0111 365.00
89.3154 675.00
89.6196 403.00
89.9239 240.00
90.2282 198.00
90.5324 228.00
90.8367 268.00
91.1409 248.00
91.4452 420.00
91.7495 321.00
92.0537 183.00
92.358 356.00
92.6622 321.00
92.9665 215.00
93.2708 242.00
93.575 316.00
93.8793 574.00
94.1835 352.00
94.4878 225.00
94.7921 245.00
95.0963 284.00
95.4006 303.00
95.7048 243.00
96.0091 250.00
96.3134 364.00
96.6176 307.00
96.9219 280.00
97.2261 264.00
97.5304 194.00
97.8347 172.00
98.1389 211.00
98.4432 275.00
98.7474 226.00
99.0517 343.00
99.356 280.00
99.6602 225.00
99.9645 493.00
100.095 641.00

File: NSC_142.xy
9.903433 2663.00
10.2077 2627.00
10.512 2510.00
10.8162 2478.00
11.1205 2378.00
11.4247 2361.00
11.729 2220.00
12.0333 2129.00
12.3375 2196.00
12.6418 1972.00
12.946 2017.00
13.2503 1902.00
13.5546 1926.00
13.8588 2204.00
14.1631 2780.00
14.4673 1816.00
14.7716 1718.00
15.0759 1811.00
15.3801 2359.00
15.6844 2787.00
15.9886 1831.00
16.2929 1628.00
16.5972 1672.00
16.9014 1607.00
17.2057 1557.00
17.5099 1615.00
17.8142 1501.00
18.1185 1463.00
18.4227 1511.00
18.727 1444.00
19.0312 1437.00
19.3355 1476.00
19.6398 2815.00
19.944 5534.00
20.2483 1841.00
20.5525 2122.00
20.8568 1595.00
21.1611 1467.00
21.4653 1348.00
21.7696 2141.00
22.0738 1400.00
22.3781 1338.00
22.6824 1305.00
22.9866 1311.00
23.2909 2323.00
23.5951 1298.00
23.8994 1202.00
24.2037 1237.00
24.5079 1363.00
24.8122 1372.00
25.1164 1312.00
25.4207 1125.00
25.725 1087.00
26.0292 1071.00
26.3335 1057.00
26.6378 1099.00
26.942 1055.00
27.2463 1130.00
27.5505 1140.00
27.8548 1209.00
28.1591 3141.00
28.4633 2285.00
28.7676 1057.00
29.0718 1040.00
29.3761 980.00
29.6804 1119.00
29.9846 1342.00
30.2889 1497.00
30.5931 1658.00
30.8974 2028.00
31.2017 1639.00
31.5059 6556.00
31.8102 2666.00
32.1144 1747.00
32.4187 2408.00
32.723 1321.00
33.0272 1013.00
33.3315 1148.00
33.6357 1785.00
33.94 971.00
34.2443 1047.00
34.5485 2424.00
34.8528 6181.00
35.157 984.00
35.4613 905.00
35.7656 952.00
36.0698 842.00
36.3741 897.00
36.6783 848.00
36.9826 734.00
37.2869 712.00
37.5911 719.00
37.8954 876.00
38.1996 743.00
38.5039 796.00
38.8082 706.00
39.1124 649.00
39.4167 737.00
39.7209 758.00
40.0252 843.00
40.3295 1034.00
40.6337 968.00
40.938 635.00
41.2422 686.00
41.5465 678.00
41.8508 769.00
42.155 1471.00
42.4593 1421.00
42.7635 1565.00
43.0678 963.00
43.3721 832.00
43.6763 614.00
43.9806 643.00
44.2849 706.00
44.5891 882.00
44.8934 874.00
45.1976 1838.00
45.5019 1143.00
45.8062 891.00
46.1104 730.00
46.4147 830.00
46.7189 633.00
47.0232 832.00
47.3275 1660.00
47.6317 2437.00
47.936 706.00
48.2402 585.00
48.5445 627.00
48.8488 1024.00
49.153 810.00
49.4573 744.00
49.7615 723.00
50.0658 773.00
50.3701 630.00
50.6743 948.00
50.9786 809.00
51.2828 1084.00
51.5871 1287.00
51.8914 1316.00
52.1956 692.00
52.4999 569.00
52.8041 604.00
53.1084 638.00
53.4127 666.00
53.7169 772.00
54.0212 1459.00
54.3254 1808.00
54.6297 666.00
54.934 546.00
55.2382 585.00
55.5425 876.00
55.8467 679.00
56.151 684.00
56.4553 1072.00
56.7595 931.00
57.0638 602.00
57.368 551.00
57.6723 535.00
57.9766 543.00
58.2808 517.00
58.5851 519.00
58.8893 576.00
59.1936 860.00
59.4979 866.00
59.8021 1378.00
60.1064 2092.00
60.4106 1089.00
60.7149 877.00
61.0192 978.00
61.3234 919.00
61.6277 907.00
61.932 1007.00
62.2362 1186.00
62.5405 793.00
62.8447 609.00
63.149 651.00
63.4533 669.00
63.7575 906.00
64.0618 658.00
64.366 578.00
64.6703 581.00
64.9745 542.00
65.2788 466.00
65.5831 519.00
65.8873 887.00
66.1916 644.00
66.4959 554.00
66.8001 562.00
67.1044 810.00
67.4086 913.00
67.7129 788.00
68.0172 518.00
68.3214 533.00
68.6257 525.00
68.9299 503.00
69.2342 650.00
69.5385 777.00
69.8427 612.00
70.147 486.00
70.4512 497.00
70.7555 519.00
71.0598 537.00
71.364 533.00
71.6683 421.00
71.9725 526.00
72.2768 505.00
72.5811 523.00
72.8853 550.00
73.1896 751.00
73.4938 568.00
73.7981 432.00
74.1024 472.00
74.4066 553.00
74.7109 514.00
75.0151 486.00
75.3194 547.00
75.6237 491.00
75.9279 532.00
76.2322 562.00
76.5364 722.00
76.8407 580.00
77.145 432.00
77.4492 431.00
77.7535 456.00
78.0577 626.00
78.362 630.00
78.6663 437.00
78.9705 451.00
79.2748 445.00
79.579 494.00
79.8833 443.00
80.1876 474.00
80.4918 499.00
80.7961 487.00
81.1003 538.00
81.4046 649.00
81.7089 769.00
82.0131 592.00
82.3174 446.00
82.6217 446.00
82.9259 469.00
83.2302 538.00
83.5344 586.00
83.8387 421.00
84.143 358.00
84.4472 411.00
84.7515 434.00
85.0557 404.00
85.36 371.00
85.6643 381.00
85.9685 449.00
86.2728 489.00
86.577 504.00
86.8813 466.00
87.1856 421.00
87.4898 435.00
87.7941 490.00
88.0983 511.00
88.4026 628.00
88.7069 519.00
89.0111 440.00
89.3154 474.00
89.6196 484.00
89.9239 483.00
90.2282 544.00
90.5324 483.00
90.8367 412.00
91.1409 485.00
91.4452 520.00
91.7495 584.00
92.0537 542.00
92.358 514.00
92.6622 467.00
92.9665 461.00
93.2708 470.00
93.575 438.00
93.8793 415.00
94.1835 403.00
94.4878 413.00
94.7921 616.00
95.0963 690.00
95.4006 534.00
95.7048 469.00
96.0091 513.00
96.3134 523.00
96.6176 585.00
96.9219 545.00
97.2261 531.00
97.5304 508.00
97.8347 404.00
98.1389 429.00
98.4432 516.00
98.7474 443.00
99.0517 413.00
99.356 400.00
99.6602 478.00
99.9645 476.00
100.095 465.00

File: NSC_143.xy
9.903433 3130.00
10.2077 3033.00
10.512 3132.00
10.8162 2789.00
11.1205 2819.00
11.4247 2760.00
11.729 2745.00
12.0333 2811.00
12.3375 2779.00
12.6418 2720.00
12.946 2671.00
13.2503 2518.00
13.5546 2809.00
13.8588 4614.00
14.1631 3148.00
14.4673 2977.00
14.7716 3074.00
15.0759 2500.00
15.3801 2554.00
15.6844 2404.00
15.9886 2468.00
16.2929 2511.00
16.5972 2435.00
16.9014 2466.00
17.2057 2450.00
17.5099 2444.00
17.8142 2480.00
18.1185 2419.00
18.4227 2389.00
18.727 2346.00
19.0312 2582.00
19.3355 2912.00
19.6398 10260.00
19.944 3067.00
20.2483 2384.00
20.5525 2395.00
20.8568 3066.00
21.1611 2193.00
21.4653 2278.00
21.7696 2246.00
22.0738 2116.00
22.3781 2452.00
22.6824 2526.00
22.9866 5109.00
23.2909 3078.00
23.5951 2806.00
23.8994 2379.00
24.2037 2695.00
24.5079 2187.00
24.8122 2259.00
25.1164 2232.00
25.4207 2164.00
25.725 2116.00
26.0292 2108.00
26.3335 2169.00
26.6378 2318.00
26.942 2213.00
27.2463 2320.00
27.5505 2295.00
27.8548 4827.00
28.1591 2095.00
28.4633 2085.00
28.7676 2226.00
29.0718 2302.00
29.3761 6279.00
29.6804 2946.00
29.9846 2281.00
30.2889 2845.00
30.5931 2457.00
30.8974 2844.00
31.2017 12221.00
31.5059 3686.00
31.8102 2188.00
32.1144 2220.00
32.4187 2737.00
32.723 2541.00
33.0272 2359.00
33.3315 2036.00
33.6357 2105.00
33.94 3150.00
34.2443 18041.00
34.5485 2629.00
34.8528 2036.00
35.157 1877.00
35.4613 1847.00
35.7656 1793.00
36.0698 1898.00
36.3741 1939.00
36.6783 1778.00
36.9826 1835.00
37.2869 1799.00
37.5911 1754.00
37.8954 1800.00
38.1996 1766.00
38.5039 1748.00
38.8082 1707.00
39.1124 1781.00
39.4167 1804.00
39.7209 1969.00
40.0252 1836.00
40.3295 1982.00
40.6337 1821.00
40.938 1781.00
41.2422 1856.00
41.5465 3370.00
41.8508 2205.00
42.155 3400.00
42.4593 2291.00
42.7635 1935.00
43.0678 2004.00
43.3721 1823.00
43.6763 2146.00
43.9806 1999.00
44.2849 2005.00
44.5891 3153.00
44.8934 1790.00
45.1976 1912.00
45.5019 2144.00
45.8062 2049.00
46.1104 1944.00
46.4147 2191.00
46.7189 3717.00
47.0232 6203.00
47.3275 2322.00
47.6317 2033.00
47.936 2106.00
48.2402 2045.00
48.5445 2133.00
48.8488 4474.00
49.153 2649.00
49.4573 2367.00
49.7615 1844.00
50.0658 1783.00
50.3701 1856.00
50.6743 2144.00
50.9786 2030.00
51.2828 2946.00
51.5871 2048.00
51.8914 1706.00
52.1956 1695.00
52.4999 1775.00
52.8041 1877.00
53.1084 3465.00
53.4127 2838.00
53.7169 2073.00
54.0212 1805.00
54.3254 1832.00
54.6297 1961.00
54.934 1829.00
55.2382 1687.00
55.5425 1663.00
55.8467 1716.00
56.151 1774.00
56.4553 2003.00
56.7595 1741.00
57.0638 1678.00
57.368 1616.00
57.6723 1888.00
57.9766 2790.00
58.2808 1825.00
58.5851 1790.00
58.8893 2113.00
59.1936 4358.00
59.4979 2442.00
59.8021 1820.00
60.1064 1697.00
60.4106 1769.00
60.7149 2209.00
61.0192 3224.00
61.3234 2794.00
61.6277 1752.00
61.932 1686.00
62.2362 1763.00
62.5405 1713.00
62.8447 1751.00
63.149 1708.00
63.4533 1642.00
63.7575 1637.00
64.0618 1523.00
64.366 1625.00
64.6703 1912.00
64.9745 1889.00
65.2788 1590.00
65.5831 1517.00
65.8873 1783.00
66.1916 1773.00
66.4959 1870.00
66.8001 1767.00
67.1044 1583.00
67.4086 1521.00
67.7129 1553.00
68.0172 1685.00
68.3214 1745.00
68.6257 1589.00
68.9299 1584.00
69.2342 1447.00
69.5385 1629.00
69.8427 1572.00
70.147 1506.00
70.4512 1510.00
70.7555 1446.00
71.0598 1469.00
71.364 1709.00
71.6683 2148.00
71.9725 1749.00
72.2768 1520.00
72.5811 1659.00
72.8853 1678.00
73.1896 1559.00
73.4938 1552.00
73.7981 1528.00
74.1024 1456.00
74.4066 1463.00
74.7109 1500.00
75.0151 1890.00
75.3194 1866.00
75.6237 1704.00
75.9279 1454.00
76.2322 1599.00
76.5364 1567.00
76.8407 1663.00
77.145 1463.00
77.4492 1569.00
77.7535 1660.00
78.0577 1473.00
78.362 1548.00
78.6663 1585.00
78.9705 1684.00
79.2748 1509.00
79.579 1492.00
79.8833 1898.00
80.1876 1962.00
80.4918 1633.00
80.7961 1550.00
81.1003 1513.00
81.4046 1617.00
81.7089 1734.00
82.0131 1778.00
82.3174 1511.00
82.6217 1433.00
82.9259 1502.00
83.2302 1479.00
83.5344 1412.00
83.8387 1511.00
84.143 1513.00
84.4472 1479.00
84.7515 1492.00
85.0557 1513.00
85.36 1478.00
85.6643 1442.00
85.9685 1517.00
86.2728 1581.00
86.577 1772.00
86.8813 1690.00
87.1856 1530.00
87.4898 1480.00
87.7941 1504.00
88.0983 1533.00
88.4026 1480.00
88.7069 1551.00
89.0111 1559.00
89.3154 1450.00
89.6196 1588.00
89.9239 1612.00
90.2282 1554.00
90.5324 1499.00
90.8367 1553.00
91.1409 1664.00
91.4452 1664.00
91.7495 1682.00
92.0537 1545.00
92.358 1503.00
92.6622 1447.00
92.9665 1466.00
93.2708 1583.00
93.575 1571.00
93.8793 1431.00
94.1835 1433.00
94.4878 1494.00
94.7921 1544.00
95.0963 1609.00
95.4006 1526.00
95.7048 1573.00
96.0091 1559.00
96.3134 1482.00
96.6176 1459.00
96.9219 1397.00
97.2261 1512.00
97.5304 1550.00
97.8347 1491.00
98.1389 1592.00
98.4432 1614.00
98.7474 1514.00
99.0517 1557.00
99.356 1587.00
99.6602 1753.00
99.9645 1674.00
100.095 1645.00