Folder: alab-pipeline/data/xrd_creation/results (part 11)

File: Na_46.xy
9.903433 2612.00
10.2077 2480.00
10.512 2390.00
10.8162 2333.00
11.1205 2225.00
11.4247 2115.00
11.729 2084.00
12.0333 2069.00
12.3375 1973.00
12.6418 1826.00
12.946 1797.00
13.2503 1714.00
13.5546 1712.00
13.8588 1663.00
14.1631 1700.00
14.4673 1688.00
14.7716 1513.00
15.0759 1628.00
15.3801 1547.00
15.6844 1727.00
15.9886 1467.00
16.2929 1534.00
16.5972 1454.00
16.9014 1646.00
17.2057 1488.00
17.5099 1621.00
17.8142 1369.00
18.1185 1422.00
18.4227 1275.00
18.727 1267.00
19.0312 1359.00
19.3355 1296.00
19.6398 1578.00
19.944 1268.00
20.2483 1324.00
20.5525 1180.00
20.8568 1261.00
21.1611 1370.00
21.4653 1181.00
21.7696 2236.00
22.0738 1216.00
22.3781 1076.00
22.6824 1056.00
22.9866 1157.00
23.2909 1107.00
23.5951 1349.00
23.8994 1069.00
24.2037 1324.00
24.5079 1153.00
24.8122 1194.00
25.1164 992.00
25.4207 929.00
25.725 921.00
26.0292 1000.00
26.3335 1001.00
26.6378 854.00
26.942 912.00
27.2463 911.00
27.5505 1129.00
27.8548 2275.00
28.1591 1041.00
28.4633 856.00
28.7676 969.00
29.0718 840.00
29.3761 906.00
29.6804 861.00
29.9846 1976.00
30.2889 2498.00
30.5931 899.00
30.8974 943.00
31.2017 917.00
31.5059 1357.00
31.8102 1563.00
32.1144 859.00
32.4187 1068.00
32.723 999.00
33.0272 664.00
33.3315 686.00
33.6357 874.00
33.94 667.00
34.2443 575.00
34.5485 702.00
34.8528 883.00
35.157 609.00
35.4613 693.00
35.7656 585.00
36.0698 715.00
36.3741 871.00
36.6783 959.00
36.9826 816.00
37.2869 1878.00
37.5911 686.00
37.8954 635.00
38.1996 581.00
38.5039 909.00
38.8082 553.00
39.1124 478.00
39.4167 545.00
39.7209 518.00
40.0252 499.00
40.3295 635.00
40.6337 1039.00
40.938 603.00
41.2422 519.00
41.5465 541.00
41.8508 556.00
42.155 571.00
42.4593 580.00
42.7635 574.00
43.0678 482.00
43.3721 543.00
43.6763 554.00
43.9806 432.00
44.2849 492.00
44.5891 575.00
44.8934 450.00
45.1976 506.00
45.5019 499.00
45.8062 406.00
46.1104 600.00
46.4147 473.00
46.7189 494.00
47.0232 472.00
47.3275 449.00
47.6317 544.00
47.936 533.00
48.2402 427.00
48.5445 466.00
48.8488 549.00
49.153 404.00
49.4573 661.00
49.7615 669.00
50.0658 1082.00
50.3701 1055.00
50.6743 467.00
50.9786 426.00
51.2828 413.00
51.5871 442.00
51.8914 420.00
52.1956 601.00
52.4999 710.00
52.8041 509.00
53.1084 514.00
53.4127 684.00
53.7169 854.00
54.0212 451.00
54.3254 447.00
54.6297 462.00
54.934 395.00
55.2382 409.00
55.5425 418.00
55.8467 397.00
56.151 452.00
56.4553 504.00
56.7595 502.00
57.0638 471.00
57.368 484.00
57.6723 501.00
57.9766 455.00
58.2808 396.00
58.5851 394.00
58.8893 679.00
59.1936 589.00
59.4979 598.00
59.8021 493.00
60.1064 756.00
60.4106 673.00
60.7149 573.00
61.0192 378.00
61.3234 337.00
61.6277 446.00
61.932 393.00
62.2362 443.00
62.5405 494.00
62.8447 481.00
63.149 566.00
63.4533 505.00
63.7575 426.00
64.0618 465.00
64.366 430.00
64.6703 339.00
64.9745 380.00
65.2788 470.00
65.5831 370.00
65.8873 392.00
66.1916 399.00
66.4959 467.00
66.8001 303.00
67.1044 306.00
67.4086 316.00
67.7129 372.00
68.0172 533.00
68.3214 371.00
68.6257 349.00
68.9299 356.00
69.2342 379.00
69.5385 354.00
69.8427 372.00
70.147 329.00
70.4512 308.00
70.7555 323.00
71.0598 357.00
71.364 406.00
71.6683 359.00
71.9725 383.00
72.2768 324.00
72.5811 354.00
72.8853 362.00
73.1896 383.00
73.4938 343.00
73.7981 325.00
74.1024 310.00
74.4066 380.00
74.7109 382.00
75.0151 330.00
75.3194 325.00
75.6237 313.00
75.9279 310.00
76.2322 295.00
76.5364 287.00
76.8407 316.00
77.145 316.00
77.4492 300.00
77.7535 319.00
78.0577 239.00
78.362 275.00
78.6663 351.00
78.9705 324.00
79.2748 307.00
79.579 320.00
79.8833 321.00
80.1876 301.00
80.4918 334.00
80.7961 381.00
81.1003 402.00
81.4046 409.00
81.7089 421.00
82.0131 422.00
82.3174 414.00
82.6217 352.00
82.9259 358.00
83.2302 315.00
83.5344 337.00
83.8387 320.00
84.143 285.00
84.4472 296.00
84.7515 376.00
85.0557 330.00
85.36 282.00
85.6643 353.00
85.9685 393.00
86.2728 264.00
86.577 301.00
86.8813 302.00
87.1856 339.00
87.4898 449.00
87.7941 359.00
88.0983 326.00
88.4026 275.00
88.7069 243.00
89.0111 362.00
89.3154 310.00
89.6196 320.00
89.9239 297.00
90.2282 281.00
90.5324 314.00
90.8367 276.00
91.1409 307.00
91.4452 313.00
91.7495 317.00
92.0537 286.00
92.358 309.00
92.6622 307.00
92.9665 303.00
93.2708 320.00
93.575 266.00
93.8793 320.00
94.1835 342.00
94.4878 336.00
94.7921 287.00
95.0963 270.00
95.4006 302.00
95.7048 282.00
96.0091 266.00
96.3134 292.00
96.6176 299.00
96.9219 270.00
97.2261 314.00
97.5304 279.00
97.8347 240.00
98.1389 250.00
98.4432 214.00
98.7474 279.00
99.0517 226.00
99.356 260.00
99.6602 298.00
99.9645 316.00
100.095 312.00

File: Na_47.xy
9.903433 2631.00
10.2077 2624.00
10.512 2507.00
10.8162 2321.00
11.1205 2280.00
11.4247 2234.00
11.729 2168.00
12.0333 2120.00
12.3375 2055.00
12.6418 2020.00
12.946 1889.00
13.2503 1897.00
13.5546 1935.00
13.8588 1915.00
14.1631 1977.00
14.4673 2245.00
14.7716 1964.00
15.0759 1800.00
15.3801 1711.00
15.6844 1759.00
15.9886 1758.00
16.2929 1637.00
16.5972 1657.00
16.9014 1660.00
17.2057 1661.00
17.5099 1631.00
17.8142 1659.00
18.1185 1657.00
18.4227 1565.00
18.727 1499.00
19.0312 1512.00
19.3355 1452.00
19.6398 1525.00
19.944 1490.00
20.2483 1441.00
20.5525 1473.00
20.8568 1527.00
21.1611 1453.00
21.4653 1471.00
21.7696 1464.00
22.0738 1480.00
22.3781 1807.00
22.6824 2542.00
22.9866 17217.00
23.2909 4869.00
23.5951 1846.00
23.8994 1646.00
24.2037 1545.00
24.5079 1428.00
24.8122 1451.00
25.1164 1391.00
25.4207 1308.00
25.725 1404.00
26.0292 1335.00
26.3335 1267.00
26.6378 1284.00
26.942 1308.00
27.2463 1320.00
27.5505 1318.00
27.8548 1740.00
28.1591 1711.00
28.4633 1410.00
28.7676 1649.00
29.0718 3351.00
29.3761 2528.00
29.6804 2163.00
29.9846 1296.00
30.2889 1264.00
30.5931 1212.00
30.8974 1218.00
31.2017 1212.00
31.5059 1150.00
31.8102 1393.00
32.1144 1644.00
32.4187 2867.00
32.723 36739.00
33.0272 4948.00
33.3315 1673.00
33.6357 1551.00
33.94 2617.00
34.2443 1378.00
34.5485 1309.00
34.8528 1175.00
35.157 1140.00
35.4613 1148.00
35.7656 1140.00
36.0698 1111.00
36.3741 1158.00
36.6783 1188.00
36.9826 1102.00
37.2869 1135.00
37.5911 1073.00
37.8954 1047.00
38.1996 1038.00
38.5039 1209.00
38.8082 1143.00
39.1124 1039.00
39.4167 1074.00
39.7209 1105.00
40.0252 1289.00
40.3295 6046.00
40.6337 1653.00
40.938 1044.00
41.2422 1003.00
41.5465 943.00
41.8508 957.00
42.155 1020.00
42.4593 942.00
42.7635 963.00
43.0678 984.00
43.3721 963.00
43.6763 1054.00
43.9806 1103.00
44.2849 1035.00
44.5891 982.00
44.8934 938.00
45.1976 1019.00
45.5019 1024.00
45.8062 1041.00
46.1104 1060.00
46.4147 1238.00
46.7189 3571.00
47.0232 8747.00
47.3275 1371.00
47.6317 1135.00
47.936 1115.00
48.2402 1203.00
48.5445 2007.00
48.8488 1241.00
49.153 1195.00
49.4573 1057.00
49.7615 1009.00
50.0658 1017.00
50.3701 944.00
50.6743 1054.00
50.9786 1168.00
51.2828 1087.00
51.5871 1123.00
51.8914 1109.00
52.1956 1271.00
52.4999 2668.00
52.8041 16333.00
53.1084 2676.00
53.4127 1221.00
53.7169 1104.00
54.0212 1014.00
54.3254 972.00
54.6297 913.00
54.934 946.00
55.2382 962.00
55.5425 989.00
55.8467 950.00
56.151 1041.00
56.4553 1048.00
56.7595 1117.00
57.0638 1424.00
57.368 1551.00
57.6723 1742.00
57.9766 3837.00
58.2808 12868.00
58.5851 3183.00
58.8893 1323.00
59.1936 1022.00
59.4979 1020.00
59.8021 1056.00
60.1064 1076.00
60.4106 936.00
60.7149 1067.00
61.0192 1086.00
61.3234 1005.00
61.6277 923.00
61.932 992.00
62.2362 960.00
62.5405 922.00
62.8447 916.00
63.149 931.00
63.4533 923.00
63.7575 935.00
64.0618 905.00
64.366 913.00
64.6703 867.00
64.9745 895.00
65.2788 919.00
65.5831 844.00
65.8873 949.00
66.1916 956.00
66.4959 900.00
66.8001 936.00
67.1044 994.00
67.4086 943.00
67.7129 1089.00
68.0172 1782.00
68.3214 5506.00
68.6257 1907.00
68.9299 1022.00
69.2342 897.00
69.5385 866.00
69.8427 900.00
70.147 900.00
70.4512 946.00
70.7555 987.00
71.0598 947.00
71.364 941.00
71.6683 927.00
71.9725 948.00
72.2768 1001.00
72.5811 1209.00
72.8853 3517.00
73.1896 4479.00
73.4938 1667.00
73.7981 995.00
74.1024 972.00
74.4066 902.00
74.7109 904.00
75.0151 889.00
75.3194 966.00
75.6237 876.00
75.9279 926.00
76.2322 893.00
76.5364 950.00
76.8407 988.00
77.145 1130.00
77.4492 2032.00
77.7535 4656.00
78.0577 2002.00
78.362 1164.00
78.6663 1073.00
78.9705 975.00
79.2748 941.00
79.579 962.00
79.8833 945.00
80.1876 971.00
80.4918 973.00
80.7961 999.00
81.1003 949.00
81.4046 937.00
81.7089 1042.00
82.0131 1750.00
82.3174 2421.00
82.6217 1490.00
82.9259 977.00
83.2302 905.00
83.5344 894.00
83.8387 904.00
84.143 934.00
84.4472 911.00
84.7515 854.00
85.0557 810.00
85.36 865.00
85.6643 843.00
85.9685 861.00
86.2728 1051.00
86.577 1545.00
86.8813 1643.00
87.1856 1233.00
87.4898 930.00
87.7941 870.00
88.0983 886.00
88.4026 906.00
88.7069 883.00
89.0111 906.00
89.3154 911.00
89.6196 900.00
89.9239 903.00
90.2282 927.00
90.5324 971.00
90.8367 1225.00
91.1409 2780.00
91.4452 2111.00
91.7495 1154.00
92.0537 1001.00
92.358 934.00
92.6622 928.00
92.9665 894.00
93.2708 969.00
93.575 856.00
93.8793 855.00
94.1835 906.00
94.4878 850.00
94.7921 1017.00
95.0963 1210.00
95.4006 2343.00
95.7048 4332.00
96.0091 3294.00
96.3134 1657.00
96.6176 1168.00
96.9219 1017.00
97.2261 926.00
97.5304 874.00
97.8347 903.00
98.1389 923.00
98.4432 872.00
98.7474 920.00
99.0517 896.00
99.356 917.00
99.6602 877.00
99.9645 886.00
100.095 877.00

File: Na_48.xy
9.903433 2711.00
10.2077 2588.00
10.512 2599.00
10.8162 2326.00
11.1205 2317.00
11.4247 2205.00
11.729 2088.00
12.0333 2049.00
12.3375 1910.00
12.6418 1881.00
12.946 1831.00
13.2503 1700.00
13.5546 1707.00
13.8588 1678.00
14.1631 1641.00
14.4673 1612.00
14.7716 1529.00
15.0759 1573.00
15.3801 1446.00
15.6844 1432.00
15.9886 1426.00
16.2929 1402.00
16.5972 1426.00
16.9014 1359.00
17.2057 1395.00
17.5099 1337.00
17.8142 1323.00
18.1185 1227.00
18.4227 1283.00
18.727 1270.00
19.0312 1179.00
19.3355 1175.00
19.6398 1167.00
19.944 1137.00
20.2483 1141.00
20.5525 1138.00
20.8568 1118.00
21.1611 1072.00
21.4653 1079.00
21.7696 1017.00
22.0738 1021.00
22.3781 1020.00
22.6824 977.00
22.9866 1118.00
23.2909 972.00
23.5951 1004.00
23.8994 954.00
24.2037 919.00
24.5079 919.00
24.8122 922.00
25.1164 920.00
25.4207 997.00
25.725 4772.00
26.0292 1007.00
26.3335 945.00
26.6378 905.00
26.942 825.00
27.2463 899.00
27.5505 819.00
27.8548 788.00
28.1591 864.00
28.4633 823.00
28.7676 809.00
29.0718 921.00
29.3761 2409.00
29.6804 2381.00
29.9846 2947.00
30.2889 771.00
30.5931 753.00
30.8974 696.00
31.2017 719.00
31.5059 719.00
31.8102 715.00
32.1144 702.00
32.4187 682.00
32.723 572.00
33.0272 674.00
33.3315 569.00
33.6357 570.00
33.94 684.00
34.2443 617.00
34.5485 631.00
34.8528 649.00
35.157 615.00
35.4613 638.00
35.7656 627.00
36.0698 669.00
36.3741 546.00
36.6783 539.00
36.9826 552.00
37.2869 547.00
37.5911 513.00
37.8954 514.00
38.1996 526.00
38.5039 508.00
38.8082 527.00
39.1124 525.00
39.4167 736.00
39.7209 499.00
40.0252 453.00
40.3295 459.00
40.6337 466.00
40.938 518.00
41.2422 460.00
41.5465 499.00
41.8508 502.00
42.155 514.00
42.4593 611.00
42.7635 4394.00
43.0678 776.00
43.3721 547.00
43.6763 494.00
43.9806 498.00
44.2849 466.00
44.5891 420.00
44.8934 465.00
45.1976 475.00
45.5019 455.00
45.8062 429.00
46.1104 383.00
46.4147 393.00
46.7189 420.00
47.0232 490.00
47.3275 511.00
47.6317 505.00
47.936 393.00
48.2402 417.00
48.5445 614.00
48.8488 428.00
49.153 382.00
49.4573 402.00
49.7615 367.00
50.0658 418.00
50.3701 509.00
50.6743 1332.00
50.9786 424.00
51.2828 393.00
51.5871 387.00
51.8914 384.00
52.1956 349.00
52.4999 395.00
52.8041 511.00
53.1084 1108.00
53.4127 415.00
53.7169 381.00
54.0212 413.00
54.3254 369.00
54.6297 390.00
54.934 375.00
55.2382 342.00
55.5425 339.00
55.8467 339.00
56.151 370.00
56.4553 386.00
56.7595 340.00
57.0638 364.00
57.368 426.00
57.6723 357.00
57.9766 335.00
58.2808 367.00
58.5851 333.00
58.8893 328.00
59.1936 322.00
59.4979 325.00
59.8021 285.00
60.1064 354.00
60.4106 329.00
60.7149 343.00
61.0192 364.00
61.3234 361.00
61.6277 324.00
61.932 460.00
62.2362 576.00
62.5405 329.00
62.8447 326.00
63.149 331.00
63.4533 301.00
63.7575 319.00
64.0618 304.00
64.366 304.00
64.6703 323.00
64.9745 319.00
65.2788 319.00
65.5831 348.00
65.8873 323.00
66.1916 320.00
66.4959 264.00
66.8001 306.00
67.1044 336.00
67.4086 303.00
67.7129 285.00
68.0172 330.00
68.3214 596.00
68.6257 377.00
68.9299 309.00
69.2342 314.00
69.5385 285.00
69.8427 318.00
70.147 392.00
70.4512 927.00
70.7555 362.00
71.0598 314.00
71.364 305.00
71.6683 312.00
71.9725 279.00
72.2768 292.00
72.5811 284.00
72.8853 347.00
73.1896 296.00
73.4938 289.00
73.7981 331.00
74.1024 313.00
74.4066 284.00
74.7109 307.00
75.0151 290.00
75.3194 285.00
75.6237 324.00
75.9279 285.00
76.2322 355.00
76.5364 296.00
76.8407 298.00
77.145 311.00
77.4492 323.00
77.7535 279.00
78.0577 346.00
78.362 693.00
78.6663 412.00
78.9705 324.00
79.2748 292.00
79.579 322.00
79.8833 295.00
80.1876 310.00
80.4918 347.00
80.7961 345.00
81.1003 324.00
81.4046 329.00
81.7089 337.00
82.0131 305.00
82.3174 359.00
82.6217 305.00
82.9259 318.00
83.2302 333.00
83.5344 334.00
83.8387 352.00
84.143 465.00
84.4472 332.00
84.7515 330.00
85.0557 340.00
85.36 295.00
85.6643 325.00
85.9685 307.00
86.2728 308.00
86.577 300.00
86.8813 305.00
87.1856 306.00
87.4898 298.00
87.7941 281.00
88.0983 287.00
88.4026 293.00
88.7069 290.00
89.0111 321.00
89.3154 281.00
89.6196 301.00
89.9239 299.00
90.2282 284.00
90.5324 285.00
90.8367 304.00
91.1409 278.00
91.4452 286.00
91.7495 277.00
92.0537 265.00
92.358 288.00
92.6622 307.00
92.9665 276.00
93.2708 289.00
93.575 391.00
93.8793 350.00
94.1835 265.00
94.4878 305.00
94.7921 283.00
95.0963 243.00
95.4006 250.00
95.7048 280.00
96.0091 275.00
96.3134 295.00
96.6176 282.00
96.9219 315.00
97.2261 294.00
97.5304 272.00
97.8347 279.00
98.1389 274.00
98.4432 249.00
98.7474 289.00
99.0517 305.00
99.356 423.00
99.6602 349.00
99.9645 274.00
100.095 288.00

File: Na_49.xy
9.903433 4395.00
10.2077 3238.00
10.512 3122.00
10.8162 2992.00
11.1205 2951.00
11.4247 2825.00
11.729 2738.00
12.0333 2741.00
12.3375 2665.00
12.6418 2620.00
12.946 2665.00
13.2503 3066.00
13.5546 4574.00
13.8588 3498.00
14.1631 2526.00
14.4673 2474.00
14.7716 2372.00
15.0759 2303.00
15.3801 2304.00
15.6844 2321.00
15.9886 2218.00
16.2929 2265.00
16.5972 2255.00
16.9014 2151.00
17.2057 2213.00
17.5099 2109.00
17.8142 2154.00
18.1185 2110.00
18.4227 2093.00
18.727 2149.00
19.0312 2238.00
19.3355 2464.00
19.6398 2080.00
19.944 1948.00
20.2483 1867.00
20.5525 1946.00
20.8568 1866.00
21.1611 1945.00
21.4653 1894.00
21.7696 1767.00
22.0738 1842.00
22.3781 1863.00
22.6824 1797.00
22.9866 1751.00
23.2909 1761.00
23.5951 1751.00
23.8994 1725.00
24.2037 1691.00
24.5079 1782.00
24.8122 1721.00
25.1164 1690.00
25.4207 1690.00
25.725 1641.00
26.0292 1781.00
26.3335 2043.00
26.6378 4018.00
26.942 7164.00
27.2463 2675.00
27.5505 3333.00
27.8548 2866.00
28.1591 2724.00
28.4633 2241.00
28.7676 2301.00
29.0718 2345.00
29.3761 2046.00
29.6804 1944.00
29.9846 2044.00
30.2889 2391.00
30.5931 2318.00
30.8974 2335.00
31.2017 2385.00
31.5059 2502.00
31.8102 4902.00
32.1144 4038.00
32.4187 2354.00
32.723 9015.00
33.0272 2808.00
33.3315 2106.00
33.6357 1673.00
33.94 1650.00
34.2443 1677.00
34.5485 1969.00
34.8528 1992.00
35.157 1836.00
35.4613 3210.00
35.7656 6988.00
36.0698 6482.00
36.3741 2354.00
36.6783 1940.00
36.9826 1733.00
37.2869 1621.00
37.5911 1669.00
37.8954 1633.00
38.1996 2127.00
38.5039 1686.00
38.8082 1784.00
39.1124 1509.00
39.4167 1422.00
39.7209 1405.00
40.0252 1582.00
40.3295 1502.00
40.6337 1395.00
40.938 1425.00
41.2422 1841.00
41.5465 1574.00
41.8508 1589.00
42.155 1364.00
42.4593 1422.00
42.7635 1819.00
43.0678 3066.00
43.3721 1571.00
43.6763 1464.00
43.9806 1394.00
44.2849 1410.00
44.5891 1379.00
44.8934 1496.00
45.1976 1482.00
45.5019 2412.00
45.8062 5409.00
46.1104 1516.00
46.4147 1462.00
46.7189 2501.00
47.0232 3844.00
47.3275 1622.00
47.6317 1506.00
47.936 1511.00
48.2402 2706.00
48.5445 2146.00
48.8488 1695.00
49.153 1822.00
49.4573 1600.00
49.7615 1265.00
50.0658 1291.00
50.3701 1208.00
50.6743 1250.00
50.9786 1235.00
51.2828 1321.00
51.5871 1250.00
51.8914 1277.00
52.1956 1383.00
52.4999 1345.00
52.8041 1377.00
53.1084 1474.00
53.4127 2362.00
53.7169 2129.00
54.0212 1674.00
54.3254 1436.00
54.6297 2527.00
54.934 2409.00
55.2382 1355.00
55.5425 1288.00
55.8467 1425.00
56.151 1332.00
56.4553 1571.00
56.7595 2645.00
57.0638 1512.00
57.368 1506.00
57.6723 1325.00
57.9766 1319.00
58.2808 1378.00
58.5851 1357.00
58.8893 1455.00
59.1936 1392.00
59.4979 1372.00
59.8021 1568.00
60.1064 2530.00
60.4106 3563.00
60.7149 1664.00
61.0192 1773.00
61.3234 1829.00
61.6277 1356.00
61.932 1357.00
62.2362 1300.00
62.5405 1245.00
62.8447 1347.00
63.149 1312.00
63.4533 1442.00
63.7575 1432.00
64.0618 1606.00
64.366 1289.00
64.6703 1174.00
64.9745 1142.00
65.2788 1155.00
65.5831 1182.00
65.8873 1294.00
66.1916 1625.00
66.4959 1716.00
66.8001 1186.00
67.1044 1121.00
67.4086 1158.00
67.7129 1216.00
68.0172 1221.00
68.3214 1739.00
68.6257 1341.00
68.9299 1200.00
69.2342 1178.00
69.5385 1128.00
69.8427 1144.00
70.147 1243.00
70.4512 1078.00
70.7555 1104.00
71.0598 1163.00
71.364 1077.00
71.6683 1191.00
71.9725 1129.00
72.2768 1126.00
72.5811 1185.00
72.8853 1096.00
73.1896 1198.00
73.4938 1179.00
73.7981 1139.00
74.1024 1104.00
74.4066 1172.00
74.7109 1472.00
75.0151 1332.00
75.3194 1856.00
75.6237 2142.00
75.9279 1288.00
76.2322 1243.00
76.5364 1148.00
76.8407 1197.00
77.145 1201.00
77.4492 1358.00
77.7535 1724.00
78.0577 1282.00
78.362 1136.00
78.6663 1237.00
78.9705 1320.00
79.2748 1467.00
79.579 1610.00
79.8833 1399.00
80.1876 1694.00
80.4918 1644.00
80.7961 1355.00
81.1003 1232.00
81.4046 1123.00
81.7089 1205.00
82.0131 1147.00
82.3174 1119.00
82.6217 1235.00
82.9259 1238.00
83.2302 1172.00
83.5344 1167.00
83.8387 1349.00
84.143 2302.00
84.4472 1521.00
84.7515 1143.00
85.0557 1106.00
85.36 1107.00
85.6643 1120.00
85.9685 1131.00
86.2728 1145.00
86.577 1141.00
86.8813 1080.00
87.1856 1088.00
87.4898 1115.00
87.7941 1099.00
88.0983 1078.00
88.4026 1123.00
88.7069 1126.00
89.0111 1142.00
89.3154 1119.00
89.6196 1210.00
89.9239 1327.00
90.2282 1191.00
90.5324 1227.00
90.8367 1199.00
91.1409 1144.00
91.4452 1207.00
91.7495 1391.00
92.0537 1345.00
92.358 1137.00
92.6622 1256.00
92.9665 1299.00
93.2708 1170.00
93.575 1165.00
93.8793 1259.00
94.1835 1175.00
94.4878 1241.00
94.7921 1165.00
95.0963 1075.00
95.4006 1057.00
95.7048 1004.00
96.0091 1066.00
96.3134 1053.00
96.6176 1117.00
96.9219 1125.00
97.2261 1311.00
97.5304 1488.00
97.8347 1453.00
98.1389 1313.00
98.4432 1239.00
98.7474 1151.00
99.0517 1066.00
99.356 1149.00
99.6602 1080.00
99.9645 1143.00
100.095 1039.00

File: Na_50.xy
9.903433 3783.00
10.2077 3229.00
10.512 3050.00
10.8162 2916.00
11.1205 2917.00
11.4247 2802.00
11.729 2712.00
12.0333 2665.00
12.3375 2733.00
12.6418 2592.00
12.946 2583.00
13.2503 3070.00
13.5546 4231.00
13.8588 3276.00
14.1631 2481.00
14.4673 2483.00
14.7716 2337.00
15.0759 2268.00
15.3801 2331.00
15.6844 2119.00
15.9886 2191.00
16.2929 2176.00
16.5972 2212.00
16.9014 2154.00
17.2057 2108.00
17.5099 1998.00
17.8142 1965.00
18.1185 1953.00
18.4227 1891.00
18.727 1985.00
19.0312 1901.00
19.3355 2039.00
19.6398 1883.00
19.944 1807.00
20.2483 1814.00
20.5525 1782.00
20.8568 1751.00
21.1611 1682.00
21.4653 1719.00
21.7696 1695.00
22.0738 1717.00
22.3781 1650.00
22.6824 1668.00
22.9866 1668.00
23.2909 1576.00
23.5951 1541.00
23.8994 1581.00
24.2037 1621.00
24.5079 1557.00
24.8122 1455.00
25.1164 1521.00
25.4207 1550.00
25.725 1533.00
26.0292 1687.00
26.3335 1820.00
26.6378 3660.00
26.942 6153.00
27.2463 2407.00
27.5505 3466.00
27.8548 2123.00
28.1591 2064.00
28.4633 1806.00
28.7676 1737.00
29.0718 1755.00
29.3761 1670.00
29.6804 1576.00
29.9846 1615.00
30.2889 1689.00
30.5931 1788.00
30.8974 1849.00
31.2017 1873.00
31.5059 2036.00
31.8102 6551.00
32.1144 5170.00
32.4187 2154.00
32.723 7842.00
33.0272 2492.00
33.3315 1667.00
33.6357 1519.00
33.94 1479.00
34.2443 1436.00
34.5485 1505.00
34.8528 1574.00
35.157 1633.00
35.4613 2275.00
35.7656 6227.00
36.0698 5477.00
36.3741 1996.00
36.6783 1609.00
36.9826 1429.00
37.2869 1407.00
37.5911 1340.00
37.8954 1256.00
38.1996 1328.00
38.5039 1338.00
38.8082 1406.00
39.1124 1205.00
39.4167 1208.00
39.7209 1201.00
40.0252 1168.00
40.3295 1191.00
40.6337 1151.00
40.938 1247.00
41.2422 1435.00
41.5465 1258.00
41.8508 1216.00
42.155 1165.00
42.4593 1226.00
42.7635 1583.00
43.0678 2493.00
43.3721 1399.00
43.6763 1196.00
43.9806 1194.00
44.2849 1184.00
44.5891 1203.00
44.8934 1160.00
45.1976 1362.00
45.5019 2937.00
45.8062 8377.00
46.1104 1343.00
46.4147 1288.00
46.7189 2276.00
47.0232 3170.00
47.3275 1391.00
47.6317 1281.00
47.936 1234.00
48.2402 1891.00
48.5445 1499.00
48.8488 1362.00
49.153 1407.00
49.4573 1271.00
49.7615 1116.00
50.0658 1084.00
50.3701 1082.00
50.6743 1030.00
50.9786 1057.00
51.2828 1135.00
51.5871 1095.00
51.8914 1058.00
52.1956 1164.00
52.4999 1225.00
52.8041 1112.00
53.1084 1288.00
53.4127 1886.00
53.7169 1728.00
54.0212 1560.00
54.3254 1256.00
54.6297 2172.00
54.934 1877.00
55.2382 1242.00
55.5425 1153.00
55.8467 1184.00
56.151 1191.00
56.4553 1382.00
56.7595 3116.00
57.0638 1190.00
57.368 1170.00
57.6723 1132.00
57.9766 1095.00
58.2808 1125.00
58.5851 1108.00
58.8893 1114.00
59.1936 1065.00
59.4979 1104.00
59.8021 1293.00
60.1064 2255.00
60.4106 2992.00
60.7149 1359.00
61.0192 1537.00
61.3234 1576.00
61.6277 1172.00
61.932 1096.00
62.2362 1052.00
62.5405 1029.00
62.8447 1066.00
63.149 1036.00
63.4533 1166.00
63.7575 1151.00
64.0618 1317.00
64.366 1097.00
64.6703 961.00
64.9745 990.00
65.2788 997.00
65.5831 1048.00
65.8873 1157.00
66.1916 1442.00
66.4959 1880.00
66.8001 1080.00
67.1044 997.00
67.4086 960.00
67.7129 960.00
68.0172 1120.00
68.3214 1550.00
68.6257 1132.00
68.9299 971.00
69.2342 961.00
69.5385 910.00
69.8427 957.00
70.147 951.00
70.4512 925.00
70.7555 890.00
71.0598 949.00
71.364 1032.00
71.6683 1025.00
71.9725 993.00
72.2768 937.00
72.5811 909.00
72.8853 1028.00
73.1896 1122.00
73.4938 1047.00
73.7981 923.00
74.1024 999.00
74.4066 1002.00
74.7109 1188.00
75.0151 1181.00
75.3194 2096.00
75.6237 2473.00
75.9279 1138.00
76.2322 1055.00
76.5364 1031.00
76.8407 1041.00
77.145 1029.00
77.4492 1149.00
77.7535 1417.00
78.0577 1085.00
78.362 1034.00
78.6663 1049.00
78.9705 1070.00
79.2748 1269.00
79.579 1327.00
79.8833 1190.00
80.1876 1495.00
80.4918 1317.00
80.7961 1163.00
81.1003 1057.00
81.4046 1009.00
81.7089 1033.00
82.0131 981.00
82.3174 1016.00
82.6217 986.00
82.9259 1035.00
83.2302 1011.00
83.5344 1062.00
83.8387 1254.00
84.143 2833.00
84.4472 1605.00
84.7515 989.00
85.0557 883.00
85.36 987.00
85.6643 955.00
85.9685 982.00
86.2728 900.00
86.577 939.00
86.8813 921.00
87.1856 979.00
87.4898 922.00
87.7941 947.00
88.0983 928.00
88.4026 952.00
88.7069 907.00
89.0111 980.00
89.3154 961.00
89.6196 980.00
89.9239 1106.00
90.2282 1079.00
90.5324 1098.00
90.8367 1032.00
91.1409 935.00
91.4452 1024.00
91.7495 1172.00
92.0537 1148.00
92.358 1031.00
92.6622 1118.00
92.9665 1041.00
93.2708 1006.00
93.575 1022.00
93.8793 1053.00
94.1835 1066.00
94.4878 1007.00
94.7921 1003.00
95.0963 905.00
95.4006 919.00
95.7048 971.00
96.0091 953.00
96.3134 906.00
96.6176 922.00
96.9219 933.00
97.2261 1145.00
97.5304 1278.00
97.8347 1244.00
98.1389 1120.00
98.4432 1010.00
98.7474 986.00
99.0517 968.00
99.356 952.00
99.6602 899.00
99.9645 941.00
100.095 939.00