Folder: alab-pipeline/data/xrd_creation/results (part 59)

File: NSC_134.xy
9.903433 2776.00
10.2077 2586.00
10.512 2505.00
10.8162 2405.00
11.1205 2322.00
11.4247 2315.00
11.729 2255.00
12.0333 2137.00
12.3375 2160.00
12.6418 1995.00
12.946 1968.00
13.2503 1952.00
13.5546 1969.00
13.8588 1897.00
14.1631 1931.00
14.4673 2110.00
14.7716 3667.00
15.0759 2139.00
15.3801 1830.00
15.6844 1711.00
15.9886 1809.00
16.2929 1743.00
16.5972 1662.00
16.9014 1708.00
17.2057 1727.00
17.5099 1599.00
17.8142 1642.00
18.1185 1573.00
18.4227 1634.00
18.727 1661.00
19.0312 2984.00
19.3355 1623.00
19.6398 1585.00
19.944 1710.00
20.2483 3756.00
20.5525 5766.00
20.8568 2420.00
21.1611 5182.00
21.4653 5773.00
21.7696 3061.00
22.0738 5333.00
22.3781 1541.00
22.6824 1460.00
22.9866 1459.00
23.2909 1414.00
23.5951 1366.00
23.8994 1524.00
24.2037 2383.00
24.5079 8097.00
24.8122 4910.00
25.1164 1819.00
25.4207 1368.00
25.725 1285.00
26.0292 1342.00
26.3335 1292.00
26.6378 1328.00
26.942 2909.00
27.2463 1239.00
27.5505 1172.00
27.8548 1283.00
28.1591 1156.00
28.4633 1208.00
28.7676 1248.00
29.0718 1464.00
29.3761 2878.00
29.6804 4194.00
29.9846 1893.00
30.2889 1205.00
30.5931 1116.00
30.8974 1204.00
31.2017 2496.00
31.5059 1185.00
31.8102 1167.00
32.1144 1716.00
32.4187 4714.00
32.723 5419.00
33.0272 2562.00
33.3315 1548.00
33.6357 1142.00
33.94 1031.00
34.2443 1045.00
34.5485 1012.00
34.8528 1061.00
35.157 1131.00
35.4613 1040.00
35.7656 1012.00
36.0698 1147.00
36.3741 1609.00
36.6783 3912.00
36.9826 2570.00
37.2869 2361.00
37.5911 1499.00
37.8954 1159.00
38.1996 1108.00
38.5039 1122.00
38.8082 960.00
39.1124 1000.00
39.4167 951.00
39.7209 904.00
40.0252 1082.00
40.3295 913.00
40.6337 871.00
40.938 1012.00
41.2422 1108.00
41.5465 1012.00
41.8508 877.00
42.155 877.00
42.4593 894.00
42.7635 1178.00
43.0678 1327.00
43.3721 1130.00
43.6763 1012.00
43.9806 1021.00
44.2849 954.00
44.5891 1286.00
44.8934 1312.00
45.1976 1186.00
45.5019 1023.00
45.8062 1064.00
46.1104 1072.00
46.4147 1177.00
46.7189 1604.00
47.0232 1492.00
47.3275 1161.00
47.6317 1132.00
47.936 1256.00
48.2402 1464.00
48.5445 1554.00
48.8488 1349.00
49.153 1058.00
49.4573 1140.00
49.7615 1700.00
50.0658 2796.00
50.3701 1783.00
50.6743 1308.00
50.9786 1124.00
51.2828 996.00
51.5871 916.00
51.8914 759.00
52.1956 789.00
52.4999 877.00
52.8041 1054.00
53.1084 1325.00
53.4127 1598.00
53.7169 1381.00
54.0212 1136.00
54.3254 1010.00
54.6297 875.00
54.934 968.00
55.2382 1293.00
55.5425 908.00
55.8467 893.00
56.151 911.00
56.4553 1120.00
56.7595 1074.00
57.0638 1182.00
57.368 1279.00
57.6723 1561.00
57.9766 1650.00
58.2808 1531.00
58.5851 1481.00
58.8893 1753.00
59.1936 1154.00
59.4979 929.00
59.8021 918.00
60.1064 955.00
60.4106 954.00
60.7149 928.00
61.0192 969.00
61.3234 942.00
61.6277 845.00
61.932 944.00
62.2362 1196.00
62.5405 1227.00
62.8447 1038.00
63.149 1013.00
63.4533 1219.00
63.7575 1183.00
64.0618 1299.00
64.366 1312.00
64.6703 1401.00
64.9745 1148.00
65.2788 968.00
65.5831 961.00
65.8873 927.00
66.1916 1037.00
66.4959 1102.00
66.8001 1105.00
67.1044 984.00
67.4086 916.00
67.7129 994.00
68.0172 1076.00
68.3214 989.00
68.6257 986.00
68.9299 1208.00
69.2342 977.00
69.5385 916.00
69.8427 799.00
70.147 796.00
70.4512 860.00
70.7555 875.00
71.0598 924.00
71.364 776.00
71.6683 772.00
71.9725 773.00
72.2768 769.00
72.5811 771.00
72.8853 782.00
73.1896 764.00
73.4938 890.00
73.7981 819.00
74.1024 865.00
74.4066 878.00
74.7109 853.00
75.0151 873.00
75.3194 774.00
75.6237 792.00
75.9279 775.00
76.2322 822.00
76.5364 871.00
76.8407 860.00
77.145 892.00
77.4492 858.00
77.7535 876.00
78.0577 888.00
78.362 884.00
78.6663 866.00
78.9705 815.00
79.2748 837.00
79.579 777.00
79.8833 742.00
80.1876 747.00
80.4918 776.00
80.7961 758.00
81.1003 688.00
81.4046 746.00
81.7089 817.00
82.0131 741.00
82.3174 830.00
82.6217 807.00
82.9259 781.00
83.2302 780.00
83.5344 763.00
83.8387 766.00
84.143 764.00
84.4472 803.00
84.7515 881.00
85.0557 708.00
85.36 763.00
85.6643 791.00
85.9685 807.00
86.2728 745.00
86.577 701.00
86.8813 706.00
87.1856 733.00
87.4898 772.00
87.7941 761.00
88.0983 769.00
88.4026 749.00
88.7069 794.00
89.0111 831.00
89.3154 881.00
89.6196 856.00
89.9239 889.00
90.2282 813.00
90.5324 778.00
90.8367 704.00
91.1409 754.00
91.4452 718.00
91.7495 681.00
92.0537 753.00
92.358 782.00
92.6622 857.00
92.9665 796.00
93.2708 848.00
93.575 758.00
93.8793 817.00
94.1835 803.00
94.4878 817.00
94.7921 790.00
95.0963 737.00
95.4006 769.00
95.7048 740.00
96.0091 748.00
96.3134 746.00
96.6176 755.00
96.9219 747.00
97.2261 718.00
97.5304 737.00
97.8347 713.00
98.1389 785.00
98.4432 739.00
98.7474 766.00
99.0517 775.00
99.356 786.00
99.6602 767.00
99.9645 738.00
100.095 803.00

File: NSC_135.xy
9.903433 2571.00
10.2077 2595.00
10.512 2517.00
10.8162 2394.00
11.1205 2335.00
11.4247 2174.00
11.729 2140.00
12.0333 2096.00
12.3375 2023.00
12.6418 1934.00
12.946 1926.00
13.2503 1819.00
13.5546 1829.00
13.8588 1885.00
14.1631 2447.00
14.4673 3919.00
14.7716 1751.00
15.0759 1607.00
15.3801 1685.00
15.6844 1635.00
15.9886 1659.00
16.2929 1607.00
16.5972 1535.00
16.9014 1685.00
17.2057 1593.00
17.5099 1527.00
17.8142 1520.00
18.1185 1542.00
18.4227 1496.00
18.727 1526.00
19.0312 1450.00
19.3355 1722.00
19.6398 3619.00
19.944 11114.00
20.2483 3226.00
20.5525 7000.00
20.8568 3625.00
21.1611 1542.00
21.4653 1451.00
21.7696 1644.00
22.0738 2023.00
22.3781 1415.00
22.6824 1457.00
22.9866 1377.00
23.2909 1625.00
23.5951 2767.00
23.8994 8280.00
24.2037 1460.00
24.5079 1312.00
24.8122 1309.00
25.1164 1286.00
25.4207 1338.00
25.725 1409.00
26.0292 2066.00
26.3335 3252.00
26.6378 2703.00
26.942 1497.00
27.2463 1210.00
27.5505 1155.00
27.8548 1149.00
28.1591 1351.00
28.4633 2532.00
28.7676 8198.00
29.0718 1326.00
29.3761 1163.00
29.6804 1104.00
29.9846 1139.00
30.2889 1111.00
30.5931 1183.00
30.8974 1151.00
31.2017 1562.00
31.5059 4189.00
31.8102 8554.00
32.1144 1395.00
32.4187 1066.00
32.723 1079.00
33.0272 1056.00
33.3315 1057.00
33.6357 1049.00
33.94 1232.00
34.2443 1830.00
34.5485 1029.00
34.8528 1019.00
35.157 1337.00
35.4613 3418.00
35.7656 3049.00
36.0698 5138.00
36.3741 1339.00
36.6783 1079.00
36.9826 978.00
37.2869 999.00
37.5911 947.00
37.8954 946.00
38.1996 1127.00
38.5039 1209.00
38.8082 916.00
39.1124 960.00
39.4167 1023.00
39.7209 1157.00
40.0252 1301.00
40.3295 1396.00
40.6337 932.00
40.938 895.00
41.2422 903.00
41.5465 1250.00
41.8508 2231.00
42.155 1793.00
42.4593 1239.00
42.7635 942.00
43.0678 977.00
43.3721 1532.00
43.6763 1914.00
43.9806 964.00
44.2849 1121.00
44.5891 837.00
44.8934 928.00
45.1976 1319.00
45.5019 3021.00
45.8062 1201.00
46.1104 989.00
46.4147 1786.00
46.7189 1844.00
47.0232 1432.00
47.3275 1735.00
47.6317 859.00
47.936 846.00
48.2402 1448.00
48.5445 3991.00
48.8488 1675.00
49.153 1306.00
49.4573 1031.00
49.7615 919.00
50.0658 1002.00
50.3701 873.00
50.6743 790.00
50.9786 804.00
51.2828 1029.00
51.5871 1371.00
51.8914 3430.00
52.1956 1708.00
52.4999 1059.00
52.8041 847.00
53.1084 851.00
53.4127 914.00
53.7169 902.00
54.0212 789.00
54.3254 831.00
54.6297 1187.00
54.934 1716.00
55.2382 1076.00
55.5425 1341.00
55.8467 2801.00
56.151 3428.00
56.4553 1399.00
56.7595 883.00
57.0638 854.00
57.368 904.00
57.6723 965.00
57.9766 817.00
58.2808 891.00
58.5851 1111.00
58.8893 1595.00
59.1936 1492.00
59.4979 941.00
59.8021 1036.00
60.1064 998.00
60.4106 1526.00
60.7149 1980.00
61.0192 989.00
61.3234 986.00
61.6277 2060.00
61.932 2004.00
62.2362 1046.00
62.5405 993.00
62.8447 1383.00
63.149 1381.00
63.4533 1055.00
63.7575 1045.00
64.0618 1412.00
64.366 1737.00
64.6703 1512.00
64.9745 921.00
65.2788 859.00
65.5831 867.00
65.8873 1092.00
66.1916 1148.00
66.4959 1115.00
66.8001 1464.00
67.1044 1403.00
67.4086 1185.00
67.7129 1063.00
68.0172 1349.00
68.3214 1262.00
68.6257 1279.00
68.9299 927.00
69.2342 857.00
69.5385 1089.00
69.8427 1012.00
70.147 810.00
70.4512 836.00
70.7555 832.00
71.0598 819.00
71.364 796.00
71.6683 1238.00
71.9725 1420.00
72.2768 945.00
72.5811 805.00
72.8853 816.00
73.1896 798.00
73.4938 682.00
73.7981 794.00
74.1024 925.00
74.4066 1178.00
74.7109 1235.00
75.0151 934.00
75.3194 895.00
75.6237 1075.00
75.9279 1374.00
76.2322 1187.00
76.5364 925.00
76.8407 741.00
77.145 721.00
77.4492 793.00
77.7535 817.00
78.0577 888.00
78.362 858.00
78.6663 807.00
78.9705 884.00
79.2748 1140.00
79.579 1311.00
79.8833 1264.00
80.1876 1005.00
80.4918 838.00
80.7961 884.00
81.1003 901.00
81.4046 847.00
81.7089 1122.00
82.0131 1140.00
82.3174 854.00
82.6217 728.00
82.9259 696.00
83.2302 812.00
83.5344 835.00
83.8387 741.00
84.143 893.00
84.4472 1162.00
84.7515 932.00
85.0557 837.00
85.36 827.00
85.6643 848.00
85.9685 986.00
86.2728 963.00
86.577 971.00
86.8813 943.00
87.1856 915.00
87.4898 894.00
87.7941 848.00
88.0983 731.00
88.4026 735.00
88.7069 791.00
89.0111 951.00
89.3154 856.00
89.6196 812.00
89.9239 890.00
90.2282 1100.00
90.5324 1230.00
90.8367 1061.00
91.1409 898.00
91.4452 797.00
91.7495 760.00
92.0537 739.00
92.358 906.00
92.6622 1024.00
92.9665 1006.00
93.2708 864.00
93.575 886.00
93.8793 825.00
94.1835 804.00
94.4878 792.00
94.7921 884.00
95.0963 1002.00
95.4006 967.00
95.7048 809.00
96.0091 1046.00
96.3134 1038.00
96.6176 885.00
96.9219 905.00
97.2261 954.00
97.5304 936.00
97.8347 901.00
98.1389 870.00
98.4432 758.00
98.7474 757.00
99.0517 769.00
99.356 759.00
99.6602 852.00
99.9645 897.00
100.095 898.00

File: NSC_136.xy
9.903433 2673.00
10.2077 2515.00
10.512 2451.00
10.8162 2247.00
11.1205 2257.00
11.4247 2056.00
11.729 2057.00
12.0333 1937.00
12.3375 1888.00
12.6418 1871.00
12.946 1778.00
13.2503 1715.00
13.5546 1729.00
13.8588 2355.00
14.1631 2382.00
14.4673 1693.00
14.7716 1599.00
15.0759 1516.00
15.3801 1517.00
15.6844 1482.00
15.9886 1543.00
16.2929 1412.00
16.5972 1469.00
16.9014 1415.00
17.2057 1468.00
17.5099 1428.00
17.8142 1317.00
18.1185 1311.00
18.4227 1329.00
18.727 1412.00
19.0312 1458.00
19.3355 4293.00
19.6398 6163.00
19.944 2500.00
20.2483 8980.00
20.5525 2897.00
20.8568 1326.00
21.1611 1294.00
21.4653 1219.00
21.7696 1229.00
22.0738 1225.00
22.3781 1153.00
22.6824 1222.00
22.9866 1269.00
23.2909 2791.00
23.5951 3418.00
23.8994 1260.00
24.2037 1347.00
24.5079 1254.00
24.8122 1168.00
25.1164 1065.00
25.4207 1067.00
25.725 1024.00
26.0292 1069.00
26.3335 1047.00
26.6378 1094.00
26.942 976.00
27.2463 1079.00
27.5505 978.00
27.8548 1270.00
28.1591 4838.00
28.4633 5211.00
28.7676 1158.00
29.0718 1063.00
29.3761 1002.00
29.6804 961.00
29.9846 911.00
30.2889 996.00
30.5931 1032.00
30.8974 1570.00
31.2017 7682.00
31.5059 3907.00
31.8102 2070.00
32.1144 1135.00
32.4187 993.00
32.723 901.00
33.0272 925.00
33.3315 924.00
33.6357 1329.00
33.94 1205.00
34.2443 1283.00
34.5485 1391.00
34.8528 2398.00
35.157 4347.00
35.4613 5037.00
35.7656 2187.00
36.0698 1021.00
36.3741 956.00
36.6783 765.00
36.9826 803.00
37.2869 806.00
37.5911 784.00
37.8954 808.00
38.1996 838.00
38.5039 812.00
38.8082 883.00
39.1124 873.00
39.4167 913.00
39.7209 1539.00
40.0252 841.00
40.3295 795.00
40.6337 832.00
40.938 1206.00
41.2422 2258.00
41.5465 1944.00
41.8508 1151.00
42.155 901.00
42.4593 775.00
42.7635 1105.00
43.0678 2446.00
43.3721 997.00
43.6763 981.00
43.9806 923.00
44.2849 775.00
44.5891 900.00
44.8934 2383.00
45.1976 1568.00
45.5019 841.00
45.8062 1641.00
46.1104 2503.00
46.4147 1337.00
46.7189 1961.00
47.0232 920.00
47.3275 844.00
47.6317 988.00
47.936 3066.00
48.2402 1968.00
48.5445 1048.00
48.8488 1013.00
49.153 849.00
49.4573 936.00
49.7615 1038.00
50.0658 830.00
50.3701 991.00
50.6743 1417.00
50.9786 1506.00
51.2828 3092.00
51.5871 2028.00
51.8914 1057.00
52.1956 817.00
52.4999 763.00
52.8041 752.00
53.1084 745.00
53.4127 746.00
53.7169 739.00
54.0212 938.00
54.3254 1881.00
54.6297 1139.00
54.934 1247.00
55.2382 2985.00
55.5425 3710.00
55.8467 1563.00
56.151 910.00
56.4553 998.00
56.7595 816.00
57.0638 817.00
57.368 805.00
57.6723 961.00
57.9766 1153.00
58.2808 1555.00
58.5851 1393.00
58.8893 933.00
59.1936 773.00
59.4979 849.00
59.8021 1768.00
60.1064 1925.00
60.4106 1127.00
60.7149 1020.00
61.0192 2335.00
61.3234 1726.00
61.6277 1011.00
61.932 1047.00
62.2362 1550.00
62.5405 1502.00
62.8447 1009.00
63.149 1121.00
63.4533 1649.00
63.7575 1778.00
64.0618 1414.00
64.366 909.00
64.6703 879.00
64.9745 827.00
65.2788 861.00
65.5831 884.00
65.8873 1047.00
66.1916 1834.00
66.4959 1303.00
66.8001 868.00
67.1044 1021.00
67.4086 1376.00
67.7129 1414.00
68.0172 1240.00
68.3214 804.00
68.6257 826.00
68.9299 1139.00
69.2342 935.00
69.5385 783.00
69.8427 777.00
70.147 721.00
70.4512 751.00
70.7555 870.00
71.0598 1529.00
71.364 1231.00
71.6683 901.00
71.9725 781.00
72.2768 754.00
72.5811 768.00
72.8853 740.00
73.1896 774.00
73.4938 982.00
73.7981 1427.00
74.1024 1156.00
74.4066 902.00
74.7109 931.00
75.0151 1326.00
75.3194 1344.00
75.6237 1075.00
75.9279 853.00
76.2322 693.00
76.5364 701.00
76.8407 827.00
77.145 850.00
77.4492 918.00
77.7535 808.00
78.0577 780.00
78.362 1107.00
78.6663 1565.00
78.9705 1601.00
79.2748 1057.00
79.579 827.00
79.8833 959.00
80.1876 820.00
80.4918 761.00
80.7961 965.00
81.1003 1239.00
81.4046 952.00
81.7089 837.00
82.0131 767.00
82.3174 841.00
82.6217 891.00
82.9259 789.00
83.2302 928.00
83.5344 1296.00
83.8387 1087.00
84.143 858.00
84.4472 806.00
84.7515 960.00
85.0557 927.00
85.36 954.00
85.6643 1041.00
85.9685 946.00
86.2728 1010.00
86.577 889.00
86.8813 921.00
87.1856 789.00
87.4898 737.00
87.7941 826.00
88.0983 980.00
88.4026 936.00
88.7069 865.00
89.0111 994.00
89.3154 1103.00
89.6196 1446.00
89.9239 1199.00
90.2282 886.00
90.5324 841.00
90.8367 744.00
91.1409 827.00
91.4452 960.00
91.7495 1139.00
92.0537 965.00
92.358 859.00
92.6622 1032.00
92.9665 887.00
93.2708 814.00
93.575 801.00
93.8793 912.00
94.1835 962.00
94.4878 862.00
94.7921 892.00
95.0963 1043.00
95.4006 1049.00
95.7048 976.00
96.0091 1034.00
96.3134 1111.00
96.6176 1157.00
96.9219 1034.00
97.2261 939.00
97.5304 862.00
97.8347 820.00
98.1389 761.00
98.4432 744.00
98.7474 825.00
99.0517 929.00
99.356 945.00
99.6602 962.00
99.9645 1166.00
100.095 1183.00

File: NSC_137.xy
9.903433 2611.00
10.2077 2666.00
10.512 2433.00
10.8162 2357.00
11.1205 2309.00
11.4247 2207.00
11.729 2213.00
12.0333 2043.00
12.3375 2087.00
12.6418 2147.00
12.946 1942.00
13.2503 1810.00
13.5546 1848.00
13.8588 1730.00
14.1631 1800.00
14.4673 1838.00
14.7716 1771.00
15.0759 1774.00
15.3801 1967.00
15.6844 4163.00
15.9886 9791.00
16.2929 1881.00
16.5972 1731.00
16.9014 1657.00
17.2057 1622.00
17.5099 1704.00
17.8142 1591.00
18.1185 1645.00
18.4227 1896.00
18.727 1554.00
19.0312 1553.00
19.3355 1452.00
19.6398 1500.00
19.944 1491.00
20.2483 1628.00
20.5525 2100.00
20.8568 7530.00
21.1611 2521.00
21.4653 2647.00
21.7696 17317.00
22.0738 2129.00
22.3781 1959.00
22.6824 1607.00
22.9866 2751.00
23.2909 9231.00
23.5951 1600.00
23.8994 1427.00
24.2037 1415.00
24.5079 1462.00
24.8122 1540.00
25.1164 1482.00
25.4207 1322.00
25.725 1297.00
26.0292 1337.00
26.3335 1433.00
26.6378 1412.00
26.942 7292.00
27.2463 2191.00
27.5505 4662.00
27.8548 1275.00
28.1591 1343.00
28.4633 1808.00
28.7676 1219.00
29.0718 1206.00
29.3761 1146.00
29.6804 1257.00
29.9846 1282.00
30.2889 1093.00
30.5931 1123.00
30.8974 1167.00
31.2017 1166.00
31.5059 2233.00
31.8102 1254.00
32.1144 1317.00
32.4187 4407.00
32.723 1682.00
33.0272 3678.00
33.3315 2824.00
33.6357 1424.00
33.94 1324.00
34.2443 5647.00
34.5485 1452.00
34.8528 4477.00
35.157 1235.00
35.4613 1247.00
35.7656 1333.00
36.0698 3332.00
36.3741 10516.00
36.6783 1465.00
36.9826 1189.00
37.2869 1116.00
37.5911 1174.00
37.8954 3180.00
38.1996 1010.00
38.5039 1171.00
38.8082 1079.00
39.1124 960.00
39.4167 964.00
39.7209 936.00
40.0252 991.00
40.3295 3311.00
40.6337 1132.00
40.938 990.00
41.2422 985.00
41.5465 1036.00
41.8508 1955.00
42.155 1241.00
42.4593 961.00
42.7635 926.00
43.0678 872.00
43.3721 975.00
43.6763 906.00
43.9806 1076.00
44.2849 1106.00
44.5891 1015.00
44.8934 2327.00
45.1976 958.00
45.5019 1360.00
45.8062 1789.00
46.1104 1892.00
46.4147 969.00
46.7189 949.00
47.0232 2185.00
47.3275 1278.00
47.6317 1020.00
47.936 1166.00
48.2402 1033.00
48.5445 1239.00
48.8488 1473.00
49.153 2729.00
49.4573 3909.00
49.7615 1226.00
50.0658 1062.00
50.3701 1056.00
50.6743 4118.00
50.9786 1709.00
51.2828 4518.00
51.5871 1272.00
51.8914 3194.00
52.1956 1215.00
52.4999 1092.00
52.8041 992.00
53.1084 1066.00
53.4127 1027.00
53.7169 2101.00
54.0212 2602.00
54.3254 1483.00
54.6297 1234.00
54.934 3181.00
55.2382 2263.00
55.5425 1124.00
55.8467 1121.00
56.151 979.00
56.4553 1504.00
56.7595 2383.00
57.0638 983.00
57.368 957.00
57.6723 907.00
57.9766 892.00
58.2808 1029.00
58.5851 1035.00
58.8893 1069.00
59.1936 2333.00
59.4979 1684.00
59.8021 1375.00
60.1064 1336.00
60.4106 1870.00
60.7149 1789.00
61.0192 2189.00
61.3234 2810.00
61.6277 2677.00
61.932 1523.00
62.2362 1719.00
62.5405 2591.00
62.8447 943.00
63.149 891.00
63.4533 871.00
63.7575 904.00
64.0618 1154.00
64.366 1041.00
64.6703 933.00
64.9745 957.00
65.2788 964.00
65.5831 889.00
65.8873 802.00
66.1916 884.00
66.4959 1152.00
66.8001 949.00
67.1044 1487.00
67.4086 1611.00
67.7129 1339.00
68.0172 946.00
68.3214 995.00
68.6257 883.00
68.9299 967.00
69.2342 1413.00
69.5385 1133.00
69.8427 997.00
70.147 1386.00
70.4512 996.00
70.7555 1911.00
71.0598 1528.00
71.364 996.00
71.6683 1464.00
71.9725 1715.00
72.2768 1172.00
72.5811 1061.00
72.8853 1142.00
73.1896 1420.00
73.4938 2017.00
73.7981 1698.00
74.1024 1656.00
74.4066 1036.00
74.7109 958.00
75.0151 914.00
75.3194 1059.00
75.6237 1516.00
75.9279 1032.00
76.2322 1228.00
76.5364 1009.00
76.8407 1740.00
77.145 1072.00
77.4492 823.00
77.7535 897.00
78.0577 900.00
78.362 917.00
78.6663 962.00
78.9705 1049.00
79.2748 953.00
79.579 862.00
79.8833 947.00
80.1876 1549.00
80.4918 1189.00
80.7961 947.00
81.1003 915.00
81.4046 873.00
81.7089 967.00
82.0131 1996.00
82.3174 2157.00
82.6217 1370.00
82.9259 1606.00
83.2302 1343.00
83.5344 948.00
83.8387 853.00
84.143 896.00
84.4472 914.00
84.7515 1220.00
85.0557 1278.00
85.36 1018.00
85.6643 815.00
85.9685 907.00
86.2728 1169.00
86.577 1434.00
86.8813 1133.00
87.1856 1153.00
87.4898 1125.00
87.7941 896.00
88.0983 997.00
88.4026 1005.00
88.7069 1081.00
89.0111 939.00
89.3154 911.00
89.6196 939.00
89.9239 1189.00
90.2282 1341.00
90.5324 1573.00
90.8367 1298.00
91.1409 1156.00
91.4452 1242.00
91.7495 1130.00
92.0537 990.00
92.358 1017.00
92.6622 1067.00
92.9665 1125.00
93.2708 1112.00
93.575 1191.00
93.8793 1021.00
94.1835 928.00
94.4878 888.00
94.7921 927.00
95.0963 928.00
95.4006 1131.00
95.7048 1036.00
96.0091 1073.00
96.3134 1004.00
96.6176 871.00
96.9219 864.00
97.2261 964.00
97.5304 1192.00
97.8347 1198.00
98.1389 990.00
98.4432 1144.00
98.7474 1012.00
99.0517 986.00
99.356 991.00
99.6602 1452.00
99.9645 1551.00
100.095 1372.00

File: NSC_138.xy
9.903433 2713.00
10.2077 2616.00
10.512 2531.00
10.8162 2481.00
11.1205 2387.00
11.4247 2342.00
11.729 2190.00
12.0333 2148.00
12.3375 2074.00
12.6418 2034.00
12.946 1970.00
13.2503 1907.00
13.5546 1777.00
13.8588 1943.00
14.1631 3299.00
14.4673 1719.00
14.7716 1721.00
15.0759 1626.00
15.3801 1640.00
15.6844 1539.00
15.9886 1568.00
16.2929 1528.00
16.5972 1517.00
16.9014 1474.00
17.2057 1495.00
17.5099 1384.00
17.8142 1446.00
18.1185 1372.00
18.4227 1438.00
18.727 1360.00
19.0312 1334.00
19.3355 1340.00
19.6398 1684.00
19.944 7842.00
20.2483 1728.00
20.5525 1248.00
20.8568 1267.00
21.1611 1337.00
21.4653 1132.00
21.7696 1110.00
22.0738 1124.00
22.3781 1223.00
22.6824 1079.00
22.9866 1183.00
23.2909 2344.00
23.5951 10061.00
23.8994 1249.00
24.2037 2732.00
24.5079 1173.00
24.8122 983.00
25.1164 985.00
25.4207 1043.00
25.725 1017.00
26.0292 942.00
26.3335 971.00
26.6378 964.00
26.942 1002.00
27.2463 944.00
27.5505 871.00
27.8548 996.00
28.1591 1209.00
28.4633 2887.00
28.7676 803.00
29.0718 879.00
29.3761 823.00
29.6804 765.00
29.9846 793.00
30.2889 846.00
30.5931 888.00
30.8974 1226.00
31.2017 3016.00
31.5059 6036.00
31.8102 1800.00
32.1144 867.00
32.4187 700.00
32.723 765.00
33.0272 715.00
33.3315 676.00
33.6357 658.00
33.94 720.00
34.2443 744.00
34.5485 1139.00
34.8528 2042.00
35.157 3110.00
35.4613 706.00
35.7656 658.00
36.0698 606.00
36.3741 568.00
36.6783 612.00
36.9826 611.00
37.2869 522.00
37.5911 561.00
37.8954 587.00
38.1996 574.00
38.5039 560.00
38.8082 498.00
39.1124 567.00
39.4167 552.00
39.7209 542.00
40.0252 608.00
40.3295 599.00
40.6337 897.00
40.938 540.00
41.2422 489.00
41.5465 519.00
41.8508 643.00
42.155 1124.00
42.4593 3353.00
42.7635 573.00
43.0678 708.00
43.3721 542.00
43.6763 499.00
43.9806 471.00
44.2849 449.00
44.5891 460.00
44.8934 527.00
45.1976 2593.00
45.5019 1636.00
45.8062 517.00
46.1104 453.00
46.4147 440.00
46.7189 450.00
47.0232 535.00
47.3275 1614.00
47.6317 2107.00
47.936 1917.00
48.2402 552.00
48.5445 434.00
48.8488 449.00
49.153 551.00
49.4573 1151.00
49.7615 472.00
50.0658 437.00
50.3701 456.00
50.6743 394.00
50.9786 440.00
51.2828 471.00
51.5871 2510.00
51.8914 2127.00
52.1956 436.00
52.4999 389.00
52.8041 589.00
53.1084 451.00
53.4127 424.00
53.7169 462.00
54.0212 516.00
54.3254 988.00
54.6297 1592.00
54.934 422.00
55.2382 387.00
55.5425 393.00
55.8467 515.00
56.151 658.00
56.4553 336.00
56.7595 319.00
57.0638 336.00
57.368 295.00
57.6723 358.00
57.9766 326.00
58.2808 503.00
58.5851 364.00
58.8893 355.00
59.1936 385.00
59.4979 493.00
59.8021 576.00
60.1064 1310.00
60.4106 2800.00
60.7149 468.00
61.0192 389.00
61.3234 407.00
61.6277 526.00
61.932 1044.00
62.2362 458.00
62.5405 1170.00
62.8447 430.00
63.149 356.00
63.4533 1143.00
63.7575 419.00
64.0618 629.00
64.366 371.00
64.6703 323.00
64.9745 340.00
65.2788 295.00
65.5831 420.00
65.8873 285.00
66.1916 612.00
66.4959 496.00
66.8001 584.00
67.1044 501.00
67.4086 692.00
67.7129 1078.00
68.0172 301.00
68.3214 287.00
68.6257 279.00
68.9299 302.00
69.2342 280.00
69.5385 318.00
69.8427 1209.00
70.147 436.00
70.4512 368.00
70.7555 501.00
71.0598 620.00
71.364 495.00
71.6683 264.00
71.9725 246.00
72.2768 317.00
72.5811 360.00
72.8853 284.00
73.1896 323.00
73.4938 1336.00
73.7981 588.00
74.1024 290.00
74.4066 497.00
74.7109 430.00
75.0151 309.00
75.3194 389.00
75.6237 241.00
75.9279 367.00
76.2322 276.00
76.5364 256.00
76.8407 274.00
77.145 273.00
77.4492 379.00
77.7535 328.00
78.0577 208.00
78.362 390.00
78.6663 307.00
78.9705 238.00
79.2748 242.00
79.579 212.00
79.8833 213.00
80.1876 216.00
80.4918 336.00
80.7961 307.00
81.1003 301.00
81.4046 500.00
81.7089 280.00
82.0131 672.00
82.3174 602.00
82.6217 223.00
82.9259 235.00
83.2302 367.00
83.5344 416.00
83.8387 444.00
84.143 310.00
84.4472 268.00
84.7515 399.00
85.0557 287.00
85.36 288.00
85.6643 196.00
85.9685 218.00
86.2728 230.00
86.577 220.00
86.8813 229.00
87.1856 218.00
87.4898 322.00
87.7941 372.00
88.0983 345.00
88.4026 490.00
88.7069 502.00
89.0111 545.00
89.3154 347.00
89.6196 380.00
89.9239 303.00
90.2282 231.00
90.5324 282.00
90.8367 235.00
91.1409 270.00
91.4452 311.00
91.7495 321.00
92.0537 310.00
92.358 411.00
92.6622 296.00
92.9665 232.00
93.2708 212.00
93.575 337.00
93.8793 329.00
94.1835 305.00
94.4878 327.00
94.7921 265.00
95.0963 308.00
95.4006 494.00
95.7048 401.00
96.0091 270.00
96.3134 269.00
96.6176 247.00
96.9219 362.00
97.2261 530.00
97.5304 377.00
97.8347 221.00
98.1389 235.00
98.4432 267.00
98.7474 334.00
99.0517 288.00
99.356 212.00
99.6602 222.00
99.9645 224.00
100.095 248.00