Folder: alab-pipeline/data/xrd_creation/results (part 113)

File: TRI_197.xy
10.0094 2327.00
10.3137 2122.00
10.618 2158.00
10.9222 2018.00
11.2265 1876.00
11.5307 1831.00
11.835 1771.00
12.1393 1680.00
12.4435 1642.00
12.7478 1561.00
13.052 1546.00
13.3563 1495.00
13.6606 1625.00
13.9648 1441.00
14.2691 1492.00
14.5733 1300.00
14.8776 1353.00
15.1819 1348.00
15.4861 1254.00
15.7904 1250.00
16.0946 1278.00
16.3989 1304.00
16.7032 1437.00
17.0074 1195.00
17.3117 1241.00
17.6159 1135.00
17.9202 1601.00
18.2245 1250.00
18.5287 1123.00
18.833 1025.00
19.1372 1054.00
19.4415 1079.00
19.7458 1131.00
20.05 935.00
20.3543 928.00
20.6585 919.00
20.9628 938.00
21.2671 954.00
21.5713 933.00
21.8756 889.00
22.1798 883.00
22.4841 1000.00
22.7884 786.00
23.0926 871.00
23.3969 928.00
23.7011 864.00
24.0054 813.00
24.3097 875.00
24.6139 818.00
24.9182 792.00
25.2224 769.00
25.5267 926.00
25.831 1185.00
26.1352 775.00
26.4395 690.00
26.7438 635.00
27.048 1097.00
27.3523 787.00
27.6565 785.00
27.9608 729.00
28.2651 893.00
28.5693 1315.00
28.8736 1105.00
29.1778 974.00
29.4821 848.00
29.7864 1599.00
30.0906 2291.00
30.3949 1113.00
30.6991 1896.00
31.0034 1667.00
31.3077 1218.00
31.6119 1154.00
31.9162 1597.00
32.2204 750.00
32.5247 543.00
32.829 565.00
33.1332 794.00
33.4375 1786.00
33.7417 556.00
34.046 601.00
34.3503 1128.00
34.6545 770.00
34.9588 725.00
35.263 511.00
35.5673 553.00
35.8716 501.00
36.1758 691.00
36.4801 716.00
36.7843 546.00
37.0886 486.00
37.3929 465.00
37.6971 514.00
38.0014 496.00
38.3056 592.00
38.6099 516.00
38.9142 516.00
39.2184 440.00
39.5227 607.00
39.8269 673.00
40.1312 459.00
40.4355 467.00
40.7397 495.00
41.044 479.00
41.3482 408.00
41.6525 395.00
41.9568 545.00
42.261 459.00
42.5653 462.00
42.8695 430.00
43.1738 446.00
43.4781 759.00
43.7823 782.00
44.0866 419.00
44.3909 433.00
44.6951 415.00
44.9994 392.00
45.3036 397.00
45.6079 679.00
45.9122 756.00
46.2164 402.00
46.5207 442.00
46.8249 565.00
47.1292 555.00
47.4335 658.00
47.7377 785.00
48.042 401.00
48.3462 554.00
48.6505 821.00
48.9548 792.00
49.259 857.00
49.5633 506.00
49.8675 557.00
50.1718 451.00
50.4761 462.00
50.7803 610.00
51.0846 456.00
51.3888 361.00
51.6931 368.00
51.9974 560.00
52.3016 602.00
52.6059 880.00
52.9101 537.00
53.2144 351.00
53.5187 399.00
53.8229 369.00
54.1272 619.00
54.4314 556.00
54.7357 447.00
55.04 448.00
55.3442 441.00
55.6485 572.00
55.9527 453.00
56.257 352.00
56.5613 388.00
56.8655 397.00
57.1698 460.00
57.474 416.00
57.7783 583.00
58.0826 481.00
58.3868 565.00
58.6911 651.00
58.9953 440.00
59.2996 376.00
59.6039 402.00
59.9081 407.00
60.2124 367.00
60.5166 371.00
60.8209 462.00
61.1252 522.00
61.4294 379.00
61.7337 379.00
62.0379 334.00
62.3422 325.00
62.6465 407.00
62.9507 365.00
63.255 469.00
63.5592 351.00
63.8635 475.00
64.1678 325.00
64.472 369.00
64.7763 353.00
65.0806 439.00
65.3848 456.00
65.6891 453.00
65.9933 385.00
66.2976 380.00
66.6019 377.00
66.9061 314.00
67.2104 299.00
67.5146 272.00
67.8189 378.00
68.1232 339.00
68.4274 318.00
68.7317 323.00
69.0359 309.00
69.3402 327.00
69.6445 408.00
69.9487 361.00
70.253 321.00
70.5572 343.00
70.8615 316.00
71.1658 297.00
71.47 324.00
71.7743 411.00
72.0785 380.00
72.3828 266.00
72.6871 304.00
72.9913 321.00
73.2956 345.00
73.5998 330.00
73.9041 333.00
74.2084 299.00
74.5126 319.00
74.8169 344.00
75.1211 284.00
75.4254 302.00
75.7297 322.00
76.0339 293.00
76.3382 272.00
76.6424 316.00
76.9467 285.00
77.251 351.00
77.5552 298.00
77.8595 281.00
78.1637 266.00
78.468 276.00
78.7723 276.00
79.0765 283.00
79.3808 280.00
79.685 338.00
79.9893 330.00
80.2936 267.00
80.5978 300.00
80.9021 272.00
81.2063 259.00
81.5106 290.00
81.8149 395.00
82.1191 337.00
82.4234 290.00
82.7277 304.00
83.0319 307.00
83.3362 338.00
83.6404 321.00
83.9447 405.00
84.249 332.00
84.5532 302.00
84.8575 342.00
85.1617 352.00
85.466 293.00
85.7703 337.00
86.0745 359.00
86.3788 276.00
86.683 282.00
86.9873 280.00
87.2916 292.00
87.5958 261.00
87.9001 312.00
88.2043 296.00
88.5086 265.00
88.8129 314.00
89.1171 272.00
89.4214 236.00
89.7256 293.00
90.0299 270.00
90.3342 256.00
90.6384 265.00
90.9427 266.00
91.2469 266.00
91.5512 279.00
91.8555 256.00
92.1597 278.00
92.464 322.00
92.7682 308.00
93.0725 294.00
93.3768 307.00
93.681 308.00
93.9853 305.00
94.2895 259.00
94.5938 283.00
94.8981 326.00
95.2023 342.00
95.5066 278.00
95.8108 294.00
96.1151 277.00
96.4194 268.00
96.7236 260.00
97.0279 251.00
97.3321 271.00
97.6364 232.00
97.9407 232.00
98.2449 261.00
98.5492 265.00
98.8534 281.00
99.1577 319.00
99.462 340.00
99.7662 290.00
99.9944 247.00

File: TRI_198.xy
10.0094 2346.00
10.3137 2226.00
10.618 2041.00
10.9222 1957.00
11.2265 1896.00
11.5307 1834.00
11.835 1805.00
12.1393 1707.00
12.4435 1633.00
12.7478 1632.00
13.052 1565.00
13.3563 1567.00
13.6606 1495.00
13.9648 1468.00
14.2691 1411.00
14.5733 1313.00
14.8776 1373.00
15.1819 1316.00
15.4861 1192.00
15.7904 1231.00
16.0946 1235.00
16.3989 1268.00
16.7032 1163.00
17.0074 1213.00
17.3117 1149.00
17.6159 1166.00
17.9202 1331.00
18.2245 1284.00
18.5287 1654.00
18.833 1075.00
19.1372 1119.00
19.4415 1178.00
19.7458 1728.00
20.05 942.00
20.3543 891.00
20.6585 893.00
20.9628 876.00
21.2671 849.00
21.5713 926.00
21.8756 808.00
22.1798 828.00
22.4841 838.00
22.7884 857.00
23.0926 802.00
23.3969 816.00
23.7011 762.00
24.0054 733.00
24.3097 789.00
24.6139 701.00
24.9182 801.00
25.2224 1461.00
25.5267 829.00
25.831 926.00
26.1352 1177.00
26.4395 773.00
26.7438 655.00
27.048 728.00
27.3523 663.00
27.6565 879.00
27.9608 1980.00
28.2651 2026.00
28.5693 1187.00
28.8736 1042.00
29.1778 800.00
29.4821 710.00
29.7864 875.00
30.0906 1712.00
30.3949 1830.00
30.6991 602.00
31.0034 663.00
31.3077 1041.00
31.6119 724.00
31.9162 727.00
32.2204 540.00
32.5247 490.00
32.829 491.00
33.1332 518.00
33.4375 492.00
33.7417 561.00
34.046 560.00
34.3503 664.00
34.6545 416.00
34.9588 477.00
35.263 488.00
35.5673 576.00
35.8716 479.00
36.1758 527.00
36.4801 411.00
36.7843 619.00
37.0886 1415.00
37.3929 838.00
37.6971 457.00
38.0014 451.00
38.3056 502.00
38.6099 414.00
38.9142 417.00
39.2184 439.00
39.5227 480.00
39.8269 590.00
40.1312 664.00
40.4355 451.00
40.7397 384.00
41.044 363.00
41.3482 384.00
41.6525 437.00
41.9568 618.00
42.261 588.00
42.5653 579.00
42.8695 432.00
43.1738 387.00
43.4781 421.00
43.7823 544.00
44.0866 356.00
44.3909 401.00
44.6951 353.00
44.9994 395.00
45.3036 366.00
45.6079 401.00
45.9122 568.00
46.2164 547.00
46.5207 314.00
46.8249 425.00
47.1292 415.00
47.4335 663.00
47.7377 434.00
48.042 355.00
48.3462 430.00
48.6505 546.00
48.9548 491.00
49.259 531.00
49.5633 442.00
49.8675 909.00
50.1718 463.00
50.4761 531.00
50.7803 508.00
51.0846 441.00
51.3888 353.00
51.6931 346.00
51.9974 604.00
52.3016 375.00
52.6059 523.00
52.9101 355.00
53.2144 428.00
53.5187 497.00
53.8229 357.00
54.1272 609.00
54.4314 473.00
54.7357 412.00
55.04 421.00
55.3442 513.00
55.6485 985.00
55.9527 551.00
56.257 390.00
56.5613 574.00
56.8655 401.00
57.1698 487.00
57.474 461.00
57.7783 618.00
58.0826 551.00
58.3868 470.00
58.6911 462.00
58.9953 362.00
59.2996 339.00
59.6039 376.00
59.9081 460.00
60.2124 400.00
60.5166 413.00
60.8209 409.00
61.1252 340.00
61.4294 342.00
61.7337 305.00
62.0379 338.00
62.3422 427.00
62.6465 352.00
62.9507 379.00
63.255 500.00
63.5592 479.00
63.8635 381.00
64.1678 299.00
64.472 270.00
64.7763 377.00
65.0806 462.00
65.3848 527.00
65.6891 438.00
65.9933 311.00
66.2976 304.00
66.6019 349.00
66.9061 317.00
67.2104 275.00
67.5146 349.00
67.8189 358.00
68.1232 304.00
68.4274 369.00
68.7317 287.00
69.0359 260.00
69.3402 304.00
69.6445 300.00
69.9487 317.00
70.253 406.00
70.5572 499.00
70.8615 385.00
71.1658 378.00
71.47 338.00
71.7743 383.00
72.0785 436.00
72.3828 364.00
72.6871 328.00
72.9913 294.00
73.2956 261.00
73.5998 285.00
73.9041 282.00
74.2084 308.00
74.5126 318.00
74.8169 302.00
75.1211 326.00
75.4254 302.00
75.7297 295.00
76.0339 311.00
76.3382 291.00
76.6424 311.00
76.9467 281.00
77.251 277.00
77.5552 275.00
77.8595 272.00
78.1637 287.00
78.468 319.00
78.7723 321.00
79.0765 322.00
79.3808 293.00
79.685 321.00
79.9893 310.00
80.2936 289.00
80.5978 274.00
80.9021 329.00
81.2063 315.00
81.5106 306.00
81.8149 375.00
82.1191 347.00
82.4234 302.00
82.7277 275.00
83.0319 274.00
83.3362 343.00
83.6404 430.00
83.9447 361.00
84.249 376.00
84.5532 328.00
84.8575 326.00
85.1617 291.00
85.466 304.00
85.7703 378.00
86.0745 382.00
86.3788 312.00
86.683 281.00
86.9873 277.00
87.2916 275.00
87.5958 296.00
87.9001 278.00
88.2043 308.00
88.5086 362.00
88.8129 331.00
89.1171 292.00
89.4214 298.00
89.7256 303.00
90.0299 266.00
90.3342 242.00
90.6384 314.00
90.9427 288.00
91.2469 259.00
91.5512 306.00
91.8555 309.00
92.1597 289.00
92.464 399.00
92.7682 335.00
93.0725 325.00
93.3768 287.00
93.681 320.00
93.9853 291.00
94.2895 281.00
94.5938 282.00
94.8981 258.00
95.2023 283.00
95.5066 296.00
95.8108 322.00
96.1151 321.00
96.4194 317.00
96.7236 309.00
97.0279 273.00
97.3321 294.00
97.6364 287.00
97.9407 300.00
98.2449 276.00
98.5492 316.00
98.8534 333.00
99.1577 369.00
99.462 350.00
99.7662 287.00
99.9944 342.00

File: TRI_199.xy
10.0094 2473.00
10.3137 2441.00
10.618 2409.00
10.9222 2239.00
11.2265 2106.00
11.5307 2128.00
11.835 1994.00
12.1393 1989.00
12.4435 1923.00
12.7478 1859.00
13.052 1839.00
13.3563 1862.00
13.6606 1801.00
13.9648 1756.00
14.2691 1720.00
14.5733 1666.00
14.8776 1727.00
15.1819 1642.00
15.4861 1622.00
15.7904 1630.00
16.0946 1630.00
16.3989 1596.00
16.7032 1598.00
17.0074 1534.00
17.3117 1572.00
17.6159 1551.00
17.9202 1587.00
18.2245 1976.00
18.5287 1513.00
18.833 1471.00
19.1372 1439.00
19.4415 1401.00
19.7458 1403.00
20.05 1450.00
20.3543 1373.00
20.6585 1459.00
20.9628 1371.00
21.2671 1314.00
21.5713 1401.00
21.8756 1344.00
22.1798 1359.00
22.4841 1367.00
22.7884 1272.00
23.0926 1300.00
23.3969 1316.00
23.7011 1296.00
24.0054 1277.00
24.3097 1173.00
24.6139 1363.00
24.9182 1189.00
25.2224 1178.00
25.5267 1192.00
25.831 1181.00
26.1352 1183.00
26.4395 1162.00
26.7438 1224.00
27.048 1166.00
27.3523 1160.00
27.6565 1150.00
27.9608 1181.00
28.2651 1096.00
28.5693 1085.00
28.8736 1149.00
29.1778 1116.00
29.4821 1231.00
29.7864 2219.00
30.0906 1505.00
30.3949 1097.00
30.6991 1041.00
31.0034 1136.00
31.3077 1088.00
31.6119 1131.00
31.9162 1054.00
32.2204 1063.00
32.5247 1019.00
32.829 1004.00
33.1332 1069.00
33.4375 1076.00
33.7417 967.00
34.046 1023.00
34.3503 1159.00
34.6545 1458.00
34.9588 2947.00
35.263 5441.00
35.5673 1374.00
35.8716 1094.00
36.1758 1086.00
36.4801 1245.00
36.7843 1383.00
37.0886 985.00
37.3929 1044.00
37.6971 976.00
38.0014 1028.00
38.3056 1015.00
38.6099 937.00
38.9142 962.00
39.2184 915.00
39.5227 940.00
39.8269 911.00
40.1312 945.00
40.4355 990.00
40.7397 1062.00
41.044 1094.00
41.3482 1016.00
41.6525 1038.00
41.9568 1036.00
42.261 1154.00
42.5653 1784.00
42.8695 1315.00
43.1738 1009.00
43.4781 958.00
43.7823 900.00
44.0866 870.00
44.3909 904.00
44.6951 949.00
44.9994 871.00
45.3036 866.00
45.6079 901.00
45.9122 898.00
46.2164 884.00
46.5207 945.00
46.8249 947.00
47.1292 899.00
47.4335 920.00
47.7377 915.00
48.042 859.00
48.3462 918.00
48.6505 872.00
48.9548 899.00
49.259 895.00
49.5633 939.00
49.8675 946.00
50.1718 966.00
50.4761 935.00
50.7803 968.00
51.0846 895.00
51.3888 897.00
51.6931 891.00
51.9974 961.00
52.3016 969.00
52.6059 1053.00
52.9101 1357.00
53.2144 966.00
53.5187 927.00
53.8229 940.00
54.1272 1054.00
54.4314 1024.00
54.7357 930.00
55.04 937.00
55.3442 999.00
55.6485 1093.00
55.9527 1339.00
56.257 2851.00
56.5613 1428.00
56.8655 971.00
57.1698 936.00
57.474 978.00
57.7783 906.00
58.0826 960.00
58.3868 952.00
58.6911 978.00
58.9953 1090.00
59.2996 984.00
59.6039 972.00
59.9081 940.00
60.2124 964.00
60.5166 1033.00
60.8209 982.00
61.1252 1122.00
61.4294 1538.00
61.7337 3365.00
62.0379 1485.00
62.3422 980.00
62.6465 995.00
62.9507 973.00
63.255 963.00
63.5592 959.00
63.8635 879.00
64.1678 883.00
64.472 866.00
64.7763 956.00
65.0806 979.00
65.3848 984.00
65.6891 888.00
65.9933 853.00
66.2976 901.00
66.6019 927.00
66.9061 957.00
67.2104 908.00
67.5146 920.00
67.8189 897.00
68.1232 811.00
68.4274 948.00
68.7317 901.00
69.0359 941.00
69.3402 897.00
69.6445 933.00
69.9487 1025.00
70.253 1005.00
70.5572 975.00
70.8615 953.00
71.1658 924.00
71.47 921.00
71.7743 947.00
72.0785 952.00
72.3828 1030.00
72.6871 1028.00
72.9913 1273.00
73.2956 986.00
73.5998 974.00
73.9041 1085.00
74.2084 1044.00
74.5126 925.00
74.8169 906.00
75.1211 942.00
75.4254 952.00
75.7297 906.00
76.0339 854.00
76.3382 962.00
76.6424 899.00
76.9467 910.00
77.251 926.00
77.5552 1003.00
77.8595 975.00
78.1637 877.00
78.468 885.00
78.7723 895.00
79.0765 923.00
79.3808 941.00
79.685 941.00
79.9893 959.00
80.2936 969.00
80.5978 1006.00
80.9021 956.00
81.2063 884.00
81.5106 967.00
81.8149 966.00
82.1191 967.00
82.4234 956.00
82.7277 892.00
83.0319 941.00
83.3362 879.00
83.6404 968.00
83.9447 922.00
84.249 887.00
84.5532 932.00
84.8575 978.00
85.1617 1037.00
85.466 991.00
85.7703 988.00
86.0745 943.00
86.3788 959.00
86.683 953.00
86.9873 918.00
87.2916 938.00
87.5958 1025.00
87.9001 1206.00
88.2043 1388.00
88.5086 1166.00
88.8129 966.00
89.1171 956.00
89.4214 1007.00
89.7256 956.00
90.0299 947.00
90.3342 977.00
90.6384 989.00
90.9427 926.00
91.2469 970.00
91.5512 941.00
91.8555 950.00
92.1597 957.00
92.464 952.00
92.7682 1124.00
93.0725 1082.00
93.3768 995.00
93.681 956.00
93.9853 950.00
94.2895 919.00
94.5938 957.00
94.8981 918.00
95.2023 979.00
95.5066 940.00
95.8108 913.00
96.1151 882.00
96.4194 954.00
96.7236 974.00
97.0279 980.00
97.3321 908.00
97.6364 946.00
97.9407 950.00
98.2449 922.00
98.5492 917.00
98.8534 967.00
99.1577 949.00
99.462 963.00
99.7662 990.00
99.9944 952.00

File: TRI_200.xy
10.0094 2368.00
10.3137 2377.00
10.618 2301.00
10.9222 2196.00
11.2265 2116.00
11.5307 1964.00
11.835 1994.00
12.1393 1862.00
12.4435 1785.00
12.7478 1753.00
13.052 1712.00
13.3563 1648.00
13.6606 1647.00
13.9648 1604.00
14.2691 1660.00
14.5733 1510.00
14.8776 1525.00
15.1819 1482.00
15.4861 1491.00
15.7904 1454.00
16.0946 1377.00
16.3989 1356.00
16.7032 1416.00
17.0074 1461.00
17.3117 1502.00
17.6159 1408.00
17.9202 1339.00
18.2245 1511.00
18.5287 1343.00
18.833 1311.00
19.1372 1272.00
19.4415 1254.00
19.7458 1270.00
20.05 1236.00
20.3543 1163.00
20.6585 1276.00
20.9628 1141.00
21.2671 1144.00
21.5713 1228.00
21.8756 1089.00
22.1798 1072.00
22.4841 1112.00
22.7884 1139.00
23.0926 1113.00
23.3969 1069.00
23.7011 1046.00
24.0054 1030.00
24.3097 1025.00
24.6139 1215.00
24.9182 988.00
25.2224 965.00
25.5267 946.00
25.831 986.00
26.1352 861.00
26.4395 950.00
26.7438 928.00
27.048 1363.00
27.3523 1019.00
27.6565 1874.00
27.9608 1374.00
28.2651 1029.00
28.5693 1389.00
28.8736 937.00
29.1778 1006.00
29.4821 1519.00
29.7864 1251.00
30.0906 1097.00
30.3949 919.00
30.6991 917.00
31.0034 886.00
31.3077 923.00
31.6119 884.00
31.9162 878.00
32.2204 899.00
32.5247 823.00
32.829 832.00
33.1332 923.00
33.4375 886.00
33.7417 816.00
34.046 992.00
34.3503 869.00
34.6545 1054.00
34.9588 1217.00
35.263 2420.00
35.5673 909.00
35.8716 868.00
36.1758 861.00
36.4801 1072.00
36.7843 1117.00
37.0886 895.00
37.3929 1015.00
37.6971 762.00
38.0014 791.00
38.3056 866.00
38.6099 799.00
38.9142 730.00
39.2184 728.00
39.5227 733.00
39.8269 704.00
40.1312 678.00
40.4355 804.00
40.7397 748.00
41.044 696.00
41.3482 815.00
41.6525 1009.00
41.9568 834.00
42.261 812.00
42.5653 1092.00
42.8695 1030.00
43.1738 752.00
43.4781 651.00
43.7823 686.00
44.0866 669.00
44.3909 753.00
44.6951 644.00
44.9994 632.00
45.3036 596.00
45.6079 678.00
45.9122 802.00
46.2164 760.00
46.5207 677.00
46.8249 662.00
47.1292 601.00
47.4335 611.00
47.7377 641.00
48.042 631.00
48.3462 650.00
48.6505 641.00
48.9548 652.00
49.259 621.00
49.5633 640.00
49.8675 666.00
50.1718 710.00
50.4761 664.00
50.7803 625.00
51.0846 622.00
51.3888 695.00
51.6931 639.00
51.9974 645.00
52.3016 677.00
52.6059 763.00
52.9101 829.00
53.2144 671.00
53.5187 721.00
53.8229 904.00
54.1272 1154.00
54.4314 928.00
54.7357 926.00
55.04 814.00
55.3442 707.00
55.6485 708.00
55.9527 867.00
56.257 1518.00
56.5613 1030.00
56.8655 798.00
57.1698 824.00
57.474 725.00
57.7783 648.00
58.0826 632.00
58.3868 671.00
58.6911 757.00
58.9953 735.00
59.2996 770.00
59.6039 769.00
59.9081 704.00
60.2124 653.00
60.5166 673.00
60.8209 651.00
61.1252 712.00
61.4294 737.00
61.7337 1443.00
62.0379 926.00
62.3422 659.00
62.6465 666.00
62.9507 642.00
63.255 700.00
63.5592 669.00
63.8635 667.00
64.1678 724.00
64.472 664.00
64.7763 677.00
65.0806 810.00
65.3848 813.00
65.6891 823.00
65.9933 724.00
66.2976 621.00
66.6019 673.00
66.9061 650.00
67.2104 698.00
67.5146 692.00
67.8189 707.00
68.1232 713.00
68.4274 727.00
68.7317 718.00
69.0359 737.00
69.3402 676.00
69.6445 661.00
69.9487 672.00
70.253 660.00
70.5572 642.00
70.8615 664.00
71.1658 621.00
71.47 616.00
71.7743 684.00
72.0785 667.00
72.3828 696.00
72.6871 675.00
72.9913 810.00
73.2956 709.00
73.5998 608.00
73.9041 721.00
74.2084 700.00
74.5126 672.00
74.8169 677.00
75.1211 665.00
75.4254 658.00
75.7297 655.00
76.0339 670.00
76.3382 643.00
76.6424 623.00
76.9467 673.00
77.251 648.00
77.5552 647.00
77.8595 652.00
78.1637 691.00
78.468 627.00
78.7723 646.00
79.0765 641.00
79.3808 649.00
79.685 616.00
79.9893 673.00
80.2936 670.00
80.5978 632.00
80.9021 697.00
81.2063 631.00
81.5106 663.00
81.8149 619.00
82.1191 635.00
82.4234 695.00
82.7277 628.00
83.0319 655.00
83.3362 654.00
83.6404 630.00
83.9447 646.00
84.249 650.00
84.5532 650.00
84.8575 615.00
85.1617 700.00
85.466 700.00
85.7703 662.00
86.0745 721.00
86.3788 712.00
86.683 706.00
86.9873 691.00
87.2916 704.00
87.5958 664.00
87.9001 729.00
88.2043 749.00
88.5086 788.00
88.8129 675.00
89.1171 668.00
89.4214 648.00
89.7256 721.00
90.0299 714.00
90.3342 699.00
90.6384 725.00
90.9427 667.00
91.2469 663.00
91.5512 685.00
91.8555 737.00
92.1597 675.00
92.464 665.00
92.7682 771.00
93.0725 711.00
93.3768 765.00
93.681 722.00
93.9853 741.00
94.2895 684.00
94.5938 640.00
94.8981 606.00
95.2023 676.00
95.5066 682.00
95.8108 670.00
96.1151 713.00
96.4194 715.00
96.7236 711.00
97.0279 718.00
97.3321 658.00
97.6364 641.00
97.9407 680.00
98.2449 658.00
98.5492 720.00
98.8534 697.00
99.1577 684.00
99.462 700.00
99.7662 762.00
99.9944 654.00

File: TRI_-1.xy
9.903433 2855.00
10.2077 2723.00
10.512 2725.00
10.8162 2599.00
11.1205 2475.00
11.4247 2378.00
11.729 2372.00
12.0333 2362.00
12.3375 2430.00
12.6418 2412.00
12.946 2244.00
13.2503 2278.00
13.5546 2195.00
13.8588 2165.00
14.1631 2056.00
14.4673 2163.00
14.7716 2037.00
15.0759 2067.00
15.3801 2050.00
15.6844 2014.00
15.9886 2007.00
16.2929 1931.00
16.5972 1860.00
16.9014 1827.00
17.2057 1988.00
17.5099 1783.00
17.8142 1951.00
18.1185 2242.00
18.4227 2290.00
18.727 1997.00
19.0312 1746.00
19.3355 1695.00
19.6398 1642.00
19.944 1687.00
20.2483 1657.00
20.5525 1630.00
20.8568 1536.00
21.1611 1608.00
21.4653 1544.00
21.7696 1564.00
22.0738 1519.00
22.3781 1517.00
22.6824 1662.00
22.9866 1919.00
23.2909 7978.00
23.5951 3203.00
23.8994 1427.00
24.2037 1435.00
24.5079 1426.00
24.8122 1418.00
25.1164 1368.00
25.4207 1541.00
25.725 1415.00
26.0292 1576.00
26.3335 1493.00
26.6378 1365.00
26.942 1286.00
27.2463 1416.00
27.5505 1569.00
27.8548 1375.00
28.1591 1320.00
28.4633 1257.00
28.7676 1405.00
29.0718 1467.00
29.3761 1435.00
29.6804 1791.00
29.9846 1460.00
30.2889 1125.00
30.5931 1133.00
30.8974 1144.00
31.2017 1153.00
31.5059 1113.00
31.8102 1124.00
32.1144 1328.00
32.4187 2667.00
32.723 5509.00
33.0272 5731.00
33.3315 12556.00
33.6357 5375.00
33.94 1803.00
34.2443 1856.00
34.5485 1903.00
34.8528 1531.00
35.157 1145.00
35.4613 1135.00
35.7656 1095.00
36.0698 1089.00
36.3741 1052.00
36.6783 1153.00
36.9826 1171.00
37.2869 1158.00
37.5911 3488.00
37.8954 1214.00
38.1996 938.00
38.5039 956.00
38.8082 1035.00
39.1124 1197.00
39.4167 1449.00
39.7209 1079.00
40.0252 956.00
40.3295 1124.00
40.6337 981.00
40.938 976.00
41.2422 1128.00
41.5465 997.00
41.8508 933.00
42.155 872.00
42.4593 1032.00
42.7635 1167.00
43.0678 870.00
43.3721 960.00
43.6763 890.00
43.9806 1052.00
44.2849 980.00
44.5891 1055.00
44.8934 947.00
45.1976 903.00
45.5019 889.00
45.8062 855.00
46.1104 965.00
46.4147 944.00
46.7189 1006.00
47.0232 1370.00
47.3275 3886.00
47.6317 5249.00
47.936 1423.00
48.2402 970.00
48.5445 1081.00
48.8488 1179.00
49.153 993.00
49.4573 961.00
49.7615 978.00
50.0658 999.00
50.3701 978.00
50.6743 974.00
50.9786 1110.00
51.2828 1060.00
51.5871 932.00
51.8914 863.00
52.1956 911.00
52.4999 1151.00
52.8041 1749.00
53.1084 1238.00
53.4127 2412.00
53.7169 2148.00
54.0212 2052.00
54.3254 1673.00
54.6297 958.00
54.934 873.00
55.2382 819.00
55.5425 848.00
55.8467 782.00
56.151 834.00
56.4553 840.00
56.7595 813.00
57.0638 841.00
57.368 898.00
57.6723 902.00
57.9766 1072.00
58.2808 2375.00
58.5851 2099.00
58.8893 2302.00
59.1936 1735.00
59.4979 3740.00
59.8021 2379.00
60.1064 880.00
60.4106 807.00
60.7149 762.00
61.0192 748.00
61.3234 758.00
61.6277 761.00
61.932 783.00
62.2362 776.00
62.5405 762.00
62.8447 796.00
63.149 863.00
63.4533 781.00
63.7575 765.00
64.0618 804.00
64.366 1041.00
64.6703 862.00
64.9745 870.00
65.2788 761.00
65.5831 685.00
65.8873 684.00
66.1916 713.00
66.4959 755.00
66.8001 633.00
67.1044 683.00
67.4086 732.00
67.7129 981.00
68.0172 921.00
68.3214 849.00
68.6257 774.00
68.9299 930.00
69.2342 1819.00
69.5385 1620.00
69.8427 824.00
70.147 823.00
70.4512 892.00
70.7555 774.00
71.0598 679.00
71.364 717.00
71.6683 741.00
71.9725 778.00
72.2768 709.00
72.5811 836.00
72.8853 928.00
73.1896 937.00
73.4938 1118.00
73.7981 1100.00
74.1024 869.00
74.4066 775.00
74.7109 925.00
75.0151 874.00
75.3194 818.00
75.6237 615.00
75.9279 683.00
76.2322 629.00
76.5364 623.00
76.8407 622.00
77.145 622.00
77.4492 686.00
77.7535 829.00
78.0577 912.00
78.362 830.00
78.6663 1280.00
78.9705 1593.00
79.2748 1298.00
79.579 1050.00
79.8833 942.00
80.1876 764.00
80.4918 703.00
80.7961 684.00
81.1003 608.00
81.4046 648.00
81.7089 703.00
82.0131 714.00
82.3174 746.00
82.6217 871.00
82.9259 789.00
83.2302 760.00
83.5344 756.00
83.8387 815.00
84.143 889.00
84.4472 889.00
84.7515 786.00
85.0557 698.00
85.36 700.00
85.6643 660.00
85.9685 699.00
86.2728 653.00
86.577 715.00
86.8813 788.00
87.1856 778.00
87.4898 748.00
87.7941 718.00
88.0983 704.00
88.4026 752.00
88.7069 817.00
89.0111 888.00
89.3154 830.00
89.6196 745.00
89.9239 662.00
90.2282 647.00
90.5324 675.00
90.8367 745.00
91.1409 744.00
91.4452 756.00
91.7495 890.00
92.0537 827.00
92.358 742.00
92.6622 872.00
92.9665 836.00
93.2708 726.00
93.575 666.00
93.8793 624.00
94.1835 677.00
94.4878 633.00
94.7921 645.00
95.0963 687.00
95.4006 736.00
95.7048 772.00
96.0091 809.00
96.3134 904.00
96.6176 928.00
96.9219 1047.00
97.2261 931.00
97.5304 890.00
97.8347 1094.00
98.1389 1317.00
98.4432 1173.00
98.7474 1011.00
99.0517 869.00
99.356 755.00
99.6602 682.00
99.9645 657.00
100.095 657.00