Folder: alab-pipeline/data/xrd_creation/results (part 31)

File: Na_299.xy
9.903433 2775.00
10.2077 2734.00
10.512 2683.00
10.8162 2452.00
11.1205 2504.00
11.4247 2287.00
11.729 2137.00
12.0333 2175.00
12.3375 2171.00
12.6418 2154.00
12.946 2044.00
13.2503 1851.00
13.5546 1825.00
13.8588 1831.00
14.1631 1828.00
14.4673 1823.00
14.7716 1743.00
15.0759 1784.00
15.3801 1698.00
15.6844 1663.00
15.9886 1703.00
16.2929 1620.00
16.5972 1613.00
16.9014 1661.00
17.2057 1523.00
17.5099 1595.00
17.8142 1469.00
18.1185 1511.00
18.4227 1449.00
18.727 1437.00
19.0312 1516.00
19.3355 1349.00
19.6398 1531.00
19.944 1915.00
20.2483 2274.00
20.5525 2801.00
20.8568 7724.00
21.1611 1490.00
21.4653 1399.00
21.7696 1287.00
22.0738 1314.00
22.3781 1336.00
22.6824 1261.00
22.9866 1323.00
23.2909 1265.00
23.5951 1249.00
23.8994 1333.00
24.2037 1425.00
24.5079 1950.00
24.8122 1202.00
25.1164 1100.00
25.4207 1229.00
25.725 1226.00
26.0292 1188.00
26.3335 1815.00
26.6378 1244.00
26.942 1127.00
27.2463 1089.00
27.5505 1160.00
27.8548 1068.00
28.1591 1154.00
28.4633 1117.00
28.7676 1031.00
29.0718 1122.00
29.3761 997.00
29.6804 1027.00
29.9846 1036.00
30.2889 1094.00
30.5931 1127.00
30.8974 1125.00
31.2017 1085.00
31.5059 1075.00
31.8102 1076.00
32.1144 1045.00
32.4187 1144.00
32.723 2367.00
33.0272 1395.00
33.3315 1664.00
33.6357 2355.00
33.94 1519.00
34.2443 8535.00
34.5485 1183.00
34.8528 1205.00
35.157 1099.00
35.4613 910.00
35.7656 1039.00
36.0698 1418.00
36.3741 1467.00
36.6783 920.00
36.9826 937.00
37.2869 980.00
37.5911 841.00
37.8954 923.00
38.1996 904.00
38.5039 1326.00
38.8082 876.00
39.1124 894.00
39.4167 856.00
39.7209 838.00
40.0252 909.00
40.3295 897.00
40.6337 802.00
40.938 830.00
41.2422 836.00
41.5465 1222.00
41.8508 810.00
42.155 1015.00
42.4593 831.00
42.7635 792.00
43.0678 705.00
43.3721 726.00
43.6763 935.00
43.9806 789.00
44.2849 770.00
44.5891 810.00
44.8934 744.00
45.1976 725.00
45.5019 727.00
45.8062 733.00
46.1104 724.00
46.4147 715.00
46.7189 714.00
47.0232 696.00
47.3275 1008.00
47.6317 793.00
47.936 763.00
48.2402 648.00
48.5445 705.00
48.8488 744.00
49.153 1336.00
49.4573 777.00
49.7615 682.00
50.0658 790.00
50.3701 981.00
50.6743 660.00
50.9786 663.00
51.2828 685.00
51.5871 639.00
51.8914 677.00
52.1956 752.00
52.4999 666.00
52.8041 671.00
53.1084 695.00
53.4127 664.00
53.7169 711.00
54.0212 730.00
54.3254 764.00
54.6297 802.00
54.934 1649.00
55.2382 756.00
55.5425 667.00
55.8467 682.00
56.151 627.00
56.4553 646.00
56.7595 660.00
57.0638 674.00
57.368 629.00
57.6723 595.00
57.9766 615.00
58.2808 632.00
58.5851 649.00
58.8893 672.00
59.1936 716.00
59.4979 666.00
59.8021 653.00
60.1064 570.00
60.4106 600.00
60.7149 643.00
61.0192 664.00
61.3234 1360.00
61.6277 736.00
61.932 570.00
62.2362 589.00
62.5405 620.00
62.8447 662.00
63.149 638.00
63.4533 894.00
63.7575 639.00
64.0618 566.00
64.366 580.00
64.6703 600.00
64.9745 782.00
65.2788 1112.00
65.5831 804.00
65.8873 543.00
66.1916 558.00
66.4959 514.00
66.8001 551.00
67.1044 539.00
67.4086 575.00
67.7129 541.00
68.0172 523.00
68.3214 561.00
68.6257 508.00
68.9299 517.00
69.2342 494.00
69.5385 543.00
69.8427 604.00
70.147 542.00
70.4512 527.00
70.7555 550.00
71.0598 493.00
71.364 472.00
71.6683 512.00
71.9725 677.00
72.2768 668.00
72.5811 582.00
72.8853 676.00
73.1896 627.00
73.4938 566.00
73.7981 494.00
74.1024 470.00
74.4066 518.00
74.7109 518.00
75.0151 471.00
75.3194 526.00
75.6237 502.00
75.9279 596.00
76.2322 534.00
76.5364 498.00
76.8407 572.00
77.145 516.00
77.4492 509.00
77.7535 478.00
78.0577 490.00
78.362 500.00
78.6663 478.00
78.9705 595.00
79.2748 577.00
79.579 446.00
79.8833 509.00
80.1876 486.00
80.4918 485.00
80.7961 480.00
81.1003 485.00
81.4046 471.00
81.7089 499.00
82.0131 523.00
82.3174 725.00
82.6217 510.00
82.9259 491.00
83.2302 497.00
83.5344 512.00
83.8387 498.00
84.143 515.00
84.4472 547.00
84.7515 566.00
85.0557 512.00
85.36 453.00
85.6643 472.00
85.9685 533.00
86.2728 472.00
86.577 547.00
86.8813 561.00
87.1856 452.00
87.4898 466.00
87.7941 438.00
88.0983 473.00
88.4026 492.00
88.7069 445.00
89.0111 479.00
89.3154 467.00
89.6196 477.00
89.9239 494.00
90.2282 616.00
90.5324 516.00
90.8367 472.00
91.1409 462.00
91.4452 439.00
91.7495 511.00
92.0537 507.00
92.358 484.00
92.6622 483.00
92.9665 459.00
93.2708 457.00
93.575 444.00
93.8793 472.00
94.1835 464.00
94.4878 464.00
94.7921 452.00
95.0963 505.00
95.4006 548.00
95.7048 510.00
96.0091 489.00
96.3134 458.00
96.6176 474.00
96.9219 483.00
97.2261 463.00
97.5304 457.00
97.8347 481.00
98.1389 480.00
98.4432 472.00
98.7474 497.00
99.0517 500.00
99.356 454.00
99.6602 461.00
99.9645 439.00
100.095 430.00

File: Na_300.xy
9.903433 3274.00
10.2077 2771.00
10.512 2835.00
10.8162 2498.00
11.1205 2495.00
11.4247 2340.00
11.729 2298.00
12.0333 2207.00
12.3375 2199.00
12.6418 2080.00
12.946 2036.00
13.2503 2066.00
13.5546 2102.00
13.8588 2102.00
14.1631 1996.00
14.4673 1912.00
14.7716 1760.00
15.0759 1941.00
15.3801 1953.00
15.6844 2300.00
15.9886 3701.00
16.2929 1891.00
16.5972 1701.00
16.9014 1674.00
17.2057 1659.00
17.5099 1651.00
17.8142 1578.00
18.1185 1542.00
18.4227 1569.00
18.727 1529.00
19.0312 1498.00
19.3355 1968.00
19.6398 1467.00
19.944 1376.00
20.2483 1561.00
20.5525 1503.00
20.8568 1825.00
21.1611 1987.00
21.4653 1446.00
21.7696 1548.00
22.0738 1282.00
22.3781 1278.00
22.6824 1230.00
22.9866 1235.00
23.2909 1473.00
23.5951 1238.00
23.8994 1200.00
24.2037 1713.00
24.5079 1178.00
24.8122 1238.00
25.1164 1071.00
25.4207 1173.00
25.725 1268.00
26.0292 1115.00
26.3335 1138.00
26.6378 1086.00
26.942 1158.00
27.2463 1504.00
27.5505 8012.00
27.8548 6794.00
28.1591 2438.00
28.4633 2221.00
28.7676 1135.00
29.0718 1090.00
29.3761 1254.00
29.6804 1081.00
29.9846 1026.00
30.2889 1838.00
30.5931 1460.00
30.8974 1075.00
31.2017 1231.00
31.5059 1150.00
31.8102 1538.00
32.1144 2473.00
32.4187 1594.00
32.723 988.00
33.0272 1065.00
33.3315 1599.00
33.6357 1452.00
33.94 1109.00
34.2443 1318.00
34.5485 4603.00
34.8528 1131.00
35.157 964.00
35.4613 930.00
35.7656 1052.00
36.0698 973.00
36.3741 1019.00
36.6783 918.00
36.9826 854.00
37.2869 797.00
37.5911 752.00
37.8954 863.00
38.1996 822.00
38.5039 820.00
38.8082 860.00
39.1124 956.00
39.4167 1052.00
39.7209 2038.00
40.0252 1543.00
40.3295 946.00
40.6337 761.00
40.938 792.00
41.2422 727.00
41.5465 731.00
41.8508 787.00
42.155 669.00
42.4593 1283.00
42.7635 923.00
43.0678 886.00
43.3721 725.00
43.6763 654.00
43.9806 753.00
44.2849 812.00
44.5891 610.00
44.8934 2208.00
45.1976 798.00
45.5019 780.00
45.8062 1785.00
46.1104 685.00
46.4147 1390.00
46.7189 754.00
47.0232 856.00
47.3275 1245.00
47.6317 804.00
47.936 753.00
48.2402 835.00
48.5445 1239.00
48.8488 1778.00
49.153 1604.00
49.4573 1691.00
49.7615 762.00
50.0658 751.00
50.3701 742.00
50.6743 854.00
50.9786 547.00
51.2828 526.00
51.5871 527.00
51.8914 534.00
52.1956 751.00
52.4999 1527.00
52.8041 801.00
53.1084 568.00
53.4127 551.00
53.7169 649.00
54.0212 717.00
54.3254 940.00
54.6297 873.00
54.934 705.00
55.2382 611.00
55.5425 1298.00
55.8467 835.00
56.151 957.00
56.4553 845.00
56.7595 651.00
57.0638 613.00
57.368 666.00
57.6723 498.00
57.9766 560.00
58.2808 543.00
58.5851 527.00
58.8893 585.00
59.1936 699.00
59.4979 578.00
59.8021 515.00
60.1064 516.00
60.4106 644.00
60.7149 497.00
61.0192 458.00
61.3234 931.00
61.6277 670.00
61.932 466.00
62.2362 466.00
62.5405 489.00
62.8447 509.00
63.149 441.00
63.4533 702.00
63.7575 514.00
64.0618 543.00
64.366 796.00
64.6703 616.00
64.9745 502.00
65.2788 436.00
65.5831 585.00
65.8873 470.00
66.1916 455.00
66.4959 434.00
66.8001 514.00
67.1044 429.00
67.4086 379.00
67.7129 450.00
68.0172 399.00
68.3214 374.00
68.6257 359.00
68.9299 425.00
69.2342 427.00
69.5385 463.00
69.8427 561.00
70.147 610.00
70.4512 444.00
70.7555 482.00
71.0598 417.00
71.364 460.00
71.6683 458.00
71.9725 581.00
72.2768 701.00
72.5811 507.00
72.8853 558.00
73.1896 561.00
73.4938 607.00
73.7981 417.00
74.1024 361.00
74.4066 456.00
74.7109 332.00
75.0151 404.00
75.3194 465.00
75.6237 512.00
75.9279 546.00
76.2322 553.00
76.5364 563.00
76.8407 496.00
77.145 547.00
77.4492 660.00
77.7535 645.00
78.0577 667.00
78.362 482.00
78.6663 480.00
78.9705 492.00
79.2748 421.00
79.579 403.00
79.8833 353.00
80.1876 349.00
80.4918 367.00
80.7961 370.00
81.1003 366.00
81.4046 396.00
81.7089 392.00
82.0131 464.00
82.3174 547.00
82.6217 524.00
82.9259 420.00
83.2302 456.00
83.5344 405.00
83.8387 401.00
84.143 442.00
84.4472 376.00
84.7515 373.00
85.0557 437.00
85.36 462.00
85.6643 452.00
85.9685 440.00
86.2728 435.00
86.577 546.00
86.8813 575.00
87.1856 410.00
87.4898 385.00
87.7941 380.00
88.0983 358.00
88.4026 359.00
88.7069 435.00
89.0111 411.00
89.3154 440.00
89.6196 425.00
89.9239 351.00
90.2282 514.00
90.5324 489.00
90.8367 521.00
91.1409 401.00
91.4452 440.00
91.7495 427.00
92.0537 375.00
92.358 379.00
92.6622 383.00
92.9665 367.00
93.2708 340.00
93.575 353.00
93.8793 334.00
94.1835 319.00
94.4878 417.00
94.7921 350.00
95.0963 385.00
95.4006 395.00
95.7048 437.00
96.0091 460.00
96.3134 423.00
96.6176 401.00
96.9219 377.00
97.2261 397.00
97.5304 354.00
97.8347 365.00
98.1389 322.00
98.4432 314.00
98.7474 335.00
99.0517 363.00
99.356 374.00
99.6602 350.00
99.9645 355.00
100.095 347.00

File: Na_301.xy
9.903433 2824.00
10.2077 2689.00
10.512 2622.00
10.8162 2571.00
11.1205 2501.00
11.4247 2415.00
11.729 2246.00
12.0333 2202.00
12.3375 2274.00
12.6418 2197.00
12.946 2160.00
13.2503 2083.00
13.5546 2015.00
13.8588 2049.00
14.1631 1968.00
14.4673 1960.00
14.7716 1967.00
15.0759 1914.00
15.3801 1879.00
15.6844 1862.00
15.9886 1832.00
16.2929 1839.00
16.5972 1890.00
16.9014 1719.00
17.2057 1880.00
17.5099 1758.00
17.8142 1822.00
18.1185 1760.00
18.4227 1761.00
18.727 1646.00
19.0312 1790.00
19.3355 1858.00
19.6398 1745.00
19.944 1715.00
20.2483 1782.00
20.5525 2448.00
20.8568 3016.00
21.1611 1751.00
21.4653 1729.00
21.7696 1689.00
22.0738 1806.00
22.3781 2137.00
22.6824 9140.00
22.9866 3502.00
23.2909 2007.00
23.5951 1747.00
23.8994 1694.00
24.2037 1711.00
24.5079 1617.00
24.8122 1710.00
25.1164 1667.00
25.4207 1798.00
25.725 1644.00
26.0292 1621.00
26.3335 1701.00
26.6378 1676.00
26.942 1609.00
27.2463 1620.00
27.5505 1568.00
27.8548 1595.00
28.1591 1542.00
28.4633 1592.00
28.7676 1578.00
29.0718 1539.00
29.3761 1499.00
29.6804 1593.00
29.9846 1474.00
30.2889 1559.00
30.5931 1533.00
30.8974 1575.00
31.2017 1556.00
31.5059 1664.00
31.8102 1879.00
32.1144 5594.00
32.4187 13313.00
32.723 2303.00
33.0272 1659.00
33.3315 1685.00
33.6357 1831.00
33.94 2535.00
34.2443 3501.00
34.5485 1583.00
34.8528 1386.00
35.157 1399.00
35.4613 1372.00
35.7656 1354.00
36.0698 1353.00
36.3741 1374.00
36.6783 1361.00
36.9826 1278.00
37.2869 1242.00
37.5911 1188.00
37.8954 1291.00
38.1996 1311.00
38.5039 1292.00
38.8082 1191.00
39.1124 1102.00
39.4167 1169.00
39.7209 1274.00
40.0252 1368.00
40.3295 1339.00
40.6337 1129.00
40.938 1209.00
41.2422 1143.00
41.5465 1210.00
41.8508 1124.00
42.155 1168.00
42.4593 1060.00
42.7635 1149.00
43.0678 1081.00
43.3721 1213.00
43.6763 1118.00
43.9806 1074.00
44.2849 1089.00
44.5891 1082.00
44.8934 1025.00
45.1976 1034.00
45.5019 1110.00
45.8062 1113.00
46.1104 1554.00
46.4147 4065.00
46.7189 3582.00
47.0232 1309.00
47.3275 1540.00
47.6317 1205.00
47.936 1104.00
48.2402 998.00
48.5445 1058.00
48.8488 1121.00
49.153 1245.00
49.4573 1119.00
49.7615 1068.00
50.0658 1096.00
50.3701 990.00
50.6743 1007.00
50.9786 1121.00
51.2828 1021.00
51.5871 1055.00
51.8914 1681.00
52.1956 2240.00
52.4999 3892.00
52.8041 1517.00
53.1084 1035.00
53.4127 1012.00
53.7169 1094.00
54.0212 1053.00
54.3254 964.00
54.6297 992.00
54.934 1003.00
55.2382 1002.00
55.5425 1015.00
55.8467 992.00
56.151 1039.00
56.4553 1015.00
56.7595 962.00
57.0638 1113.00
57.368 1636.00
57.6723 2224.00
57.9766 3910.00
58.2808 1584.00
58.5851 1006.00
58.8893 961.00
59.1936 1042.00
59.4979 1174.00
59.8021 957.00
60.1064 924.00
60.4106 1000.00
60.7149 948.00
61.0192 1041.00
61.3234 1190.00
61.6277 1003.00
61.932 863.00
62.2362 907.00
62.5405 879.00
62.8447 817.00
63.149 860.00
63.4533 916.00
63.7575 863.00
64.0618 873.00
64.366 889.00
64.6703 863.00
64.9745 830.00
65.2788 809.00
65.5831 814.00
65.8873 836.00
66.1916 823.00
66.4959 869.00
66.8001 787.00
67.1044 937.00
67.4086 1140.00
67.7129 1081.00
68.0172 2183.00
68.3214 1132.00
68.6257 807.00
68.9299 803.00
69.2342 815.00
69.5385 731.00
69.8427 771.00
70.147 766.00
70.4512 743.00
70.7555 744.00
71.0598 803.00
71.364 774.00
71.6683 760.00
71.9725 955.00
72.2768 1033.00
72.5811 1224.00
72.8853 1504.00
73.1896 932.00
73.4938 690.00
73.7981 711.00
74.1024 710.00
74.4066 729.00
74.7109 725.00
75.0151 775.00
75.3194 713.00
75.6237 725.00
75.9279 781.00
76.2322 801.00
76.5364 824.00
76.8407 1026.00
77.145 1219.00
77.4492 1208.00
77.7535 1129.00
78.0577 726.00
78.362 704.00
78.6663 706.00
78.9705 635.00
79.2748 741.00
79.579 722.00
79.8833 747.00
80.1876 718.00
80.4918 688.00
80.7961 657.00
81.1003 691.00
81.4046 715.00
81.7089 866.00
82.0131 878.00
82.3174 795.00
82.6217 724.00
82.9259 606.00
83.2302 694.00
83.5344 679.00
83.8387 670.00
84.143 707.00
84.4472 673.00
84.7515 658.00
85.0557 713.00
85.36 613.00
85.6643 682.00
85.9685 783.00
86.2728 690.00
86.577 840.00
86.8813 838.00
87.1856 608.00
87.4898 631.00
87.7941 625.00
88.0983 648.00
88.4026 616.00
88.7069 627.00
89.0111 645.00
89.3154 660.00
89.6196 650.00
89.9239 727.00
90.2282 714.00
90.5324 755.00
90.8367 818.00
91.1409 861.00
91.4452 783.00
91.7495 656.00
92.0537 671.00
92.358 646.00
92.6622 655.00
92.9665 668.00
93.2708 640.00
93.575 673.00
93.8793 658.00
94.1835 655.00
94.4878 740.00
94.7921 835.00
95.0963 934.00
95.4006 1249.00
95.7048 1283.00
96.0091 868.00
96.3134 701.00
96.6176 639.00
96.9219 629.00
97.2261 676.00
97.5304 605.00
97.8347 576.00
98.1389 609.00
98.4432 577.00
98.7474 584.00
99.0517 591.00
99.356 602.00
99.6602 535.00
99.9645 615.00
100.095 635.00

File: Na_302.xy
9.903433 2736.00
10.2077 2846.00
10.512 2653.00
10.8162 2620.00
11.1205 2440.00
11.4247 2423.00
11.729 2293.00
12.0333 2330.00
12.3375 2274.00
12.6418 2176.00
12.946 2181.00
13.2503 2114.00
13.5546 2105.00
13.8588 2091.00
14.1631 2060.00
14.4673 2073.00
14.7716 2041.00
15.0759 2075.00
15.3801 1996.00
15.6844 2019.00
15.9886 1962.00
16.2929 1914.00
16.5972 2158.00
16.9014 2069.00
17.2057 2043.00
17.5099 2159.00
17.8142 2111.00
18.1185 2166.00
18.4227 2131.00
18.727 2293.00
19.0312 2339.00
19.3355 2288.00
19.6398 2404.00
19.944 2606.00
20.2483 2567.00
20.5525 2761.00
20.8568 2649.00
21.1611 2819.00
21.4653 2938.00
21.7696 2822.00
22.0738 2794.00
22.3781 2780.00
22.6824 2722.00
22.9866 2679.00
23.2909 2529.00
23.5951 2565.00
23.8994 2552.00
24.2037 2445.00
24.5079 2533.00
24.8122 2434.00
25.1164 2441.00
25.4207 2329.00
25.725 2382.00
26.0292 2389.00
26.3335 2447.00
26.6378 2484.00
26.942 2400.00
27.2463 2374.00
27.5505 2416.00
27.8548 2429.00
28.1591 2424.00
28.4633 2426.00
28.7676 2462.00
29.0718 2505.00
29.3761 2501.00
29.6804 2442.00
29.9846 2503.00
30.2889 2542.00
30.5931 2457.00
30.8974 2376.00
31.2017 2438.00
31.5059 2458.00
31.8102 2443.00
32.1144 2372.00
32.4187 2326.00
32.723 2288.00
33.0272 2365.00
33.3315 2297.00
33.6357 2213.00
33.94 2121.00
34.2443 2135.00
34.5485 2045.00
34.8528 2027.00
35.157 1869.00
35.4613 1919.00
35.7656 1861.00
36.0698 1814.00
36.3741 1819.00
36.6783 1708.00
36.9826 1689.00
37.2869 1574.00
37.5911 1532.00
37.8954 1520.00
38.1996 1504.00
38.5039 1480.00
38.8082 1438.00
39.1124 1430.00
39.4167 1422.00
39.7209 1417.00
40.0252 1363.00
40.3295 1439.00
40.6337 1374.00
40.938 1258.00
41.2422 1274.00
41.5465 1335.00
41.8508 1405.00
42.155 1292.00
42.4593 1276.00
42.7635 1239.00
43.0678 1300.00
43.3721 1325.00
43.6763 1310.00
43.9806 1269.00
44.2849 1314.00
44.5891 1310.00
44.8934 1248.00
45.1976 1272.00
45.5019 1250.00
45.8062 1202.00
46.1104 1235.00
46.4147 1278.00
46.7189 1193.00
47.0232 1221.00
47.3275 1244.00
47.6317 1308.00
47.936 1263.00
48.2402 1268.00
48.5445 1167.00
48.8488 1172.00
49.153 1188.00
49.4573 1132.00
49.7615 1242.00
50.0658 1111.00
50.3701 1181.00
50.6743 1169.00
50.9786 1175.00
51.2828 1212.00
51.5871 1158.00
51.8914 1186.00
52.1956 1197.00
52.4999 1107.00
52.8041 1104.00
53.1084 1082.00
53.4127 1127.00
53.7169 1116.00
54.0212 1062.00
54.3254 1114.00
54.6297 1186.00
54.934 1108.00
55.2382 1146.00
55.5425 1107.00
55.8467 1129.00
56.151 1113.00
56.4553 1092.00
56.7595 1079.00
57.0638 1153.00
57.368 1154.00
57.6723 1210.00
57.9766 1100.00
58.2808 1131.00
58.5851 1194.00
58.8893 1100.00
59.1936 1121.00
59.4979 1124.00
59.8021 1121.00
60.1064 1163.00
60.4106 1073.00
60.7149 1135.00
61.0192 1121.00
61.3234 1098.00
61.6277 1169.00
61.932 1144.00
62.2362 1115.00
62.5405 1093.00
62.8447 1078.00
63.149 1135.00
63.4533 1148.00
63.7575 1042.00
64.0618 1154.00
64.366 1110.00
64.6703 1124.00
64.9745 1089.00
65.2788 1042.00
65.5831 1135.00
65.8873 1069.00
66.1916 1027.00
66.4959 1066.00
66.8001 1071.00
67.1044 1007.00
67.4086 1032.00
67.7129 1022.00
68.0172 1053.00
68.3214 966.00
68.6257 1031.00
68.9299 966.00
69.2342 951.00
69.5385 949.00
69.8427 959.00
70.147 979.00
70.4512 901.00
70.7555 987.00
71.0598 959.00
71.364 982.00
71.6683 904.00
71.9725 920.00
72.2768 943.00
72.5811 908.00
72.8853 925.00
73.1896 957.00
73.4938 914.00
73.7981 836.00
74.1024 878.00
74.4066 870.00
74.7109 873.00
75.0151 802.00
75.3194 790.00
75.6237 889.00
75.9279 861.00
76.2322 878.00
76.5364 804.00
76.8407 807.00
77.145 818.00
77.4492 804.00
77.7535 791.00
78.0577 820.00
78.362 810.00
78.6663 810.00
78.9705 787.00
79.2748 797.00
79.579 778.00
79.8833 736.00
80.1876 721.00
80.4918 754.00
80.7961 733.00
81.1003 713.00
81.4046 734.00
81.7089 765.00
82.0131 743.00
82.3174 713.00
82.6217 721.00
82.9259 694.00
83.2302 717.00
83.5344 745.00
83.8387 678.00
84.143 738.00
84.4472 691.00
84.7515 698.00
85.0557 745.00
85.36 696.00
85.6643 647.00
85.9685 688.00
86.2728 706.00
86.577 672.00
86.8813 717.00
87.1856 644.00
87.4898 733.00
87.7941 723.00
88.0983 665.00
88.4026 689.00
88.7069 622.00
89.0111 694.00
89.3154 657.00
89.6196 645.00
89.9239 671.00
90.2282 640.00
90.5324 694.00
90.8367 723.00
91.1409 664.00
91.4452 689.00
91.7495 663.00
92.0537 661.00
92.358 695.00
92.6622 637.00
92.9665 675.00
93.2708 718.00
93.575 708.00
93.8793 654.00
94.1835 681.00
94.4878 664.00
94.7921 689.00
95.0963 653.00
95.4006 636.00
95.7048 672.00
96.0091 648.00
96.3134 634.00
96.6176 653.00
96.9219 631.00
97.2261 710.00
97.5304 648.00
97.8347 649.00
98.1389 621.00
98.4432 654.00
98.7474 652.00
99.0517 661.00
99.356 610.00
99.6602 664.00
99.9645 678.00
100.095 653.00

File: Na_303.xy
9.903433 3336.00
10.2077 3361.00
10.512 3354.00
10.8162 3241.00
11.1205 3171.00
11.4247 3086.00
11.729 3205.00
12.0333 3078.00
12.3375 3020.00
12.6418 3018.00
12.946 3106.00
13.2503 3123.00
13.5546 3038.00
13.8588 2966.00
14.1631 2993.00
14.4673 2969.00
14.7716 3004.00
15.0759 2861.00
15.3801 2980.00
15.6844 2966.00
15.9886 3010.00
16.2929 3026.00
16.5972 2855.00
16.9014 3008.00
17.2057 2964.00
17.5099 2840.00
17.8142 2904.00
18.1185 3009.00
18.4227 2787.00
18.727 2947.00
19.0312 2832.00
19.3355 2937.00
19.6398 2991.00
19.944 2966.00
20.2483 3024.00
20.5525 2996.00
20.8568 4441.00
21.1611 4259.00
21.4653 3118.00
21.7696 3065.00
22.0738 3100.00
22.3781 2985.00
22.6824 2919.00
22.9866 2890.00
23.2909 2817.00
23.5951 3145.00
23.8994 3275.00
24.2037 3304.00
24.5079 3221.00
24.8122 3034.00
25.1164 2793.00
25.4207 2810.00
25.725 2828.00
26.0292 2831.00
26.3335 2834.00
26.6378 2864.00
26.942 2821.00
27.2463 2800.00
27.5505 2833.00
27.8548 2821.00
28.1591 2754.00
28.4633 2797.00
28.7676 2752.00
29.0718 2829.00
29.3761 2806.00
29.6804 2963.00
29.9846 2877.00
30.2889 2739.00
30.5931 2714.00
30.8974 2770.00
31.2017 2892.00
31.5059 2781.00
31.8102 3081.00
32.1144 2972.00
32.4187 2940.00
32.723 2913.00
33.0272 3216.00
33.3315 4172.00
33.6357 2955.00
33.94 2877.00
34.2443 3635.00
34.5485 9197.00
34.8528 3758.00
35.157 2975.00
35.4613 2933.00
35.7656 3570.00
36.0698 3046.00
36.3741 2789.00
36.6783 2755.00
36.9826 2769.00
37.2869 2777.00
37.5911 2679.00
37.8954 2849.00
38.1996 2879.00
38.5039 2793.00
38.8082 2704.00
39.1124 2773.00
39.4167 2808.00
39.7209 2726.00
40.0252 2826.00
40.3295 2806.00
40.6337 2882.00
40.938 2895.00
41.2422 3046.00
41.5465 2840.00
41.8508 2855.00
42.155 2690.00
42.4593 3064.00
42.7635 2873.00
43.0678 2735.00
43.3721 2852.00
43.6763 2792.00
43.9806 2723.00
44.2849 2742.00
44.5891 2671.00
44.8934 2698.00
45.1976 2748.00
45.5019 2698.00
45.8062 2728.00
46.1104 2801.00
46.4147 2701.00
46.7189 2749.00
47.0232 2757.00
47.3275 2656.00
47.6317 2735.00
47.936 2786.00
48.2402 3085.00
48.5445 2779.00
48.8488 2870.00
49.153 2848.00
49.4573 4136.00
49.7615 3459.00
50.0658 2856.00
50.3701 2742.00
50.6743 2792.00
50.9786 2699.00
51.2828 2721.00
51.5871 2686.00
51.8914 2753.00
52.1956 2755.00
52.4999 2760.00
52.8041 2773.00
53.1084 2758.00
53.4127 2732.00
53.7169 2796.00
54.0212 2800.00
54.3254 3586.00
54.6297 2757.00
54.934 2797.00
55.2382 2757.00
55.5425 2689.00
55.8467 2826.00
56.151 2754.00
56.4553 2789.00
56.7595 2688.00
57.0638 2790.00
57.368 2854.00
57.6723 2971.00
57.9766 2767.00
58.2808 2753.00
58.5851 2658.00
58.8893 2715.00
59.1936 2565.00
59.4979 2757.00
59.8021 2756.00
60.1064 2693.00
60.4106 2730.00
60.7149 2751.00
61.0192 2981.00
61.3234 3162.00
61.6277 3726.00
61.932 2926.00
62.2362 2809.00
62.5405 3102.00
62.8447 2926.00
63.149 2836.00
63.4533 2807.00
63.7575 2847.00
64.0618 2922.00
64.366 3061.00
64.6703 2775.00
64.9745 2678.00
65.2788 2706.00
65.5831 2895.00
65.8873 2764.00
66.1916 2646.00
66.4959 2775.00
66.8001 2691.00
67.1044 2723.00
67.4086 2788.00
67.7129 2708.00
68.0172 2854.00
68.3214 2862.00
68.6257 2824.00
68.9299 2741.00
69.2342 2684.00
69.5385 2635.00
69.8427 2819.00
70.147 2697.00
70.4512 2613.00
70.7555 2731.00
71.0598 2666.00
71.364 2673.00
71.6683 2777.00
71.9725 2751.00
72.2768 3283.00
72.5811 2943.00
72.8853 2769.00
73.1896 2774.00
73.4938 2799.00
73.7981 2625.00
74.1024 2708.00
74.4066 2722.00
74.7109 2785.00
75.0151 2800.00
75.3194 2664.00
75.6237 2829.00
75.9279 2693.00
76.2322 2817.00
76.5364 2775.00
76.8407 2704.00
77.145 2856.00
77.4492 2782.00
77.7535 2742.00
78.0577 2667.00
78.362 2745.00
78.6663 2764.00
78.9705 2732.00
79.2748 2815.00
79.579 2688.00
79.8833 2770.00
80.1876 2710.00
80.4918 2777.00
80.7961 2772.00
81.1003 2774.00
81.4046 2709.00
81.7089 2801.00
82.0131 2763.00
82.3174 2823.00
82.6217 2845.00
82.9259 2699.00
83.2302 2790.00
83.5344 2746.00
83.8387 2777.00
84.143 2791.00
84.4472 2798.00
84.7515 2779.00
85.0557 2888.00
85.36 2930.00
85.6643 2757.00
85.9685 2755.00
86.2728 2712.00
86.577 2737.00
86.8813 2823.00
87.1856 2712.00
87.4898 2692.00
87.7941 2819.00
88.0983 2752.00
88.4026 2753.00
88.7069 3035.00
89.0111 2787.00
89.3154 2760.00
89.6196 2781.00
89.9239 2804.00
90.2282 2722.00
90.5324 2791.00
90.8367 2730.00
91.1409 2852.00
91.4452 2773.00
91.7495 2841.00
92.0537 2827.00
92.358 2846.00
92.6622 2786.00
92.9665 2852.00
93.2708 2843.00
93.575 2765.00
93.8793 2925.00
94.1835 2882.00
94.4878 2756.00
94.7921 2794.00
95.0963 2758.00
95.4006 2727.00
95.7048 2835.00
96.0091 2854.00
96.3134 2819.00
96.6176 2718.00
96.9219 2799.00
97.2261 2718.00
97.5304 2686.00
97.8347 2803.00
98.1389 2777.00
98.4432 2792.00
98.7474 2805.00
99.0517 2802.00
99.356 2740.00
99.6602 2842.00
99.9645 2813.00
100.095 2908.00