Folder: alab-pipeline/data/xrd_creation/results (part 104)

File: PG_2445-1.xy
9.903433 2511.00
10.2077 2431.00
10.512 2192.00
10.8162 2198.00
11.1205 2074.00
11.4247 1969.00
11.729 1977.00
12.0333 1879.00
12.3375 1766.00
12.6418 1710.00
12.946 1605.00
13.2503 1618.00
13.5546 1570.00
13.8588 1434.00
14.1631 1452.00
14.4673 1408.00
14.7716 1376.00
15.0759 1312.00
15.3801 1262.00
15.6844 1314.00
15.9886 1223.00
16.2929 1232.00
16.5972 1126.00
16.9014 1187.00
17.2057 1078.00
17.5099 1121.00
17.8142 1083.00
18.1185 1066.00
18.4227 1046.00
18.727 954.00
19.0312 987.00
19.3355 931.00
19.6398 920.00
19.944 983.00
20.2483 958.00
20.5525 875.00
20.8568 828.00
21.1611 857.00
21.4653 802.00
21.7696 794.00
22.0738 791.00
22.3781 766.00
22.6824 738.00
22.9866 790.00
23.2909 757.00
23.5951 738.00
23.8994 716.00
24.2037 689.00
24.5079 690.00
24.8122 705.00
25.1164 663.00
25.4207 678.00
25.725 705.00
26.0292 662.00
26.3335 704.00
26.6378 657.00
26.942 620.00
27.2463 616.00
27.5505 639.00
27.8548 663.00
28.1591 653.00
28.4633 545.00
28.7676 567.00
29.0718 572.00
29.3761 558.00
29.6804 581.00
29.9846 566.00
30.2889 483.00
30.5931 567.00
30.8974 509.00
31.2017 492.00
31.5059 503.00
31.8102 486.00
32.1144 505.00
32.4187 494.00
32.723 471.00
33.0272 480.00
33.3315 453.00
33.6357 520.00
33.94 467.00
34.2443 412.00
34.5485 454.00
34.8528 455.00
35.157 392.00
35.4613 371.00
35.7656 392.00
36.0698 421.00
36.3741 400.00
36.6783 347.00
36.9826 370.00
37.2869 388.00
37.5911 375.00
37.8954 393.00
38.1996 392.00
38.5039 347.00
38.8082 331.00
39.1124 344.00
39.4167 340.00
39.7209 342.00
40.0252 347.00
40.3295 381.00
40.6337 326.00
40.938 316.00
41.2422 343.00
41.5465 348.00
41.8508 360.00
42.155 326.00
42.4593 284.00
42.7635 317.00
43.0678 386.00
43.3721 325.00
43.6763 305.00
43.9806 294.00
44.2849 282.00
44.5891 265.00
44.8934 340.00
45.1976 271.00
45.5019 295.00
45.8062 295.00
46.1104 257.00
46.4147 273.00
46.7189 303.00
47.0232 269.00
47.3275 268.00
47.6317 240.00
47.936 283.00
48.2402 273.00
48.5445 267.00
48.8488 268.00
49.153 269.00
49.4573 246.00
49.7615 297.00
50.0658 238.00
50.3701 271.00
50.6743 247.00
50.9786 270.00
51.2828 234.00
51.5871 260.00
51.8914 278.00
52.1956 237.00
52.4999 219.00
52.8041 204.00
53.1084 249.00
53.4127 239.00
53.7169 241.00
54.0212 256.00
54.3254 241.00
54.6297 212.00
54.934 195.00
55.2382 232.00
55.5425 266.00
55.8467 244.00
56.151 260.00
56.4553 209.00
56.7595 237.00
57.0638 213.00
57.368 245.00
57.6723 216.00
57.9766 216.00
58.2808 206.00
58.5851 226.00
58.8893 228.00
59.1936 229.00
59.4979 205.00
59.8021 207.00
60.1064 214.00
60.4106 184.00
60.7149 218.00
61.0192 197.00
61.3234 220.00
61.6277 208.00
61.932 210.00
62.2362 194.00
62.5405 199.00
62.8447 210.00
63.149 183.00
63.4533 179.00
63.7575 173.00
64.0618 163.00
64.366 201.00
64.6703 199.00
64.9745 176.00
65.2788 182.00
65.5831 184.00
65.8873 190.00
66.1916 189.00
66.4959 171.00
66.8001 176.00
67.1044 207.00
67.4086 163.00
67.7129 182.00
68.0172 207.00
68.3214 175.00
68.6257 208.00
68.9299 180.00
69.2342 202.00
69.5385 178.00
69.8427 169.00
70.147 200.00
70.4512 189.00
70.7555 191.00
71.0598 201.00
71.364 177.00
71.6683 174.00
71.9725 182.00
72.2768 186.00
72.5811 214.00
72.8853 181.00
73.1896 201.00
73.4938 213.00
73.7981 203.00
74.1024 209.00
74.4066 197.00
74.7109 210.00
75.0151 182.00
75.3194 203.00
75.6237 189.00
75.9279 194.00
76.2322 236.00
76.5364 229.00
76.8407 208.00
77.145 228.00
77.4492 207.00
77.7535 212.00
78.0577 216.00
78.362 190.00
78.6663 214.00
78.9705 226.00
79.2748 231.00
79.579 223.00
79.8833 245.00
80.1876 236.00
80.4918 223.00
80.7961 225.00
81.1003 220.00
81.4046 211.00
81.7089 201.00
82.0131 217.00
82.3174 214.00
82.6217 226.00
82.9259 213.00
83.2302 226.00
83.5344 186.00
83.8387 226.00
84.143 191.00
84.4472 219.00
84.7515 233.00
85.0557 206.00
85.36 222.00
85.6643 216.00
85.9685 193.00
86.2728 204.00
86.577 194.00
86.8813 189.00
87.1856 193.00
87.4898 184.00
87.7941 191.00
88.0983 201.00
88.4026 195.00
88.7069 188.00
89.0111 167.00
89.3154 185.00
89.6196 168.00
89.9239 190.00
90.2282 182.00
90.5324 197.00
90.8367 166.00
91.1409 187.00
91.4452 191.00
91.7495 185.00
92.0537 169.00
92.358 173.00
92.6622 161.00
92.9665 182.00
93.2708 182.00
93.575 179.00
93.8793 177.00
94.1835 193.00
94.4878 163.00
94.7921 188.00
95.0963 177.00
95.4006 179.00
95.7048 188.00
96.0091 181.00
96.3134 176.00
96.6176 173.00
96.9219 201.00
97.2261 180.00
97.5304 203.00
97.8347 166.00
98.1389 200.00
98.4432 167.00
98.7474 179.00
99.0517 202.00
99.356 152.00
99.6602 179.00
99.9645 187.00
100.095 188.00

File: PG_2447-1.xy
9.903433 2655.00
10.2077 2641.00
10.512 2600.00
10.8162 2524.00
11.1205 2394.00
11.4247 2335.00
11.729 2224.00
12.0333 2206.00
12.3375 2144.00
12.6418 2091.00
12.946 2028.00
13.2503 1995.00
13.5546 1973.00
13.8588 1875.00
14.1631 1897.00
14.4673 1870.00
14.7716 1796.00
15.0759 1795.00
15.3801 1769.00
15.6844 1715.00
15.9886 1742.00
16.2929 1674.00
16.5972 1691.00
16.9014 1716.00
17.2057 1697.00
17.5099 1556.00
17.8142 1589.00
18.1185 1593.00
18.4227 1525.00
18.727 1448.00
19.0312 1537.00
19.3355 1496.00
19.6398 1456.00
19.944 1440.00
20.2483 1391.00
20.5525 1423.00
20.8568 1412.00
21.1611 1387.00
21.4653 1439.00
21.7696 1553.00
22.0738 1349.00
22.3781 1271.00
22.6824 1331.00
22.9866 1212.00
23.2909 1337.00
23.5951 1349.00
23.8994 1288.00
24.2037 1367.00
24.5079 3817.00
24.8122 1662.00
25.1164 1231.00
25.4207 1166.00
25.725 1127.00
26.0292 1228.00
26.3335 1091.00
26.6378 1012.00
26.942 1059.00
27.2463 1055.00
27.5505 1007.00
27.8548 1008.00
28.1591 938.00
28.4633 950.00
28.7676 895.00
29.0718 939.00
29.3761 963.00
29.6804 976.00
29.9846 988.00
30.2889 1312.00
30.5931 1107.00
30.8974 1113.00
31.2017 949.00
31.5059 1012.00
31.8102 1115.00
32.1144 1231.00
32.4187 1038.00
32.723 1114.00
33.0272 1415.00
33.3315 9815.00
33.6357 1204.00
33.94 1718.00
34.2443 938.00
34.5485 886.00
34.8528 876.00
35.157 1033.00
35.4613 837.00
35.7656 846.00
36.0698 1073.00
36.3741 2175.00
36.6783 3306.00
36.9826 927.00
37.2869 1299.00
37.5911 859.00
37.8954 794.00
38.1996 760.00
38.5039 773.00
38.8082 1234.00
39.1124 766.00
39.4167 748.00
39.7209 743.00
40.0252 781.00
40.3295 767.00
40.6337 792.00
40.938 772.00
41.2422 879.00
41.5465 3836.00
41.8508 839.00
42.155 707.00
42.4593 681.00
42.7635 625.00
43.0678 717.00
43.3721 641.00
43.6763 655.00
43.9806 707.00
44.2849 802.00
44.5891 793.00
44.8934 659.00
45.1976 689.00
45.5019 623.00
45.8062 658.00
46.1104 620.00
46.4147 664.00
46.7189 634.00
47.0232 584.00
47.3275 675.00
47.6317 642.00
47.936 615.00
48.2402 625.00
48.5445 645.00
48.8488 677.00
49.153 662.00
49.4573 728.00
49.7615 880.00
50.0658 3193.00
50.3701 861.00
50.6743 642.00
50.9786 640.00
51.2828 612.00
51.5871 620.00
51.8914 598.00
52.1956 631.00
52.4999 647.00
52.8041 841.00
53.1084 624.00
53.4127 622.00
53.7169 764.00
54.0212 1589.00
54.3254 5488.00
54.6297 854.00
54.934 655.00
55.2382 645.00
55.5425 678.00
55.8467 608.00
56.151 588.00
56.4553 606.00
56.7595 582.00
57.0638 702.00
57.368 635.00
57.6723 616.00
57.9766 678.00
58.2808 690.00
58.5851 975.00
58.8893 738.00
59.1936 648.00
59.4979 647.00
59.8021 615.00
60.1064 594.00
60.4106 619.00
60.7149 556.00
61.0192 613.00
61.3234 649.00
61.6277 630.00
61.932 628.00
62.2362 574.00
62.5405 556.00
62.8447 606.00
63.149 740.00
63.4533 2174.00
63.7575 722.00
64.0618 581.00
64.366 640.00
64.6703 633.00
64.9745 631.00
65.2788 1164.00
65.5831 2122.00
65.8873 725.00
66.1916 547.00
66.4959 550.00
66.8001 584.00
67.1044 550.00
67.4086 516.00
67.7129 543.00
68.0172 560.00
68.3214 580.00
68.6257 558.00
68.9299 546.00
69.2342 602.00
69.5385 586.00
69.8427 557.00
70.147 581.00
70.4512 597.00
70.7555 713.00
71.0598 1272.00
71.364 697.00
71.6683 557.00
71.9725 677.00
72.2768 529.00
72.5811 538.00
72.8853 510.00
73.1896 534.00
73.4938 574.00
73.7981 524.00
74.1024 557.00
74.4066 539.00
74.7109 558.00
75.0151 537.00
75.3194 545.00
75.6237 576.00
75.9279 514.00
76.2322 564.00
76.5364 530.00
76.8407 551.00
77.145 967.00
77.4492 669.00
77.7535 565.00
78.0577 511.00
78.362 570.00
78.6663 791.00
78.9705 582.00
79.2748 530.00
79.579 520.00
79.8833 534.00
80.1876 520.00
80.4918 568.00
80.7961 528.00
81.1003 542.00
81.4046 488.00
81.7089 513.00
82.0131 533.00
82.3174 1084.00
82.6217 848.00
82.9259 624.00
83.2302 565.00
83.5344 506.00
83.8387 526.00
84.143 458.00
84.4472 498.00
84.7515 496.00
85.0557 540.00
85.36 554.00
85.6643 478.00
85.9685 538.00
86.2728 579.00
86.577 796.00
86.8813 661.00
87.1856 539.00
87.4898 528.00
87.7941 527.00
88.0983 532.00
88.4026 509.00
88.7069 522.00
89.0111 530.00
89.3154 581.00
89.6196 946.00
89.9239 917.00
90.2282 609.00
90.5324 580.00
90.8367 447.00
91.1409 500.00
91.4452 505.00
91.7495 461.00
92.0537 520.00
92.358 499.00
92.6622 512.00
92.9665 533.00
93.2708 776.00
93.575 917.00
93.8793 768.00
94.1835 591.00
94.4878 504.00
94.7921 490.00
95.0963 527.00
95.4006 463.00
95.7048 531.00
96.0091 490.00
96.3134 501.00
96.6176 500.00
96.9219 529.00
97.2261 507.00
97.5304 607.00
97.8347 589.00
98.1389 470.00
98.4432 521.00
98.7474 498.00
99.0517 502.00
99.356 491.00
99.6602 509.00
99.9645 467.00
100.095 529.00

File: PG_2448-1.xy
9.903433 2955.00
10.2077 2831.00
10.512 2699.00
10.8162 2582.00
11.1205 2559.00
11.4247 2495.00
11.729 2387.00
12.0333 2334.00
12.3375 2144.00
12.6418 2137.00
12.946 2183.00
13.2503 2126.00
13.5546 2034.00
13.8588 2053.00
14.1631 2314.00
14.4673 2138.00
14.7716 1973.00
15.0759 1883.00
15.3801 1823.00
15.6844 1823.00
15.9886 1752.00
16.2929 1750.00
16.5972 1691.00
16.9014 1607.00
17.2057 1753.00
17.5099 1659.00
17.8142 1670.00
18.1185 1613.00
18.4227 1752.00
18.727 3248.00
19.0312 6401.00
19.3355 1637.00
19.6398 1499.00
19.944 1539.00
20.2483 1523.00
20.5525 1367.00
20.8568 1428.00
21.1611 1634.00
21.4653 2090.00
21.7696 1357.00
22.0738 1350.00
22.3781 1290.00
22.6824 1218.00
22.9866 1280.00
23.2909 1255.00
23.5951 1244.00
23.8994 1381.00
24.2037 1395.00
24.5079 1274.00
24.8122 1193.00
25.1164 1160.00
25.4207 1125.00
25.725 1196.00
26.0292 1267.00
26.3335 1467.00
26.6378 2366.00
26.942 6313.00
27.2463 1917.00
27.5505 1396.00
27.8548 1269.00
28.1591 1265.00
28.4633 1593.00
28.7676 1656.00
29.0718 1938.00
29.3761 4825.00
29.6804 2822.00
29.9846 1582.00
30.2889 2721.00
30.5931 1694.00
30.8974 1113.00
31.2017 1275.00
31.5059 2164.00
31.8102 1678.00
32.1144 1342.00
32.4187 1624.00
32.723 3124.00
33.0272 1512.00
33.3315 1146.00
33.6357 1136.00
33.94 913.00
34.2443 842.00
34.5485 906.00
34.8528 907.00
35.157 859.00
35.4613 885.00
35.7656 902.00
36.0698 1097.00
36.3741 1012.00
36.6783 909.00
36.9826 843.00
37.2869 817.00
37.5911 814.00
37.8954 825.00
38.1996 825.00
38.5039 825.00
38.8082 982.00
39.1124 1134.00
39.4167 889.00
39.7209 753.00
40.0252 743.00
40.3295 718.00
40.6337 774.00
40.938 813.00
41.2422 751.00
41.5465 781.00
41.8508 808.00
42.155 762.00
42.4593 774.00
42.7635 774.00
43.0678 801.00
43.3721 975.00
43.6763 759.00
43.9806 752.00
44.2849 694.00
44.5891 663.00
44.8934 706.00
45.1976 665.00
45.5019 695.00
45.8062 768.00
46.1104 1059.00
46.4147 1420.00
46.7189 905.00
47.0232 777.00
47.3275 895.00
47.6317 895.00
47.936 1061.00
48.2402 966.00
48.5445 773.00
48.8488 827.00
49.153 1100.00
49.4573 1298.00
49.7615 725.00
50.0658 734.00
50.3701 752.00
50.6743 686.00
50.9786 710.00
51.2828 817.00
51.5871 1363.00
51.8914 1168.00
52.1956 857.00
52.4999 848.00
52.8041 781.00
53.1084 651.00
53.4127 644.00
53.7169 680.00
54.0212 771.00
54.3254 1056.00
54.6297 1015.00
54.934 989.00
55.2382 904.00
55.5425 820.00
55.8467 884.00
56.151 1106.00
56.4553 812.00
56.7595 740.00
57.0638 722.00
57.368 696.00
57.6723 712.00
57.9766 718.00
58.2808 730.00
58.5851 703.00
58.8893 790.00
59.1936 642.00
59.4979 709.00
59.8021 600.00
60.1064 649.00
60.4106 649.00
60.7149 669.00
61.0192 659.00
61.3234 597.00
61.6277 617.00
61.932 640.00
62.2362 677.00
62.5405 677.00
62.8447 655.00
63.149 662.00
63.4533 837.00
63.7575 781.00
64.0618 684.00
64.366 712.00
64.6703 702.00
64.9745 738.00
65.2788 832.00
65.5831 808.00
65.8873 819.00
66.1916 926.00
66.4959 1119.00
66.8001 966.00
67.1044 807.00
67.4086 680.00
67.7129 756.00
68.0172 818.00
68.3214 756.00
68.6257 739.00
68.9299 675.00
69.2342 734.00
69.5385 758.00
69.8427 780.00
70.147 844.00
70.4512 830.00
70.7555 671.00
71.0598 673.00
71.364 635.00
71.6683 581.00
71.9725 619.00
72.2768 570.00
72.5811 573.00
72.8853 556.00
73.1896 590.00
73.4938 626.00
73.7981 650.00
74.1024 681.00
74.4066 623.00
74.7109 689.00
75.0151 639.00
75.3194 823.00
75.6237 827.00
75.9279 824.00
76.2322 804.00
76.5364 727.00
76.8407 628.00
77.145 612.00
77.4492 599.00
77.7535 652.00
78.0577 642.00
78.362 596.00
78.6663 563.00
78.9705 632.00
79.2748 642.00
79.579 626.00
79.8833 626.00
80.1876 606.00
80.4918 587.00
80.7961 554.00
81.1003 560.00
81.4046 625.00
81.7089 605.00
82.0131 589.00
82.3174 548.00
82.6217 508.00
82.9259 562.00
83.2302 569.00
83.5344 545.00
83.8387 538.00
84.143 576.00
84.4472 529.00
84.7515 556.00
85.0557 542.00
85.36 543.00
85.6643 568.00
85.9685 596.00
86.2728 572.00
86.577 718.00
86.8813 689.00
87.1856 596.00
87.4898 584.00
87.7941 568.00
88.0983 558.00
88.4026 530.00
88.7069 572.00
89.0111 572.00
89.3154 580.00
89.6196 569.00
89.9239 604.00
90.2282 586.00
90.5324 570.00
90.8367 503.00
91.1409 561.00
91.4452 576.00
91.7495 545.00
92.0537 582.00
92.358 556.00
92.6622 591.00
92.9665 563.00
93.2708 554.00
93.575 637.00
93.8793 626.00
94.1835 598.00
94.4878 621.00
94.7921 626.00
95.0963 551.00
95.4006 553.00
95.7048 545.00
96.0091 614.00
96.3134 588.00
96.6176 571.00
96.9219 597.00
97.2261 554.00
97.5304 572.00
97.8347 579.00
98.1389 667.00
98.4432 602.00
98.7474 566.00
99.0517 629.00
99.356 560.00
99.6602 558.00
99.9645 506.00
100.095 552.00

File: PG_2449-1.xy
9.903433 2630.00
10.2077 2701.00
10.512 2470.00
10.8162 2410.00
11.1205 2367.00
11.4247 2323.00
11.729 2246.00
12.0333 2272.00
12.3375 2222.00
12.6418 2822.00
12.946 2138.00
13.2503 2018.00
13.5546 1999.00
13.8588 2021.00
14.1631 1934.00
14.4673 1957.00
14.7716 1875.00
15.0759 1836.00
15.3801 1868.00
15.6844 1843.00
15.9886 1786.00
16.2929 1810.00
16.5972 1736.00
16.9014 1710.00
17.2057 2051.00
17.5099 1757.00
17.8142 1724.00
18.1185 1600.00
18.4227 1638.00
18.727 1680.00
19.0312 1590.00
19.3355 1581.00
19.6398 1750.00
19.944 2494.00
20.2483 3118.00
20.5525 1726.00
20.8568 1901.00
21.1611 4972.00
21.4653 7317.00
21.7696 2768.00
22.0738 1691.00
22.3781 1688.00
22.6824 1817.00
22.9866 1849.00
23.2909 4529.00
23.5951 5366.00
23.8994 9569.00
24.2037 3197.00
24.5079 5078.00
24.8122 4840.00
25.1164 4673.00
25.4207 1718.00
25.725 1632.00
26.0292 1633.00
26.3335 1747.00
26.6378 2161.00
26.942 4586.00
27.2463 1837.00
27.5505 1683.00
27.8548 3148.00
28.1591 1414.00
28.4633 1473.00
28.7676 1828.00
29.0718 2418.00
29.3761 2451.00
29.6804 1382.00
29.9846 1393.00
30.2889 1321.00
30.5931 1452.00
30.8974 5678.00
31.2017 1335.00
31.5059 1203.00
31.8102 1190.00
32.1144 1277.00
32.4187 1252.00
32.723 1267.00
33.0272 1759.00
33.3315 7040.00
33.6357 3600.00
33.94 4581.00
34.2443 4011.00
34.5485 5154.00
34.8528 2433.00
35.157 1335.00
35.4613 1143.00
35.7656 1417.00
36.0698 1347.00
36.3741 1143.00
36.6783 1080.00
36.9826 1544.00
37.2869 1604.00
37.5911 1034.00
37.8954 2583.00
38.1996 984.00
38.5039 1674.00
38.8082 849.00
39.1124 857.00
39.4167 874.00
39.7209 2276.00
40.0252 965.00
40.3295 872.00
40.6337 934.00
40.938 1085.00
41.2422 2487.00
41.5465 1112.00
41.8508 1466.00
42.155 1942.00
42.4593 1736.00
42.7635 1230.00
43.0678 1824.00
43.3721 1622.00
43.6763 1060.00
43.9806 1146.00
44.2849 963.00
44.5891 1053.00
44.8934 1202.00
45.1976 1395.00
45.5019 1415.00
45.8062 1825.00
46.1104 998.00
46.4147 1135.00
46.7189 810.00
47.0232 755.00
47.3275 850.00
47.6317 2954.00
47.936 1170.00
48.2402 1208.00
48.5445 1427.00
48.8488 1391.00
49.153 1100.00
49.4573 932.00
49.7615 1011.00
50.0658 1710.00
50.3701 2463.00
50.6743 1808.00
50.9786 1963.00
51.2828 1368.00
51.5871 1531.00
51.8914 985.00
52.1956 865.00
52.4999 959.00
52.8041 1410.00
53.1084 978.00
53.4127 1616.00
53.7169 1270.00
54.0212 1319.00
54.3254 1964.00
54.6297 1761.00
54.934 1851.00
55.2382 1596.00
55.5425 1920.00
55.8467 2011.00
56.151 2368.00
56.4553 2069.00
56.7595 1211.00
57.0638 948.00
57.368 761.00
57.6723 743.00
57.9766 1094.00
58.2808 806.00
58.5851 845.00
58.8893 867.00
59.1936 1276.00
59.4979 1037.00
59.8021 1093.00
60.1064 1010.00
60.4106 1210.00
60.7149 1385.00
61.0192 1174.00
61.3234 1195.00
61.6277 1502.00
61.932 1766.00
62.2362 1823.00
62.5405 1974.00
62.8447 1595.00
63.149 1246.00
63.4533 1159.00
63.7575 2541.00
64.0618 1061.00
64.366 743.00
64.6703 733.00
64.9745 755.00
65.2788 751.00
65.5831 838.00
65.8873 604.00
66.1916 684.00
66.4959 895.00
66.8001 1136.00
67.1044 1087.00
67.4086 974.00
67.7129 830.00
68.0172 1177.00
68.3214 1129.00
68.6257 779.00
68.9299 862.00
69.2342 652.00
69.5385 796.00
69.8427 797.00
70.147 813.00
70.4512 709.00
70.7555 796.00
71.0598 773.00
71.364 792.00
71.6683 761.00
71.9725 983.00
72.2768 971.00
72.5811 848.00
72.8853 839.00
73.1896 719.00
73.4938 762.00
73.7981 769.00
74.1024 1023.00
74.4066 684.00
74.7109 709.00
75.0151 683.00
75.3194 741.00
75.6237 784.00
75.9279 965.00
76.2322 1016.00
76.5364 1160.00
76.8407 1125.00
77.145 1188.00
77.4492 968.00
77.7535 775.00
78.0577 907.00
78.362 690.00
78.6663 785.00
78.9705 796.00
79.2748 595.00
79.579 583.00
79.8833 623.00
80.1876 629.00
80.4918 796.00
80.7961 821.00
81.1003 721.00
81.4046 866.00
81.7089 919.00
82.0131 836.00
82.3174 695.00
82.6217 703.00
82.9259 959.00
83.2302 907.00
83.5344 832.00
83.8387 884.00
84.143 780.00
84.4472 758.00
84.7515 919.00
85.0557 851.00
85.36 893.00
85.6643 659.00
85.9685 653.00
86.2728 811.00
86.577 814.00
86.8813 797.00
87.1856 1070.00
87.4898 997.00
87.7941 845.00
88.0983 758.00
88.4026 803.00
88.7069 834.00
89.0111 777.00
89.3154 623.00
89.6196 597.00
89.9239 653.00
90.2282 539.00
90.5324 589.00
90.8367 622.00
91.1409 722.00
91.4452 627.00
91.7495 656.00
92.0537 693.00
92.358 804.00
92.6622 705.00
92.9665 556.00
93.2708 630.00
93.575 564.00
93.8793 723.00
94.1835 632.00
94.4878 635.00
94.7921 688.00
95.0963 753.00
95.4006 662.00
95.7048 591.00
96.0091 634.00
96.3134 879.00
96.6176 841.00
96.9219 665.00
97.2261 671.00
97.5304 642.00
97.8347 671.00
98.1389 598.00
98.4432 540.00
98.7474 509.00
99.0517 532.00
99.356 552.00
99.6602 565.00
99.9645 500.00
100.095 516.00

File: PG_2450-1.xy
9.903433 3363.00
10.2077 3336.00
10.512 3253.00
10.8162 3087.00
11.1205 3104.00
11.4247 3019.00
11.729 2913.00
12.0333 2815.00
12.3375 2675.00
12.6418 2795.00
12.946 2679.00
13.2503 2719.00
13.5546 2719.00
13.8588 2722.00
14.1631 2650.00
14.4673 2815.00
14.7716 2705.00
15.0759 2709.00
15.3801 2625.00
15.6844 2759.00
15.9886 2555.00
16.2929 2689.00
16.5972 2602.00
16.9014 2685.00
17.2057 2513.00
17.5099 2491.00
17.8142 2402.00
18.1185 2390.00
18.4227 2482.00
18.727 2363.00
19.0312 2258.00
19.3355 2314.00
19.6398 2345.00
19.944 2298.00
20.2483 2329.00
20.5525 2999.00
20.8568 8285.00
21.1611 2382.00
21.4653 2437.00
21.7696 2371.00
22.0738 2245.00
22.3781 2216.00
22.6824 2006.00
22.9866 2138.00
23.2909 2076.00
23.5951 2169.00
23.8994 2163.00
24.2037 2054.00
24.5079 2103.00
24.8122 2047.00
25.1164 2005.00
25.4207 1946.00
25.725 2084.00
26.0292 1931.00
26.3335 1882.00
26.6378 2102.00
26.942 2032.00
27.2463 1952.00
27.5505 1942.00
27.8548 1994.00
28.1591 2041.00
28.4633 2359.00
28.7676 2612.00
29.0718 4045.00
29.3761 39846.00
29.6804 7393.00
29.9846 2744.00
30.2889 2401.00
30.5931 2385.00
30.8974 2540.00
31.2017 2151.00
31.5059 2103.00
31.8102 2507.00
32.1144 2522.00
32.4187 2075.00
32.723 2312.00
33.0272 2140.00
33.3315 2021.00
33.6357 2312.00
33.94 5694.00
34.2443 5722.00
34.5485 2145.00
34.8528 1902.00
35.157 1788.00
35.4613 1826.00
35.7656 1924.00
36.0698 3012.00
36.3741 2605.00
36.6783 1907.00
36.9826 1846.00
37.2869 2032.00
37.5911 1783.00
37.8954 1716.00
38.1996 2353.00
38.5039 1752.00
38.8082 1726.00
39.1124 1746.00
39.4167 1680.00
39.7209 1831.00
40.0252 3096.00
40.3295 2391.00
40.6337 1712.00
40.938 1628.00
41.2422 1543.00
41.5465 1631.00
41.8508 1720.00
42.155 1822.00
42.4593 1646.00
42.7635 1698.00
43.0678 1625.00
43.3721 1762.00
43.6763 4133.00
43.9806 2567.00
44.2849 1644.00
44.5891 1635.00
44.8934 1543.00
45.1976 1606.00
45.5019 1555.00
45.8062 1647.00
46.1104 1457.00
46.4147 1600.00
46.7189 1561.00
47.0232 1881.00
47.3275 2463.00
47.6317 1778.00
47.936 1694.00
48.2402 2025.00
48.5445 3418.00
48.8488 23364.00
49.153 2950.00
49.4573 1897.00
49.7615 1808.00
50.0658 1591.00
50.3701 2800.00
50.6743 1812.00
50.9786 1539.00
51.2828 1638.00
51.5871 1552.00
51.8914 1869.00
52.1956 1627.00
52.4999 1618.00
52.8041 1558.00
53.1084 1626.00
53.4127 3539.00
53.7169 2038.00
54.0212 1575.00
54.3254 1564.00
54.6297 1603.00
54.934 2021.00
55.2382 1621.00
55.5425 1579.00
55.8467 1554.00
56.151 1736.00
56.4553 3893.00
56.7595 1724.00
57.0638 1630.00
57.368 1903.00
57.6723 3468.00
57.9766 10847.00
58.2808 2349.00
58.5851 1753.00
58.8893 1767.00
59.1936 2906.00
59.4979 2931.00
59.8021 1699.00
60.1064 1567.00
60.4106 1743.00
60.7149 4136.00
61.0192 1719.00
61.3234 1500.00
61.6277 1526.00
61.932 1821.00
62.2362 2048.00
62.5405 1620.00
62.8447 1405.00
63.149 1574.00
63.4533 2093.00
63.7575 1549.00
64.0618 1447.00
64.366 1479.00
64.6703 2143.00
64.9745 2261.00
65.2788 1545.00
65.5831 1511.00
65.8873 1594.00
66.1916 1887.00
66.4959 1415.00
66.8001 1451.00
67.1044 1411.00
67.4086 1459.00
67.7129 1393.00
68.0172 1396.00
68.3214 1375.00
68.6257 1385.00
68.9299 1429.00
69.2342 1382.00
69.5385 1468.00
69.8427 1571.00
70.147 1860.00
70.4512 1466.00
70.7555 1443.00
71.0598 1656.00
71.364 2894.00
71.6683 1561.00
71.9725 1425.00
72.2768 1430.00
72.5811 3348.00
72.8853 1830.00
73.1896 1437.00
73.4938 1486.00
73.7981 2233.00
74.1024 1824.00
74.4066 1385.00
74.7109 1448.00
75.0151 1944.00
75.3194 1979.00
75.6237 1357.00
75.9279 1458.00
76.2322 1649.00
76.5364 1746.00
76.8407 1420.00
77.145 1426.00
77.4492 1969.00
77.7535 2230.00
78.0577 1438.00
78.362 1470.00
78.6663 2365.00
78.9705 3029.00
79.2748 1608.00
79.579 1539.00
79.8833 1365.00
80.1876 1334.00
80.4918 1349.00
80.7961 1383.00
81.1003 1842.00
81.4046 2289.00
81.7089 1600.00
82.0131 1394.00
82.3174 1429.00
82.6217 1430.00
82.9259 1357.00
83.2302 1406.00
83.5344 1489.00
83.8387 1547.00
84.143 1360.00
84.4472 1418.00
84.7515 1691.00
85.0557 1723.00
85.36 1408.00
85.6643 1388.00
85.9685 1293.00
86.2728 1433.00
86.577 1313.00
86.8813 1442.00
87.1856 1582.00
87.4898 1765.00
87.7941 1430.00
88.0983 1392.00
88.4026 1290.00
88.7069 1283.00
89.0111 1368.00
89.3154 1339.00
89.6196 1716.00
89.9239 1761.00
90.2282 1476.00
90.5324 1403.00
90.8367 2385.00
91.1409 2242.00
91.4452 1507.00
91.7495 1461.00
92.0537 1815.00
92.358 1697.00
92.6622 1452.00
92.9665 1404.00
93.2708 1682.00
93.575 1551.00
93.8793 1410.00
94.1835 1308.00
94.4878 1506.00
94.7921 1453.00
95.0963 1402.00
95.4006 1418.00
95.7048 2182.00
96.0091 1938.00
96.3134 1493.00
96.6176 1330.00
96.9219 1583.00
97.2261 1475.00
97.5304 1432.00
97.8347 1490.00
98.1389 2571.00
98.4432 2084.00
98.7474 1619.00
99.0517 1419.00
99.356 2086.00
99.6602 1743.00
99.9645 1510.00
100.095 1392.00