Folder: alab-pipeline/data/xrd_creation/results (part 87)

File: PG_1752-1.xy
9.903433 2551.00
10.2077 2283.00
10.512 2304.00
10.8162 2245.00
11.1205 2051.00
11.4247 2021.00
11.729 1923.00
12.0333 1950.00
12.3375 1820.00
12.6418 1732.00
12.946 1608.00
13.2503 1776.00
13.5546 1640.00
13.8588 1614.00
14.1631 1517.00
14.4673 1534.00
14.7716 1479.00
15.0759 1461.00
15.3801 1449.00
15.6844 1352.00
15.9886 1370.00
16.2929 1357.00
16.5972 1397.00
16.9014 1339.00
17.2057 1269.00
17.5099 1460.00
17.8142 1440.00
18.1185 1194.00
18.4227 1212.00
18.727 1103.00
19.0312 1141.00
19.3355 1146.00
19.6398 1149.00
19.944 1072.00
20.2483 1127.00
20.5525 1057.00
20.8568 1018.00
21.1611 1062.00
21.4653 1057.00
21.7696 1005.00
22.0738 1069.00
22.3781 937.00
22.6824 972.00
22.9866 1022.00
23.2909 1012.00
23.5951 970.00
23.8994 1063.00
24.2037 1659.00
24.5079 1791.00
24.8122 1656.00
25.1164 946.00
25.4207 931.00
25.725 869.00
26.0292 899.00
26.3335 832.00
26.6378 853.00
26.942 829.00
27.2463 909.00
27.5505 972.00
27.8548 1023.00
28.1591 2196.00
28.4633 7573.00
28.7676 2309.00
29.0718 1048.00
29.3761 912.00
29.6804 830.00
29.9846 792.00
30.2889 812.00
30.5931 824.00
30.8974 901.00
31.2017 1076.00
31.5059 2219.00
31.8102 6010.00
32.1144 1697.00
32.4187 923.00
32.723 763.00
33.0272 694.00
33.3315 709.00
33.6357 701.00
33.94 829.00
34.2443 1475.00
34.5485 2964.00
34.8528 2317.00
35.157 933.00
35.4613 1397.00
35.7656 2374.00
36.0698 1040.00
36.3741 1091.00
36.6783 708.00
36.9826 648.00
37.2869 602.00
37.5911 679.00
37.8954 624.00
38.1996 653.00
38.5039 625.00
38.8082 992.00
39.1124 1093.00
39.4167 704.00
39.7209 647.00
40.0252 671.00
40.3295 695.00
40.6337 747.00
40.938 1331.00
41.2422 1751.00
41.5465 1187.00
41.8508 1072.00
42.155 683.00
42.4593 657.00
42.7635 577.00
43.0678 606.00
43.3721 618.00
43.6763 613.00
43.9806 622.00
44.2849 624.00
44.5891 656.00
44.8934 739.00
45.1976 968.00
45.5019 822.00
45.8062 1062.00
46.1104 904.00
46.4147 619.00
46.7189 564.00
47.0232 566.00
47.3275 549.00
47.6317 620.00
47.936 558.00
48.2402 563.00
48.5445 624.00
48.8488 643.00
49.153 827.00
49.4573 1652.00
49.7615 2244.00
50.0658 1009.00
50.3701 1841.00
50.6743 3068.00
50.9786 1784.00
51.2828 1162.00
51.5871 997.00
51.8914 870.00
52.1956 675.00
52.4999 605.00
52.8041 623.00
53.1084 622.00
53.4127 587.00
53.7169 642.00
54.0212 718.00
54.3254 1355.00
54.6297 1687.00
54.934 914.00
55.2382 886.00
55.5425 1330.00
55.8467 2281.00
56.151 1892.00
56.4553 1602.00
56.7595 885.00
57.0638 722.00
57.368 1056.00
57.6723 1396.00
57.9766 1058.00
58.2808 1049.00
58.5851 1284.00
58.8893 1043.00
59.1936 722.00
59.4979 652.00
59.8021 831.00
60.1064 1253.00
60.4106 1823.00
60.7149 1188.00
61.0192 661.00
61.3234 739.00
61.6277 946.00
61.932 1356.00
62.2362 1246.00
62.5405 1344.00
62.8447 947.00
63.149 1154.00
63.4533 1612.00
63.7575 894.00
64.0618 646.00
64.366 781.00
64.6703 916.00
64.9745 887.00
65.2788 736.00
65.5831 849.00
65.8873 1282.00
66.1916 1395.00
66.4959 1274.00
66.8001 765.00
67.1044 655.00
67.4086 610.00
67.7129 605.00
68.0172 644.00
68.3214 593.00
68.6257 574.00
68.9299 605.00
69.2342 722.00
69.5385 874.00
69.8427 791.00
70.147 691.00
70.4512 765.00
70.7555 680.00
71.0598 744.00
71.364 907.00
71.6683 1242.00
71.9725 1111.00
72.2768 788.00
72.5811 858.00
72.8853 832.00
73.1896 858.00
73.4938 767.00
73.7981 640.00
74.1024 691.00
74.4066 659.00
74.7109 649.00
75.0151 757.00
75.3194 1022.00
75.6237 1007.00
75.9279 1078.00
76.2322 769.00
76.5364 759.00
76.8407 760.00
77.145 886.00
77.4492 861.00
77.7535 778.00
78.0577 909.00
78.362 873.00
78.6663 828.00
78.9705 782.00
79.2748 800.00
79.579 897.00
79.8833 813.00
80.1876 696.00
80.4918 657.00
80.7961 643.00
81.1003 723.00
81.4046 729.00
81.7089 818.00
82.0131 853.00
82.3174 986.00
82.6217 844.00
82.9259 839.00
83.2302 1072.00
83.5344 1000.00
83.8387 1066.00
84.143 1023.00
84.4472 937.00
84.7515 1044.00
85.0557 1002.00
85.36 811.00
85.6643 915.00
85.9685 734.00
86.2728 720.00
86.577 738.00
86.8813 859.00
87.1856 780.00
87.4898 794.00
87.7941 798.00
88.0983 890.00
88.4026 1021.00
88.7069 1091.00
89.0111 1099.00
89.3154 1123.00
89.6196 924.00
89.9239 962.00
90.2282 933.00
90.5324 1062.00
90.8367 1024.00
91.1409 734.00
91.4452 804.00
91.7495 768.00
92.0537 858.00
92.358 835.00
92.6622 693.00
92.9665 736.00
93.2708 744.00
93.575 702.00
93.8793 879.00
94.1835 811.00
94.4878 859.00
94.7921 872.00
95.0963 838.00
95.4006 919.00
95.7048 915.00
96.0091 1013.00
96.3134 1074.00
96.6176 1049.00
96.9219 1144.00
97.2261 1178.00
97.5304 1263.00
97.8347 1210.00
98.1389 1028.00
98.4432 864.00
98.7474 1017.00
99.0517 1014.00
99.356 1040.00
99.6602 1086.00
99.9645 1137.00
100.095 1129.00

File: PG_1834-1.xy
9.903433 2718.00
10.2077 2530.00
10.512 2436.00
10.8162 2484.00
11.1205 2368.00
11.4247 2236.00
11.729 2207.00
12.0333 2224.00
12.3375 2092.00
12.6418 1943.00
12.946 2009.00
13.2503 1880.00
13.5546 1877.00
13.8588 1783.00
14.1631 1894.00
14.4673 1793.00
14.7716 1803.00
15.0759 1674.00
15.3801 1730.00
15.6844 1678.00
15.9886 1704.00
16.2929 1626.00
16.5972 1922.00
16.9014 2858.00
17.2057 1586.00
17.5099 1631.00
17.8142 1519.00
18.1185 1488.00
18.4227 1432.00
18.727 1426.00
19.0312 1462.00
19.3355 1421.00
19.6398 1406.00
19.944 1355.00
20.2483 1244.00
20.5525 1312.00
20.8568 1281.00
21.1611 1278.00
21.4653 1669.00
21.7696 3595.00
22.0738 1355.00
22.3781 1255.00
22.6824 1224.00
22.9866 1169.00
23.2909 1172.00
23.5951 1158.00
23.8994 1716.00
24.2037 1126.00
24.5079 1163.00
24.8122 1147.00
25.1164 1004.00
25.4207 985.00
25.725 982.00
26.0292 1031.00
26.3335 955.00
26.6378 951.00
26.942 970.00
27.2463 978.00
27.5505 961.00
27.8548 1016.00
28.1591 971.00
28.4633 943.00
28.7676 943.00
29.0718 1193.00
29.3761 2429.00
29.6804 1057.00
29.9846 1114.00
30.2889 1393.00
30.5931 4589.00
30.8974 26467.00
31.2017 1733.00
31.5059 1094.00
31.8102 965.00
32.1144 920.00
32.4187 896.00
32.723 868.00
33.0272 885.00
33.3315 1017.00
33.6357 879.00
33.94 1080.00
34.2443 804.00
34.5485 777.00
34.8528 790.00
35.157 953.00
35.4613 1709.00
35.7656 8963.00
36.0698 1056.00
36.3741 720.00
36.6783 778.00
36.9826 704.00
37.2869 702.00
37.5911 735.00
37.8954 1710.00
38.1996 983.00
38.5039 641.00
38.8082 648.00
39.1124 698.00
39.4167 623.00
39.7209 601.00
40.0252 887.00
40.3295 655.00
40.6337 626.00
40.938 629.00
41.2422 636.00
41.5465 589.00
41.8508 774.00
42.155 1824.00
42.4593 628.00
42.7635 597.00
43.0678 526.00
43.3721 555.00
43.6763 601.00
43.9806 706.00
44.2849 606.00
44.5891 582.00
44.8934 550.00
45.1976 759.00
45.5019 1109.00
45.8062 1323.00
46.1104 1496.00
46.4147 622.00
46.7189 569.00
47.0232 511.00
47.3275 531.00
47.6317 503.00
47.936 514.00
48.2402 583.00
48.5445 489.00
48.8488 534.00
49.153 573.00
49.4573 905.00
49.7615 691.00
50.0658 584.00
50.3701 573.00
50.6743 699.00
50.9786 1371.00
51.2828 11244.00
51.5871 1240.00
51.8914 759.00
52.1956 541.00
52.4999 543.00
52.8041 731.00
53.1084 845.00
53.4127 559.00
53.7169 479.00
54.0212 500.00
54.3254 456.00
54.6297 765.00
54.934 580.00
55.2382 484.00
55.5425 479.00
55.8467 565.00
56.151 1266.00
56.4553 750.00
56.7595 511.00
57.0638 479.00
57.368 532.00
57.6723 797.00
57.9766 677.00
58.2808 467.00
58.5851 477.00
58.8893 496.00
59.1936 716.00
59.4979 1097.00
59.8021 538.00
60.1064 479.00
60.4106 759.00
60.7149 1977.00
61.0192 4199.00
61.3234 815.00
61.6277 529.00
61.932 548.00
62.2362 811.00
62.5405 1234.00
62.8447 535.00
63.149 496.00
63.4533 569.00
63.7575 784.00
64.0618 1128.00
64.366 496.00
64.6703 404.00
64.9745 470.00
65.2788 724.00
65.5831 699.00
65.8873 415.00
66.1916 389.00
66.4959 455.00
66.8001 733.00
67.1044 501.00
67.4086 391.00
67.7129 434.00
68.0172 511.00
68.3214 979.00
68.6257 592.00
68.9299 462.00
69.2342 423.00
69.5385 510.00
69.8427 592.00
70.147 441.00
70.4512 390.00
70.7555 389.00
71.0598 477.00
71.364 390.00
71.6683 403.00
71.9725 404.00
72.2768 393.00
72.5811 402.00
72.8853 388.00
73.1896 415.00
73.4938 400.00
73.7981 738.00
74.1024 693.00
74.4066 373.00
74.7109 433.00
75.0151 495.00
75.3194 1026.00
75.6237 477.00
75.9279 401.00
76.2322 506.00
76.5364 817.00
76.8407 843.00
77.145 422.00
77.4492 398.00
77.7535 464.00
78.0577 743.00
78.362 446.00
78.6663 428.00
78.9705 470.00
79.2748 718.00
79.579 650.00
79.8833 357.00
80.1876 421.00
80.4918 438.00
80.7961 534.00
81.1003 429.00
81.4046 421.00
81.7089 454.00
82.0131 1090.00
82.3174 736.00
82.6217 380.00
82.9259 471.00
83.2302 1007.00
83.5344 1054.00
83.8387 483.00
84.143 383.00
84.4472 400.00
84.7515 391.00
85.0557 391.00
85.36 399.00
85.6643 461.00
85.9685 1222.00
86.2728 930.00
86.577 453.00
86.8813 392.00
87.1856 390.00
87.4898 453.00
87.7941 422.00
88.0983 361.00
88.4026 415.00
88.7069 588.00
89.0111 459.00
89.3154 390.00
89.6196 387.00
89.9239 647.00
90.2282 574.00
90.5324 391.00
90.8367 323.00
91.1409 389.00
91.4452 382.00
91.7495 358.00
92.0537 360.00
92.358 406.00
92.6622 879.00
92.9665 629.00
93.2708 404.00
93.575 354.00
93.8793 356.00
94.1835 352.00
94.4878 366.00
94.7921 396.00
95.0963 460.00
95.4006 646.00
95.7048 551.00
96.0091 372.00
96.3134 413.00
96.6176 1204.00
96.9219 787.00
97.2261 433.00
97.5304 393.00
97.8347 545.00
98.1389 653.00
98.4432 453.00
98.7474 420.00
99.0517 406.00
99.356 640.00
99.6602 494.00
99.9645 350.00
100.095 345.00

File: PG_1835-1.xy
9.903433 2682.00
10.2077 2731.00
10.512 2575.00
10.8162 2435.00
11.1205 2303.00
11.4247 2280.00
11.729 2250.00
12.0333 2085.00
12.3375 2099.00
12.6418 2075.00
12.946 1983.00
13.2503 1928.00
13.5546 1845.00
13.8588 1885.00
14.1631 1821.00
14.4673 1737.00
14.7716 1810.00
15.0759 1721.00
15.3801 1755.00
15.6844 1663.00
15.9886 1693.00
16.2929 1643.00
16.5972 1577.00
16.9014 1565.00
17.2057 1567.00
17.5099 1587.00
17.8142 1702.00
18.1185 1617.00
18.4227 1452.00
18.727 1397.00
19.0312 1480.00
19.3355 1426.00
19.6398 1372.00
19.944 1373.00
20.2483 1460.00
20.5525 1261.00
20.8568 1303.00
21.1611 1341.00
21.4653 1422.00
21.7696 3856.00
22.0738 1440.00
22.3781 1233.00
22.6824 1215.00
22.9866 1263.00
23.2909 1173.00
23.5951 1103.00
23.8994 1216.00
24.2037 1147.00
24.5079 1137.00
24.8122 1074.00
25.1164 1129.00
25.4207 1071.00
25.725 1077.00
26.0292 1049.00
26.3335 1087.00
26.6378 1090.00
26.942 999.00
27.2463 950.00
27.5505 995.00
27.8548 1045.00
28.1591 974.00
28.4633 974.00
28.7676 977.00
29.0718 953.00
29.3761 906.00
29.6804 965.00
29.9846 1211.00
30.2889 1460.00
30.5931 2680.00
30.8974 41606.00
31.2017 3012.00
31.5059 1304.00
31.8102 1103.00
32.1144 970.00
32.4187 947.00
32.723 888.00
33.0272 904.00
33.3315 1193.00
33.6357 926.00
33.94 881.00
34.2443 901.00
34.5485 1177.00
34.8528 1226.00
35.157 932.00
35.4613 1366.00
35.7656 12733.00
36.0698 1437.00
36.3741 861.00
36.6783 758.00
36.9826 798.00
37.2869 817.00
37.5911 792.00
37.8954 1355.00
38.1996 1261.00
38.5039 953.00
38.8082 709.00
39.1124 702.00
39.4167 677.00
39.7209 764.00
40.0252 824.00
40.3295 1062.00
40.6337 647.00
40.938 681.00
41.2422 664.00
41.5465 837.00
41.8508 1046.00
42.155 2608.00
42.4593 738.00
42.7635 676.00
43.0678 656.00
43.3721 573.00
43.6763 649.00
43.9806 622.00
44.2849 724.00
44.5891 651.00
44.8934 667.00
45.1976 584.00
45.5019 593.00
45.8062 941.00
46.1104 2873.00
46.4147 720.00
46.7189 699.00
47.0232 640.00
47.3275 626.00
47.6317 556.00
47.936 569.00
48.2402 596.00
48.5445 765.00
48.8488 527.00
49.153 581.00
49.4573 707.00
49.7615 1115.00
50.0658 652.00
50.3701 586.00
50.6743 705.00
50.9786 1198.00
51.2828 11063.00
51.5871 2336.00
51.8914 779.00
52.1956 605.00
52.4999 578.00
52.8041 630.00
53.1084 1043.00
53.4127 606.00
53.7169 629.00
54.0212 606.00
54.3254 551.00
54.6297 763.00
54.934 596.00
55.2382 537.00
55.5425 533.00
55.8467 654.00
56.151 920.00
56.4553 1436.00
56.7595 636.00
57.0638 531.00
57.368 572.00
57.6723 536.00
57.9766 759.00
58.2808 524.00
58.5851 523.00
58.8893 552.00
59.1936 682.00
59.4979 1351.00
59.8021 636.00
60.1064 613.00
60.4106 694.00
60.7149 1381.00
61.0192 6321.00
61.3234 1164.00
61.6277 628.00
61.932 609.00
62.2362 780.00
62.5405 1605.00
62.8447 668.00
63.149 608.00
63.4533 506.00
63.7575 707.00
64.0618 1355.00
64.366 633.00
64.6703 479.00
64.9745 488.00
65.2788 542.00
65.5831 890.00
65.8873 491.00
66.1916 485.00
66.4959 480.00
66.8001 619.00
67.1044 665.00
67.4086 492.00
67.7129 513.00
68.0172 525.00
68.3214 1596.00
68.6257 636.00
68.9299 461.00
69.2342 435.00
69.5385 512.00
69.8427 702.00
70.147 505.00
70.4512 449.00
70.7555 444.00
71.0598 412.00
71.364 408.00
71.6683 398.00
71.9725 409.00
72.2768 463.00
72.5811 457.00
72.8853 403.00
73.1896 390.00
73.4938 450.00
73.7981 589.00
74.1024 882.00
74.4066 435.00
74.7109 453.00
75.0151 539.00
75.3194 1691.00
75.6237 655.00
75.9279 468.00
76.2322 468.00
76.5364 673.00
76.8407 903.00
77.145 399.00
77.4492 444.00
77.7535 462.00
78.0577 1033.00
78.362 541.00
78.6663 428.00
78.9705 463.00
79.2748 624.00
79.579 745.00
79.8833 491.00
80.1876 460.00
80.4918 462.00
80.7961 738.00
81.1003 481.00
81.4046 443.00
81.7089 474.00
82.0131 1010.00
82.3174 1006.00
82.6217 491.00
82.9259 520.00
83.2302 712.00
83.5344 1184.00
83.8387 622.00
84.143 456.00
84.4472 467.00
84.7515 468.00
85.0557 425.00
85.36 420.00
85.6643 534.00
85.9685 971.00
86.2728 1030.00
86.577 460.00
86.8813 438.00
87.1856 454.00
87.4898 569.00
87.7941 494.00
88.0983 412.00
88.4026 403.00
88.7069 723.00
89.0111 567.00
89.3154 427.00
89.6196 431.00
89.9239 556.00
90.2282 619.00
90.5324 459.00
90.8367 439.00
91.1409 397.00
91.4452 387.00
91.7495 416.00
92.0537 385.00
92.358 470.00
92.6622 956.00
92.9665 688.00
93.2708 427.00
93.575 412.00
93.8793 420.00
94.1835 379.00
94.4878 423.00
94.7921 393.00
95.0963 478.00
95.4006 993.00
95.7048 734.00
96.0091 452.00
96.3134 491.00
96.6176 1167.00
96.9219 832.00
97.2261 534.00
97.5304 446.00
97.8347 522.00
98.1389 713.00
98.4432 651.00
98.7474 428.00
99.0517 449.00
99.356 862.00
99.6602 669.00
99.9645 478.00
100.095 391.00

File: PG_1839-1.xy
9.903433 2569.00
10.2077 2570.00
10.512 2497.00
10.8162 2426.00
11.1205 2354.00
11.4247 2244.00
11.729 2204.00
12.0333 2124.00
12.3375 2044.00
12.6418 1922.00
12.946 1996.00
13.2503 1884.00
13.5546 1769.00
13.8588 1858.00
14.1631 1774.00
14.4673 1694.00
14.7716 1762.00
15.0759 1722.00
15.3801 1591.00
15.6844 1675.00
15.9886 1670.00
16.2929 1611.00
16.5972 1588.00
16.9014 1625.00
17.2057 1564.00
17.5099 1592.00
17.8142 1557.00
18.1185 1586.00
18.4227 1561.00
18.727 1452.00
19.0312 1509.00
19.3355 1444.00
19.6398 1427.00
19.944 1475.00
20.2483 1414.00
20.5525 1395.00
20.8568 1473.00
21.1611 1420.00
21.4653 1615.00
21.7696 2418.00
22.0738 1331.00
22.3781 1294.00
22.6824 1291.00
22.9866 1361.00
23.2909 1258.00
23.5951 1331.00
23.8994 1278.00
24.2037 1237.00
24.5079 1297.00
24.8122 1266.00
25.1164 1236.00
25.4207 1280.00
25.725 1299.00
26.0292 1206.00
26.3335 1249.00
26.6378 1192.00
26.942 1180.00
27.2463 1180.00
27.5505 1210.00
27.8548 1216.00
28.1591 1130.00
28.4633 1150.00
28.7676 1152.00
29.0718 1113.00
29.3761 1158.00
29.6804 1151.00
29.9846 1264.00
30.2889 1392.00
30.5931 4430.00
30.8974 13228.00
31.2017 1528.00
31.5059 1216.00
31.8102 1184.00
32.1144 1143.00
32.4187 1137.00
32.723 1118.00
33.0272 1075.00
33.3315 1238.00
33.6357 1041.00
33.94 1070.00
34.2443 1071.00
34.5485 1150.00
34.8528 1206.00
35.157 1106.00
35.4613 2034.00
35.7656 5031.00
36.0698 1227.00
36.3741 1081.00
36.6783 1067.00
36.9826 1095.00
37.2869 1607.00
37.5911 2598.00
37.8954 1673.00
38.1996 1062.00
38.5039 1032.00
38.8082 1031.00
39.1124 1019.00
39.4167 1060.00
39.7209 1059.00
40.0252 1121.00
40.3295 1095.00
40.6337 1096.00
40.938 1035.00
41.2422 1034.00
41.5465 1041.00
41.8508 1201.00
42.155 1559.00
42.4593 1067.00
42.7635 1012.00
43.0678 1136.00
43.3721 2345.00
43.6763 2864.00
43.9806 1135.00
44.2849 1016.00
44.5891 987.00
44.8934 1035.00
45.1976 1024.00
45.5019 1096.00
45.8062 1771.00
46.1104 1522.00
46.4147 1014.00
46.7189 976.00
47.0232 1000.00
47.3275 1059.00
47.6317 1007.00
47.936 948.00
48.2402 939.00
48.5445 959.00
48.8488 1004.00
49.153 1018.00
49.4573 1257.00
49.7615 1058.00
50.0658 972.00
50.3701 988.00
50.6743 1059.00
50.9786 1870.00
51.2828 6647.00
51.5871 1325.00
51.8914 1119.00
52.1956 1030.00
52.4999 930.00
52.8041 1141.00
53.1084 1157.00
53.4127 1027.00
53.7169 991.00
54.0212 1039.00
54.3254 949.00
54.6297 1029.00
54.934 998.00
55.2382 1000.00
55.5425 999.00
55.8467 1037.00
56.151 1487.00
56.4553 1226.00
56.7595 967.00
57.0638 974.00
57.368 984.00
57.6723 1098.00
57.9766 1075.00
58.2808 958.00
58.5851 988.00
58.8893 1073.00
59.1936 1275.00
59.4979 1326.00
59.8021 1059.00
60.1064 1024.00
60.4106 1173.00
60.7149 2507.00
61.0192 3106.00
61.3234 1244.00
61.6277 1105.00
61.932 1051.00
62.2362 1414.00
62.5405 1477.00
62.8447 1452.00
63.149 2599.00
63.4533 1166.00
63.7575 1385.00
64.0618 1378.00
64.366 1061.00
64.6703 1037.00
64.9745 1018.00
65.2788 1151.00
65.5831 1137.00
65.8873 991.00
66.1916 986.00
66.4959 1022.00
66.8001 1172.00
67.1044 1017.00
67.4086 991.00
67.7129 1055.00
68.0172 1125.00
68.3214 1354.00
68.6257 1076.00
68.9299 1022.00
69.2342 984.00
69.5385 1083.00
69.8427 1100.00
70.147 1008.00
70.4512 985.00
70.7555 1031.00
71.0598 1003.00
71.364 1015.00
71.6683 942.00
71.9725 933.00
72.2768 1013.00
72.5811 1017.00
72.8853 983.00
73.1896 980.00
73.4938 1011.00
73.7981 1208.00
74.1024 1145.00
74.4066 983.00
74.7109 1035.00
75.0151 1144.00
75.3194 1509.00
75.6237 1718.00
75.9279 1276.00
76.2322 1094.00
76.5364 1309.00
76.8407 1265.00
77.145 1045.00
77.4492 1029.00
77.7535 1090.00
78.0577 1242.00
78.362 1032.00
78.6663 1045.00
78.9705 1058.00
79.2748 1276.00
79.579 1683.00
79.8833 1276.00
80.1876 1005.00
80.4918 1082.00
80.7961 1189.00
81.1003 1054.00
81.4046 1049.00
81.7089 1070.00
82.0131 1544.00
82.3174 1205.00
82.6217 1048.00
82.9259 1134.00
83.2302 1597.00
83.5344 1468.00
83.8387 1113.00
84.143 1066.00
84.4472 1045.00
84.7515 1045.00
85.0557 1028.00
85.36 1081.00
85.6643 1191.00
85.9685 1668.00
86.2728 1477.00
86.577 1016.00
86.8813 1105.00
87.1856 1085.00
87.4898 1110.00
87.7941 1019.00
88.0983 1083.00
88.4026 1098.00
88.7069 1211.00
89.0111 1110.00
89.3154 1079.00
89.6196 1098.00
89.9239 1283.00
90.2282 1216.00
90.5324 1049.00
90.8367 1039.00
91.1409 1019.00
91.4452 1124.00
91.7495 1085.00
92.0537 1078.00
92.358 1087.00
92.6622 1389.00
92.9665 1287.00
93.2708 1102.00
93.575 1082.00
93.8793 1036.00
94.1835 1057.00
94.4878 1093.00
94.7921 1092.00
95.0963 1237.00
95.4006 1402.00
95.7048 1241.00
96.0091 1079.00
96.3134 1161.00
96.6176 1593.00
96.9219 1373.00
97.2261 1152.00
97.5304 1175.00
97.8347 1315.00
98.1389 1250.00
98.4432 1155.00
98.7474 1154.00
99.0517 1138.00
99.356 1280.00
99.6602 1192.00
99.9645 1123.00
100.095 1101.00

File: PG_1840-1.xy
9.903433 2366.00
10.2077 2326.00
10.512 2265.00
10.8162 2201.00
11.1205 2143.00
11.4247 2001.00
11.729 1903.00
12.0333 1817.00
12.3375 1735.00
12.6418 1673.00
12.946 1650.00
13.2503 1574.00
13.5546 1545.00
13.8588 1579.00
14.1631 1610.00
14.4673 2052.00
14.7716 1473.00
15.0759 1405.00
15.3801 1456.00
15.6844 1354.00
15.9886 1278.00
16.2929 1288.00
16.5972 1284.00
16.9014 1267.00
17.2057 1267.00
17.5099 1259.00
17.8142 1226.00
18.1185 1200.00
18.4227 1159.00
18.727 1136.00
19.0312 1124.00
19.3355 1116.00
19.6398 1040.00
19.944 1029.00
20.2483 1048.00
20.5525 1057.00
20.8568 976.00
21.1611 1015.00
21.4653 1069.00
21.7696 1513.00
22.0738 965.00
22.3781 941.00
22.6824 976.00
22.9866 880.00
23.2909 908.00
23.5951 883.00
23.8994 904.00
24.2037 879.00
24.5079 1010.00
24.8122 873.00
25.1164 807.00
25.4207 828.00
25.725 910.00
26.0292 934.00
26.3335 1942.00
26.6378 11241.00
26.942 1555.00
27.2463 1001.00
27.5505 1186.00
27.8548 853.00
28.1591 799.00
28.4633 789.00
28.7676 1149.00
29.0718 1139.00
29.3761 897.00
29.6804 779.00
29.9846 865.00
30.2889 909.00
30.5931 1690.00
30.8974 10494.00
31.2017 2397.00
31.5059 952.00
31.8102 1002.00
32.1144 1745.00
32.4187 5239.00
32.723 1212.00
33.0272 786.00
33.3315 821.00
33.6357 762.00
33.94 901.00
34.2443 2779.00
34.5485 1119.00
34.8528 663.00
35.157 658.00
35.4613 848.00
35.7656 3335.00
36.0698 755.00
36.3741 611.00
36.6783 656.00
36.9826 785.00
37.2869 581.00
37.5911 577.00
37.8954 746.00
38.1996 597.00
38.5039 522.00
38.8082 517.00
39.1124 556.00
39.4167 637.00
39.7209 875.00
40.0252 873.00
40.3295 677.00
40.6337 552.00
40.938 510.00
41.2422 562.00
41.5465 554.00
41.8508 579.00
42.155 976.00
42.4593 558.00
42.7635 548.00
43.0678 502.00
43.3721 505.00
43.6763 569.00
43.9806 614.00
44.2849 575.00
44.5891 841.00
44.8934 1362.00
45.1976 636.00
45.5019 570.00
45.8062 779.00
46.1104 1320.00
46.4147 1531.00
46.7189 811.00
47.0232 587.00
47.3275 597.00
47.6317 1218.00
47.936 1764.00
48.2402 645.00
48.5445 622.00
48.8488 551.00
49.153 529.00
49.4573 723.00
49.7615 1089.00
50.0658 2567.00
50.3701 1171.00
50.6743 728.00
50.9786 826.00
51.2828 3980.00
51.5871 913.00
51.8914 685.00
52.1956 1450.00
52.4999 2861.00
52.8041 666.00
53.1084 732.00
53.4127 646.00
53.7169 577.00
54.0212 604.00
54.3254 594.00
54.6297 701.00
54.934 537.00
55.2382 544.00
55.5425 480.00
55.8467 523.00
56.151 959.00
56.4553 1129.00
56.7595 632.00
57.0638 544.00
57.368 522.00
57.6723 615.00
57.9766 799.00
58.2808 1605.00
58.5851 907.00
58.8893 624.00
59.1936 665.00
59.4979 1470.00
59.8021 742.00
60.1064 615.00
60.4106 812.00
60.7149 1752.00
61.0192 2167.00
61.3234 771.00
61.6277 709.00
61.932 540.00
62.2362 600.00
62.5405 692.00
62.8447 527.00
63.149 623.00
63.4533 889.00
63.7575 901.00
64.0618 861.00
64.366 954.00
64.6703 548.00
64.9745 512.00
65.2788 554.00
65.5831 605.00
65.8873 660.00
66.1916 1567.00
66.4959 1182.00
66.8001 569.00
67.1044 532.00
67.4086 488.00
67.7129 488.00
68.0172 461.00
68.3214 762.00
68.6257 622.00
68.9299 479.00
69.2342 469.00
69.5385 487.00
69.8427 671.00
70.147 770.00
70.4512 465.00
70.7555 433.00
71.0598 494.00
71.364 467.00
71.6683 509.00
71.9725 593.00
72.2768 889.00
72.5811 646.00
72.8853 516.00
73.1896 488.00
73.4938 492.00
73.7981 662.00
74.1024 806.00
74.4066 582.00
74.7109 513.00
75.0151 541.00
75.3194 851.00
75.6237 870.00
75.9279 545.00
76.2322 510.00
76.5364 898.00
76.8407 1046.00
77.145 480.00
77.4492 488.00
77.7535 489.00
78.0577 621.00
78.362 493.00
78.6663 448.00
78.9705 488.00
79.2748 581.00
79.579 617.00
79.8833 510.00
80.1876 511.00
80.4918 532.00
80.7961 635.00
81.1003 554.00
81.4046 532.00
81.7089 480.00
82.0131 693.00
82.3174 640.00
82.6217 577.00
82.9259 1009.00
83.2302 1104.00
83.5344 961.00
83.8387 802.00
84.143 670.00
84.4472 676.00
84.7515 1115.00
85.0557 786.00
85.36 566.00
85.6643 547.00
85.9685 775.00
86.2728 865.00
86.577 541.00
86.8813 544.00
87.1856 617.00
87.4898 630.00
87.7941 655.00
88.0983 625.00
88.4026 521.00
88.7069 561.00
89.0111 602.00
89.3154 548.00
89.6196 802.00
89.9239 743.00
90.2282 632.00
90.5324 552.00
90.8367 504.00
91.1409 616.00
91.4452 825.00
91.7495 723.00
92.0537 515.00
92.358 498.00
92.6622 712.00
92.9665 626.00
93.2708 654.00
93.575 603.00
93.8793 513.00
94.1835 502.00
94.4878 443.00
94.7921 459.00
95.0963 523.00
95.4006 602.00
95.7048 562.00
96.0091 620.00
96.3134 518.00
96.6176 760.00
96.9219 667.00
97.2261 534.00
97.5304 572.00
97.8347 719.00
98.1389 605.00
98.4432 579.00
98.7474 540.00
99.0517 534.00
99.356 586.00
99.6602 510.00
99.9645 460.00
100.095 477.00