Folder: alab-pipeline/data/xrd_creation/results (part 102)

File: PG_2250-1.xy
9.903433 2574.00
10.2077 2579.00
10.512 2395.00
10.8162 2221.00
11.1205 2239.00
11.4247 2217.00
11.729 2105.00
12.0333 1944.00
12.3375 1908.00
12.6418 1753.00
12.946 1750.00
13.2503 1696.00
13.5546 1581.00
13.8588 1601.00
14.1631 1573.00
14.4673 1525.00
14.7716 1491.00
15.0759 1440.00
15.3801 1552.00
15.6844 1437.00
15.9886 1336.00
16.2929 1319.00
16.5972 1324.00
16.9014 1340.00
17.2057 1316.00
17.5099 1218.00
17.8142 1178.00
18.1185 1167.00
18.4227 1172.00
18.727 1127.00
19.0312 1051.00
19.3355 1064.00
19.6398 1071.00
19.944 1071.00
20.2483 1351.00
20.5525 1386.00
20.8568 1041.00
21.1611 1096.00
21.4653 988.00
21.7696 995.00
22.0738 992.00
22.3781 1100.00
22.6824 935.00
22.9866 940.00
23.2909 966.00
23.5951 866.00
23.8994 911.00
24.2037 893.00
24.5079 909.00
24.8122 836.00
25.1164 831.00
25.4207 860.00
25.725 787.00
26.0292 830.00
26.3335 867.00
26.6378 761.00
26.942 779.00
27.2463 816.00
27.5505 859.00
27.8548 854.00
28.1591 1176.00
28.4633 886.00
28.7676 1198.00
29.0718 6631.00
29.3761 1054.00
29.6804 758.00
29.9846 760.00
30.2889 802.00
30.5931 810.00
30.8974 689.00
31.2017 727.00
31.5059 815.00
31.8102 830.00
32.1144 678.00
32.4187 607.00
32.723 619.00
33.0272 611.00
33.3315 628.00
33.6357 1642.00
33.94 867.00
34.2443 691.00
34.5485 602.00
34.8528 591.00
35.157 569.00
35.4613 612.00
35.7656 774.00
36.0698 598.00
36.3741 608.00
36.6783 558.00
36.9826 600.00
37.2869 508.00
37.5911 558.00
37.8954 575.00
38.1996 497.00
38.5039 483.00
38.8082 519.00
39.1124 517.00
39.4167 510.00
39.7209 702.00
40.0252 521.00
40.3295 442.00
40.6337 456.00
40.938 447.00
41.2422 427.00
41.5465 437.00
41.8508 444.00
42.155 441.00
42.4593 417.00
42.7635 436.00
43.0678 430.00
43.3721 779.00
43.6763 560.00
43.9806 443.00
44.2849 354.00
44.5891 429.00
44.8934 423.00
45.1976 396.00
45.5019 383.00
45.8062 439.00
46.1104 412.00
46.4147 380.00
46.7189 445.00
47.0232 406.00
47.3275 408.00
47.6317 401.00
47.936 417.00
48.2402 595.00
48.5445 1963.00
48.8488 480.00
49.153 378.00
49.4573 412.00
49.7615 392.00
50.0658 444.00
50.3701 390.00
50.6743 384.00
50.9786 379.00
51.2828 356.00
51.5871 445.00
51.8914 360.00
52.1956 300.00
52.4999 350.00
52.8041 391.00
53.1084 535.00
53.4127 361.00
53.7169 327.00
54.0212 337.00
54.3254 393.00
54.6297 404.00
54.934 329.00
55.2382 411.00
55.5425 358.00
55.8467 358.00
56.151 484.00
56.4553 358.00
56.7595 347.00
57.0638 344.00
57.368 485.00
57.6723 1120.00
57.9766 359.00
58.2808 341.00
58.5851 318.00
58.8893 496.00
59.1936 390.00
59.4979 328.00
59.8021 304.00
60.1064 326.00
60.4106 422.00
60.7149 315.00
61.0192 321.00
61.3234 340.00
61.6277 349.00
61.932 343.00
62.2362 302.00
62.5405 244.00
62.8447 307.00
63.149 340.00
63.4533 291.00
63.7575 293.00
64.0618 275.00
64.366 324.00
64.6703 327.00
64.9745 264.00
65.2788 284.00
65.5831 261.00
65.8873 324.00
66.1916 299.00
66.4959 297.00
66.8001 280.00
67.1044 278.00
67.4086 259.00
67.7129 311.00
68.0172 260.00
68.3214 264.00
68.6257 257.00
68.9299 259.00
69.2342 244.00
69.5385 283.00
69.8427 297.00
70.147 281.00
70.4512 266.00
70.7555 313.00
71.0598 383.00
71.364 296.00
71.6683 267.00
71.9725 262.00
72.2768 374.00
72.5811 285.00
72.8853 249.00
73.1896 234.00
73.4938 307.00
73.7981 281.00
74.1024 256.00
74.4066 305.00
74.7109 295.00
75.0151 302.00
75.3194 277.00
75.6237 241.00
75.9279 293.00
76.2322 290.00
76.5364 268.00
76.8407 277.00
77.145 311.00
77.4492 300.00
77.7535 267.00
78.0577 281.00
78.362 296.00
78.6663 420.00
78.9705 305.00
79.2748 306.00
79.579 278.00
79.8833 288.00
80.1876 290.00
80.4918 271.00
80.7961 267.00
81.1003 352.00
81.4046 287.00
81.7089 281.00
82.0131 295.00
82.3174 291.00
82.6217 300.00
82.9259 247.00
83.2302 287.00
83.5344 321.00
83.8387 277.00
84.143 260.00
84.4472 269.00
84.7515 272.00
85.0557 271.00
85.36 262.00
85.6643 245.00
85.9685 278.00
86.2728 267.00
86.577 242.00
86.8813 295.00
87.1856 297.00
87.4898 274.00
87.7941 285.00
88.0983 277.00
88.4026 275.00
88.7069 235.00
89.0111 288.00
89.3154 287.00
89.6196 308.00
89.9239 275.00
90.2282 238.00
90.5324 285.00
90.8367 295.00
91.1409 241.00
91.4452 286.00
91.7495 243.00
92.0537 243.00
92.358 242.00
92.6622 242.00
92.9665 216.00
93.2708 262.00
93.575 238.00
93.8793 219.00
94.1835 230.00
94.4878 283.00
94.7921 257.00
95.0963 215.00
95.4006 230.00
95.7048 287.00
96.0091 250.00
96.3134 259.00
96.6176 235.00
96.9219 275.00
97.2261 224.00
97.5304 248.00
97.8347 261.00
98.1389 308.00
98.4432 264.00
98.7474 243.00
99.0517 271.00
99.356 260.00
99.6602 245.00
99.9645 234.00
100.095 232.00

File: PG_2251-1.xy
9.903433 2412.00
10.2077 2351.00
10.512 2220.00
10.8162 2114.00
11.1205 2028.00
11.4247 1981.00
11.729 1921.00
12.0333 1786.00
12.3375 1712.00
12.6418 1830.00
12.946 1758.00
13.2503 1694.00
13.5546 1573.00
13.8588 1618.00
14.1631 1548.00
14.4673 1511.00
14.7716 1496.00
15.0759 1481.00
15.3801 1445.00
15.6844 1407.00
15.9886 1413.00
16.2929 1328.00
16.5972 1414.00
16.9014 1277.00
17.2057 1298.00
17.5099 1254.00
17.8142 1201.00
18.1185 1188.00
18.4227 1238.00
18.727 1182.00
19.0312 1103.00
19.3355 1160.00
19.6398 1141.00
19.944 1089.00
20.2483 1010.00
20.5525 999.00
20.8568 1052.00
21.1611 1023.00
21.4653 1244.00
21.7696 5079.00
22.0738 1068.00
22.3781 958.00
22.6824 976.00
22.9866 941.00
23.2909 954.00
23.5951 984.00
23.8994 1494.00
24.2037 912.00
24.5079 869.00
24.8122 861.00
25.1164 866.00
25.4207 823.00
25.725 844.00
26.0292 782.00
26.3335 840.00
26.6378 795.00
26.942 794.00
27.2463 809.00
27.5505 753.00
27.8548 778.00
28.1591 781.00
28.4633 791.00
28.7676 794.00
29.0718 895.00
29.3761 761.00
29.6804 968.00
29.9846 1369.00
30.2889 829.00
30.5931 885.00
30.8974 2438.00
31.2017 1684.00
31.5059 1298.00
31.8102 2314.00
32.1144 32103.00
32.4187 4297.00
32.723 1321.00
33.0272 1194.00
33.3315 954.00
33.6357 1030.00
33.94 1091.00
34.2443 1377.00
34.5485 3769.00
34.8528 37128.00
35.157 1793.00
35.4613 1322.00
35.7656 1356.00
36.0698 1760.00
36.3741 5083.00
36.6783 82259.00
36.9826 3569.00
37.2869 2398.00
37.5911 1315.00
37.8954 1036.00
38.1996 916.00
38.5039 887.00
38.8082 813.00
39.1124 811.00
39.4167 784.00
39.7209 856.00
40.0252 1674.00
40.3295 1265.00
40.6337 729.00
40.938 656.00
41.2422 624.00
41.5465 652.00
41.8508 597.00
42.155 630.00
42.4593 616.00
42.7635 633.00
43.0678 815.00
43.3721 613.00
43.6763 638.00
43.9806 758.00
44.2849 606.00
44.5891 575.00
44.8934 538.00
45.1976 580.00
45.5019 574.00
45.8062 563.00
46.1104 502.00
46.4147 582.00
46.7189 639.00
47.0232 612.00
47.3275 793.00
47.6317 1399.00
47.936 17913.00
48.2402 1411.00
48.5445 707.00
48.8488 600.00
49.153 1296.00
49.4573 606.00
49.7615 550.00
50.0658 499.00
50.3701 512.00
50.6743 728.00
50.9786 535.00
51.2828 510.00
51.5871 509.00
51.8914 490.00
52.1956 440.00
52.4999 493.00
52.8041 491.00
53.1084 498.00
53.4127 493.00
53.7169 488.00
54.0212 489.00
54.3254 552.00
54.6297 483.00
54.934 570.00
55.2382 571.00
55.5425 562.00
55.8467 585.00
56.151 671.00
56.4553 927.00
56.7595 3068.00
57.0638 13950.00
57.368 1402.00
57.6723 710.00
57.9766 776.00
58.2808 810.00
58.5851 669.00
58.8893 773.00
59.1936 809.00
59.4979 767.00
59.8021 646.00
60.1064 1087.00
60.4106 663.00
60.7149 574.00
61.0192 681.00
61.3234 624.00
61.6277 772.00
61.932 803.00
62.2362 690.00
62.5405 737.00
62.8447 1276.00
63.149 12316.00
63.4533 7586.00
63.7575 1057.00
64.0618 734.00
64.366 647.00
64.6703 579.00
64.9745 623.00
65.2788 626.00
65.5831 608.00
65.8873 727.00
66.1916 690.00
66.4959 879.00
66.8001 2613.00
67.1044 756.00
67.4086 752.00
67.7129 875.00
68.0172 1746.00
68.3214 18501.00
68.6257 2235.00
68.9299 905.00
69.2342 1677.00
69.5385 4166.00
69.8427 993.00
70.147 649.00
70.4512 578.00
70.7555 616.00
71.0598 561.00
71.364 524.00
71.6683 499.00
71.9725 520.00
72.2768 584.00
72.5811 580.00
72.8853 1897.00
73.1896 785.00
73.4938 451.00
73.7981 483.00
74.1024 576.00
74.4066 592.00
74.7109 469.00
75.0151 519.00
75.3194 601.00
75.6237 505.00
75.9279 478.00
76.2322 416.00
76.5364 442.00
76.8407 531.00
77.145 1083.00
77.4492 1468.00
77.7535 563.00
78.0577 440.00
78.362 446.00
78.6663 430.00
78.9705 455.00
79.2748 415.00
79.579 454.00
79.8833 419.00
80.1876 394.00
80.4918 412.00
80.7961 427.00
81.1003 417.00
81.4046 558.00
81.7089 1838.00
82.0131 839.00
82.3174 504.00
82.6217 419.00
82.9259 419.00
83.2302 420.00
83.5344 457.00
83.8387 369.00
84.143 387.00
84.4472 415.00
84.7515 417.00
85.0557 457.00
85.36 419.00
85.6643 430.00
85.9685 432.00
86.2728 447.00
86.577 494.00
86.8813 465.00
87.1856 413.00
87.4898 400.00
87.7941 428.00
88.0983 459.00
88.4026 443.00
88.7069 415.00
89.0111 473.00
89.3154 499.00
89.6196 822.00
89.9239 6322.00
90.2282 2980.00
90.5324 587.00
90.8367 466.00
91.1409 440.00
91.4452 447.00
91.7495 467.00
92.0537 478.00
92.358 478.00
92.6622 633.00
92.9665 1159.00
93.2708 1032.00
93.575 636.00
93.8793 514.00
94.1835 464.00
94.4878 469.00
94.7921 547.00
95.0963 634.00
95.4006 1476.00
95.7048 2435.00
96.0091 1507.00
96.3134 591.00
96.6176 515.00
96.9219 506.00
97.2261 503.00
97.5304 463.00
97.8347 489.00
98.1389 494.00
98.4432 561.00
98.7474 1338.00
99.0517 1224.00
99.356 897.00
99.6602 523.00
99.9645 553.00
100.095 500.00

File: PG_2252-1.xy
9.903433 2975.00
10.2077 2764.00
10.512 2790.00
10.8162 2579.00
11.1205 2495.00
11.4247 2492.00
11.729 2469.00
12.0333 2219.00
12.3375 2270.00
12.6418 2343.00
12.946 2369.00
13.2503 2325.00
13.5546 2301.00
13.8588 2239.00
14.1631 2304.00
14.4673 2189.00
14.7716 2277.00
15.0759 2204.00
15.3801 2197.00
15.6844 2114.00
15.9886 2207.00
16.2929 2209.00
16.5972 2133.00
16.9014 2183.00
17.2057 2210.00
17.5099 2311.00
17.8142 2784.00
18.1185 2170.00
18.4227 1999.00
18.727 2005.00
19.0312 2091.00
19.3355 2048.00
19.6398 2023.00
19.944 1955.00
20.2483 1889.00
20.5525 1935.00
20.8568 1894.00
21.1611 1998.00
21.4653 2191.00
21.7696 2119.00
22.0738 1841.00
22.3781 1969.00
22.6824 1858.00
22.9866 1900.00
23.2909 1883.00
23.5951 2122.00
23.8994 2089.00
24.2037 3012.00
24.5079 3290.00
24.8122 3833.00
25.1164 2000.00
25.4207 1914.00
25.725 1873.00
26.0292 1854.00
26.3335 1909.00
26.6378 1855.00
26.942 1759.00
27.2463 1890.00
27.5505 1992.00
27.8548 2375.00
28.1591 3549.00
28.4633 22504.00
28.7676 3960.00
29.0718 2250.00
29.3761 2045.00
29.6804 2206.00
29.9846 2002.00
30.2889 1904.00
30.5931 2041.00
30.8974 4017.00
31.2017 2361.00
31.5059 3823.00
31.8102 15947.00
32.1144 5296.00
32.4187 2124.00
32.723 1889.00
33.0272 1711.00
33.3315 1819.00
33.6357 1786.00
33.94 1870.00
34.2443 2906.00
34.5485 5886.00
34.8528 3122.00
35.157 2042.00
35.4613 3222.00
35.7656 2572.00
36.0698 1912.00
36.3741 2830.00
36.6783 1661.00
36.9826 1683.00
37.2869 2729.00
37.5911 1646.00
37.8954 1531.00
38.1996 1609.00
38.5039 1622.00
38.8082 2565.00
39.1124 1884.00
39.4167 1631.00
39.7209 1915.00
40.0252 1837.00
40.3295 1960.00
40.6337 1761.00
40.938 3379.00
41.2422 2572.00
41.5465 2736.00
41.8508 2028.00
42.155 1583.00
42.4593 1583.00
42.7635 1463.00
43.0678 1485.00
43.3721 1458.00
43.6763 1604.00
43.9806 1495.00
44.2849 1512.00
44.5891 1649.00
44.8934 1869.00
45.1976 2782.00
45.5019 1843.00
45.8062 3002.00
46.1104 1750.00
46.4147 1512.00
46.7189 1408.00
47.0232 1503.00
47.3275 1515.00
47.6317 1430.00
47.936 1472.00
48.2402 1464.00
48.5445 1470.00
48.8488 1719.00
49.153 2375.00
49.4573 3994.00
49.7615 2957.00
50.0658 2256.00
50.3701 6529.00
50.6743 3343.00
50.9786 3423.00
51.2828 2061.00
51.5871 2339.00
51.8914 1552.00
52.1956 1508.00
52.4999 1495.00
52.8041 1486.00
53.1084 1465.00
53.4127 1451.00
53.7169 1529.00
54.0212 1737.00
54.3254 3480.00
54.6297 2156.00
54.934 1807.00
55.2382 1824.00
55.5425 3216.00
55.8467 3980.00
56.151 3511.00
56.4553 2126.00
56.7595 1599.00
57.0638 1792.00
57.368 2591.00
57.6723 2319.00
57.9766 2030.00
58.2808 2396.00
58.5851 2409.00
58.8893 1759.00
59.1936 1808.00
59.4979 1687.00
59.8021 1831.00
60.1064 3456.00
60.4106 2790.00
60.7149 1755.00
61.0192 1617.00
61.3234 1765.00
61.6277 2897.00
61.932 2062.00
62.2362 2859.00
62.5405 1924.00
62.8447 1964.00
63.149 3333.00
63.4533 1810.00
63.7575 1550.00
64.0618 1578.00
64.366 1868.00
64.6703 1817.00
64.9745 1553.00
65.2788 1687.00
65.5831 2052.00
65.8873 2648.00
66.1916 2342.00
66.4959 1566.00
66.8001 1406.00
67.1044 1337.00
67.4086 1463.00
67.7129 1508.00
68.0172 1380.00
68.3214 1423.00
68.6257 1345.00
68.9299 1463.00
69.2342 1744.00
69.5385 1529.00
69.8427 1513.00
70.147 1449.00
70.4512 1545.00
70.7555 1488.00
71.0598 1532.00
71.364 2040.00
71.6683 1941.00
71.9725 1480.00
72.2768 1699.00
72.5811 1690.00
72.8853 1699.00
73.1896 1459.00
73.4938 1423.00
73.7981 1505.00
74.1024 1489.00
74.4066 1518.00
74.7109 1434.00
75.0151 1603.00
75.3194 2291.00
75.6237 1830.00
75.9279 1490.00
76.2322 1408.00
76.5364 1496.00
76.8407 1677.00
77.145 1532.00
77.4492 1538.00
77.7535 1666.00
78.0577 1489.00
78.362 1528.00
78.6663 1448.00
78.9705 1681.00
79.2748 1590.00
79.579 1464.00
79.8833 1362.00
80.1876 1382.00
80.4918 1297.00
80.7961 1450.00
81.1003 1334.00
81.4046 1476.00
81.7089 1540.00
82.0131 1659.00
82.3174 1515.00
82.6217 1670.00
82.9259 1747.00
83.2302 1784.00
83.5344 1763.00
83.8387 1618.00
84.143 1784.00
84.4472 1811.00
84.7515 1582.00
85.0557 1695.00
85.36 1533.00
85.6643 1460.00
85.9685 1459.00
86.2728 1604.00
86.577 1473.00
86.8813 1463.00
87.1856 1533.00
87.4898 1521.00
87.7941 1623.00
88.0983 1477.00
88.4026 1867.00
88.7069 2069.00
89.0111 1767.00
89.3154 1495.00
89.6196 1635.00
89.9239 1787.00
90.2282 1815.00
90.5324 1534.00
90.8367 1461.00
91.1409 1451.00
91.4452 1451.00
91.7495 1478.00
92.0537 1351.00
92.358 1357.00
92.6622 1395.00
92.9665 1379.00
93.2708 1420.00
93.575 1447.00
93.8793 1672.00
94.1835 1530.00
94.4878 1458.00
94.7921 1465.00
95.0963 1570.00
95.4006 1814.00
95.7048 1630.00
96.0091 1549.00
96.3134 1748.00
96.6176 1963.00
96.9219 1852.00
97.2261 1968.00
97.5304 1640.00
97.8347 1515.00
98.1389 1734.00
98.4432 1561.00
98.7474 1599.00
99.0517 1811.00
99.356 1745.00
99.6602 1953.00
99.9645 1708.00
100.095 1722.00

File: PG_2434-1.xy
9.903433 2746.00
10.2077 2625.00
10.512 2530.00
10.8162 2489.00
11.1205 2313.00
11.4247 2245.00
11.729 2298.00
12.0333 2152.00
12.3375 2115.00
12.6418 2035.00
12.946 2006.00
13.2503 1997.00
13.5546 2055.00
13.8588 1996.00
14.1631 2036.00
14.4673 1980.00
14.7716 2057.00
15.0759 1891.00
15.3801 1963.00
15.6844 2039.00
15.9886 2088.00
16.2929 2261.00
16.5972 4248.00
16.9014 3002.00
17.2057 2289.00
17.5099 2060.00
17.8142 2010.00
18.1185 2078.00
18.4227 2162.00
18.727 1935.00
19.0312 1792.00
19.3355 1873.00
19.6398 1857.00
19.944 1900.00
20.2483 1893.00
20.5525 1838.00
20.8568 1793.00
21.1611 1958.00
21.4653 1823.00
21.7696 2012.00
22.0738 2682.00
22.3781 3283.00
22.6824 1953.00
22.9866 2139.00
23.2909 3783.00
23.5951 2773.00
23.8994 1837.00
24.2037 1813.00
24.5079 2028.00
24.8122 2741.00
25.1164 2096.00
25.4207 1771.00
25.725 1662.00
26.0292 1767.00
26.3335 1698.00
26.6378 1737.00
26.942 1760.00
27.2463 1647.00
27.5505 1711.00
27.8548 1521.00
28.1591 1510.00
28.4633 1583.00
28.7676 2504.00
29.0718 3064.00
29.3761 1616.00
29.6804 1481.00
29.9846 1398.00
30.2889 1368.00
30.5931 1348.00
30.8974 1238.00
31.2017 1217.00
31.5059 1247.00
31.8102 1177.00
32.1144 1142.00
32.4187 1109.00
32.723 1077.00
33.0272 1089.00
33.3315 1172.00
33.6357 1913.00
33.94 2736.00
34.2443 1700.00
34.5485 1139.00
34.8528 988.00
35.157 1003.00
35.4613 970.00
35.7656 952.00
36.0698 964.00
36.3741 894.00
36.6783 1611.00
36.9826 1657.00
37.2869 1044.00
37.5911 970.00
37.8954 982.00
38.1996 835.00
38.5039 936.00
38.8082 977.00
39.1124 891.00
39.4167 817.00
39.7209 842.00
40.0252 784.00
40.3295 742.00
40.6337 767.00
40.938 726.00
41.2422 702.00
41.5465 744.00
41.8508 714.00
42.155 721.00
42.4593 745.00
42.7635 671.00
43.0678 685.00
43.3721 700.00
43.6763 741.00
43.9806 691.00
44.2849 643.00
44.5891 627.00
44.8934 1007.00
45.1976 874.00
45.5019 655.00
45.8062 636.00
46.1104 641.00
46.4147 589.00
46.7189 581.00
47.0232 588.00
47.3275 605.00
47.6317 546.00
47.936 600.00
48.2402 587.00
48.5445 565.00
48.8488 518.00
49.153 573.00
49.4573 610.00
49.7615 534.00
50.0658 546.00
50.3701 544.00
50.6743 614.00
50.9786 886.00
51.2828 708.00
51.5871 716.00
51.8914 540.00
52.1956 546.00
52.4999 508.00
52.8041 498.00
53.1084 492.00
53.4127 492.00
53.7169 497.00
54.0212 492.00
54.3254 581.00
54.6297 582.00
54.934 477.00
55.2382 474.00
55.5425 483.00
55.8467 478.00
56.151 443.00
56.4553 463.00
56.7595 484.00
57.0638 540.00
57.368 677.00
57.6723 526.00
57.9766 518.00
58.2808 444.00
58.5851 511.00
58.8893 523.00
59.1936 506.00
59.4979 473.00
59.8021 510.00
60.1064 538.00
60.4106 660.00
60.7149 642.00
61.0192 818.00
61.3234 569.00
61.6277 481.00
61.932 451.00
62.2362 429.00
62.5405 439.00
62.8447 475.00
63.149 475.00
63.4533 438.00
63.7575 433.00
64.0618 427.00
64.366 416.00
64.6703 437.00
64.9745 437.00
65.2788 425.00
65.5831 428.00
65.8873 427.00
66.1916 396.00
66.4959 456.00
66.8001 399.00
67.1044 423.00
67.4086 459.00
67.7129 436.00
68.0172 458.00
68.3214 548.00
68.6257 428.00
68.9299 416.00
69.2342 407.00
69.5385 396.00
69.8427 403.00
70.147 416.00
70.4512 443.00
70.7555 490.00
71.0598 411.00
71.364 457.00
71.6683 432.00
71.9725 387.00
72.2768 396.00
72.5811 394.00
72.8853 458.00
73.1896 475.00
73.4938 501.00
73.7981 519.00
74.1024 454.00
74.4066 432.00
74.7109 361.00
75.0151 381.00
75.3194 400.00
75.6237 388.00
75.9279 351.00
76.2322 335.00
76.5364 366.00
76.8407 380.00
77.145 369.00
77.4492 386.00
77.7535 402.00
78.0577 398.00
78.362 421.00
78.6663 410.00
78.9705 340.00
79.2748 363.00
79.579 395.00
79.8833 380.00
80.1876 397.00
80.4918 389.00
80.7961 440.00
81.1003 389.00
81.4046 372.00
81.7089 334.00
82.0131 393.00
82.3174 367.00
82.6217 405.00
82.9259 415.00
83.2302 346.00
83.5344 326.00
83.8387 344.00
84.143 329.00
84.4472 337.00
84.7515 309.00
85.0557 315.00
85.36 310.00
85.6643 307.00
85.9685 328.00
86.2728 363.00
86.577 348.00
86.8813 344.00
87.1856 309.00
87.4898 348.00
87.7941 340.00
88.0983 336.00
88.4026 346.00
88.7069 345.00
89.0111 316.00
89.3154 332.00
89.6196 309.00
89.9239 339.00
90.2282 319.00
90.5324 341.00
90.8367 353.00
91.1409 291.00
91.4452 326.00
91.7495 313.00
92.0537 335.00
92.358 276.00
92.6622 350.00
92.9665 305.00
93.2708 293.00
93.575 322.00
93.8793 291.00
94.1835 267.00
94.4878 276.00
94.7921 264.00
95.0963 271.00
95.4006 324.00
95.7048 312.00
96.0091 285.00
96.3134 273.00
96.6176 322.00
96.9219 333.00
97.2261 335.00
97.5304 325.00
97.8347 332.00
98.1389 333.00
98.4432 276.00
98.7474 261.00
99.0517 261.00
99.356 279.00
99.6602 299.00
99.9645 292.00
100.095 333.00

File: PG_2435-1.xy
9.903433 2683.00
10.2077 2572.00
10.512 2379.00
10.8162 2304.00
11.1205 2176.00
11.4247 2090.00
11.729 1976.00
12.0333 1891.00
12.3375 1878.00
12.6418 1753.00
12.946 1652.00
13.2503 1684.00
13.5546 1543.00
13.8588 1566.00
14.1631 1490.00
14.4673 1458.00
14.7716 1501.00
15.0759 1414.00
15.3801 1343.00
15.6844 1323.00
15.9886 1361.00
16.2929 1253.00
16.5972 1291.00
16.9014 1167.00
17.2057 1192.00
17.5099 1150.00
17.8142 1160.00
18.1185 1153.00
18.4227 1195.00
18.727 1106.00
19.0312 1048.00
19.3355 986.00
19.6398 958.00
19.944 927.00
20.2483 1031.00
20.5525 1010.00
20.8568 906.00
21.1611 929.00
21.4653 877.00
21.7696 817.00
22.0738 924.00
22.3781 1137.00
22.6824 848.00
22.9866 810.00
23.2909 816.00
23.5951 804.00
23.8994 835.00
24.2037 778.00
24.5079 789.00
24.8122 748.00
25.1164 770.00
25.4207 748.00
25.725 790.00
26.0292 677.00
26.3335 791.00
26.6378 725.00
26.942 705.00
27.2463 689.00
27.5505 724.00
27.8548 836.00
28.1591 1250.00
28.4633 769.00
28.7676 794.00
29.0718 688.00
29.3761 629.00
29.6804 605.00
29.9846 636.00
30.2889 626.00
30.5931 639.00
30.8974 622.00
31.2017 617.00
31.5059 721.00
31.8102 570.00
32.1144 593.00
32.4187 561.00
32.723 570.00
33.0272 610.00
33.3315 538.00
33.6357 535.00
33.94 512.00
34.2443 638.00
34.5485 533.00
34.8528 498.00
35.157 462.00
35.4613 547.00
35.7656 496.00
36.0698 490.00
36.3741 581.00
36.6783 482.00
36.9826 463.00
37.2869 459.00
37.5911 475.00
37.8954 426.00
38.1996 413.00
38.5039 448.00
38.8082 450.00
39.1124 384.00
39.4167 450.00
39.7209 429.00
40.0252 426.00
40.3295 391.00
40.6337 364.00
40.938 420.00
41.2422 409.00
41.5465 394.00
41.8508 407.00
42.155 393.00
42.4593 357.00
42.7635 390.00
43.0678 385.00
43.3721 379.00
43.6763 393.00
43.9806 327.00
44.2849 337.00
44.5891 339.00
44.8934 359.00
45.1976 362.00
45.5019 334.00
45.8062 344.00
46.1104 365.00
46.4147 371.00
46.7189 322.00
47.0232 322.00
47.3275 339.00
47.6317 309.00
47.936 323.00
48.2402 309.00
48.5445 332.00
48.8488 281.00
49.153 315.00
49.4573 381.00
49.7615 298.00
50.0658 301.00
50.3701 357.00
50.6743 358.00
50.9786 324.00
51.2828 325.00
51.5871 321.00
51.8914 269.00
52.1956 272.00
52.4999 286.00
52.8041 299.00
53.1084 320.00
53.4127 278.00
53.7169 260.00
54.0212 265.00
54.3254 305.00
54.6297 293.00
54.934 293.00
55.2382 311.00
55.5425 315.00
55.8467 298.00
56.151 277.00
56.4553 279.00
56.7595 236.00
57.0638 261.00
57.368 298.00
57.6723 247.00
57.9766 268.00
58.2808 288.00
58.5851 271.00
58.8893 217.00
59.1936 250.00
59.4979 240.00
59.8021 245.00
60.1064 270.00
60.4106 229.00
60.7149 238.00
61.0192 239.00
61.3234 220.00
61.6277 245.00
61.932 257.00
62.2362 234.00
62.5405 239.00
62.8447 213.00
63.149 231.00
63.4533 221.00
63.7575 233.00
64.0618 218.00
64.366 230.00
64.6703 228.00
64.9745 229.00
65.2788 246.00
65.5831 201.00
65.8873 244.00
66.1916 228.00
66.4959 243.00
66.8001 182.00
67.1044 229.00
67.4086 216.00
67.7129 203.00
68.0172 213.00
68.3214 196.00
68.6257 229.00
68.9299 219.00
69.2342 195.00
69.5385 212.00
69.8427 204.00
70.147 223.00
70.4512 215.00
70.7555 235.00
71.0598 249.00
71.364 258.00
71.6683 194.00
71.9725 222.00
72.2768 209.00
72.5811 215.00
72.8853 221.00
73.1896 225.00
73.4938 218.00
73.7981 200.00
74.1024 216.00
74.4066 221.00
74.7109 208.00
75.0151 219.00
75.3194 208.00
75.6237 234.00
75.9279 201.00
76.2322 236.00
76.5364 214.00
76.8407 207.00
77.145 198.00
77.4492 236.00
77.7535 210.00
78.0577 235.00
78.362 246.00
78.6663 238.00
78.9705 259.00
79.2748 242.00
79.579 239.00
79.8833 220.00
80.1876 238.00
80.4918 249.00
80.7961 223.00
81.1003 265.00
81.4046 257.00
81.7089 221.00
82.0131 247.00
82.3174 273.00
82.6217 221.00
82.9259 232.00
83.2302 228.00
83.5344 224.00
83.8387 228.00
84.143 258.00
84.4472 244.00
84.7515 256.00
85.0557 224.00
85.36 238.00
85.6643 220.00
85.9685 233.00
86.2728 238.00
86.577 242.00
86.8813 218.00
87.1856 213.00
87.4898 219.00
87.7941 208.00
88.0983 199.00
88.4026 215.00
88.7069 213.00
89.0111 218.00
89.3154 221.00
89.6196 212.00
89.9239 197.00
90.2282 225.00
90.5324 217.00
90.8367 211.00
91.1409 200.00
91.4452 204.00
91.7495 192.00
92.0537 227.00
92.358 210.00
92.6622 182.00
92.9665 210.00
93.2708 185.00
93.575 229.00
93.8793 189.00
94.1835 186.00
94.4878 201.00
94.7921 158.00
95.0963 204.00
95.4006 192.00
95.7048 212.00
96.0091 205.00
96.3134 208.00
96.6176 204.00
96.9219 190.00
97.2261 210.00
97.5304 207.00
97.8347 204.00
98.1389 214.00
98.4432 214.00
98.7474 197.00
99.0517 204.00
99.356 208.00
99.6602 166.00
99.9645 181.00
100.095 191.00